Acc_X,Acc_Y,Acc_Z,Rot_Z,Millis
-0.025, -0.134, 0.993, -0.061, 85356
-0.019, -0.133, 0.998, -0.305, 85384
-0.020, -0.132, 0.997, -0.061, 85411
-0.022, -0.132, 0.995, -0.183, 85427
-0.021, -0.133, 0.994, -0.244, 85452
-0.019, -0.135, 0.998, -0.183, 85468
-0.023, -0.131, 0.998, -0.183, 85498
-0.019, -0.133, 0.997, -0.122, 85513
-0.017, -0.134, 0.998, -0.183, 85543
-0.020, -0.131, 0.998, -0.427, 85559
-0.019, -0.132, 0.999, -0.122, 85590
-0.023, -0.133, 0.997, -0.244, 85606
-0.021, -0.134, 0.997, -0.183, 85632
-0.023, -0.132, 0.995, -0.305, 85649
-0.023, -0.135, 0.994, -0.244, 85681
-0.022, -0.131, 0.997, -0.183, 85707
-0.020, -0.134, 0.994, -0.122, 85722
-0.018, -0.134, 0.999, -0.061, 85757
-0.018, -0.134, 0.995, -0.183, 85772
-0.016, -0.131, 0.997, -0.061, 85799
-0.022, -0.133, 0.995, -0.183, 85814
-0.025, -0.135, 0.995, -0.305, 85841
-0.017, -0.132, 0.996, -0.061, 85858
-0.017, -0.135, 0.996, -0.244, 85892
-0.021, -0.133, 0.997, -0.244, 85919
-0.021, -0.134, 0.995, -0.061, 85936
-0.025, -0.137, 0.997, -0.122, 85965
-0.021, -0.133, 0.996, -0.122, 85981
-0.020, -0.134, 0.998, 0.000, 86010
-0.022, -0.132, 0.996, -0.183, 86027
-0.022, -0.133, 0.994, -0.183, 86056
-0.021, -0.139, 0.994, -0.305, 86071
-0.021, -0.134, 0.998, -0.244, 86099
-0.016, -0.134, 0.995, -0.305, 86115
-0.017, -0.132, 0.995, -0.366, 86142
-0.025, -0.133, 0.996, -0.244, 86159
-0.023, -0.134, 0.995, -0.183, 86192
-0.018, -0.132, 0.998, -0.122, 86207
-0.023, -0.137, 0.996, -0.183, 86235
-0.020, -0.134, 0.997, -0.244, 86251
-0.022, -0.136, 0.996, -0.122, 86280
-0.023, -0.132, 0.994, -0.244, 86307
-0.019, -0.133, 0.996, -0.366, 86323
-0.021, -0.132, 0.998, -0.122, 86351
-0.024, -0.131, 0.995, -0.183, 86368
-0.018, -0.134, 0.993, -0.122, 86396
-0.021, -0.133, 0.996, -0.244, 86412
-0.021, -0.135, 0.995, -0.122, 86452
-0.021, -0.132, 0.999, -0.305, 86468
-0.021, -0.135, 0.996, -0.305, 86507
-0.024, -0.133, 0.997, -0.061, 86535
-0.020, -0.135, 0.994, -0.244, 86552
-0.021, -0.132, 0.993, 0.000, 86580
-0.019, -0.133, 0.996, -0.305, 86630
-0.020, -0.133, 0.996, -0.061, 86656
-0.023, -0.133, 0.996, -0.122, 86672
-0.021, -0.135, 0.997, -0.061, 86701
-0.021, -0.136, 0.997, -0.244, 86717
-0.019, -0.133, 0.993, 0.000, 86742
-0.017, -0.132, 0.994, -0.122, 86759
-0.022, -0.133, 0.997, -0.122, 86774
-0.018, -0.135, 0.996, -0.061, 86802
-0.022, -0.136, 0.994, -0.061, 86819
-0.022, -0.135, 0.999, -0.061, 86836
-0.018, -0.135, 0.994, -0.183, 86864
-0.020, -0.133, 0.997, -0.061, 86881
-0.019, -0.135, 0.997, -0.183, 86897
-0.023, -0.134, 0.993, -0.244, 86926
-0.023, -0.135, 0.999, -0.366, 86943
-0.023, -0.132, 0.994, -0.183, 86967
-0.021, -0.130, 0.996, -0.122, 86984
-0.021, -0.132, 0.993, -0.183, 86998
-0.017, -0.134, 0.996, -0.244, 87015
-0.018, -0.135, 0.996, -0.183, 87041
-0.021, -0.136, 0.995, -0.122, 87059
-0.021, -0.132, 0.996, 0.000, 87075
-0.020, -0.135, 0.995, -0.183, 87102
-0.021, -0.132, 0.996, -0.366, 87119
-0.022, -0.134, 0.996, -0.305, 87136
-0.021, -0.133, 0.997, -0.305, 87163
-0.019, -0.134, 0.997, -0.244, 87181
-0.022, -0.129, 0.996, -0.549, 87197
-0.024, -0.131, 0.996, -0.061, 87226
-0.021, -0.133, 0.997, -0.305, 87242
-0.023, -0.131, 0.996, -0.305, 87272
-0.017, -0.132, 0.997, -0.305, 87288
-0.020, -0.135, 0.997, -0.183, 87304
-0.020, -0.134, 0.994, 0.000, 87333
-0.021, -0.132, 0.998, -0.122, 87349
-0.021, -0.133, 0.998, -0.061, 87364
-0.019, -0.134, 0.998, -0.061, 87392
-0.020, -0.133, 0.995, -0.183, 87409
-0.020, -0.134, 0.991, 0.000, 87426
-0.024, -0.133, 0.997, -0.061, 87455
-0.022, -0.130, 0.997, -0.061, 87472
-0.021, -0.133, 0.994, -0.244, 87487
-0.022, -0.135, 0.996, -0.122, 87513
-0.022, -0.132, 0.999, -0.244, 87530
-0.020, -0.135, 0.997, -0.061, 87546
-0.017, -0.136, 0.997, 0.061, 87575
-0.022, -0.133, 0.997, -0.366, 87592
-0.020, -0.132, 0.997, -0.305, 87608
-0.018, -0.137, 0.995, -0.122, 87636
-0.020, -0.133, 0.993, -0.122, 87653
-0.021, -0.133, 0.997, -0.061, 87670
-0.022, -0.133, 0.995, -0.366, 87698
-0.021, -0.133, 0.997, 0.000, 87714
-0.023, -0.132, 0.997, 0.244, 87729
-0.023, -0.131, 0.996, -0.305, 87756
-0.022, -0.137, 0.995, -0.183, 87774
-0.023, -0.135, 0.995, -0.244, 87790
-0.020, -0.134, 0.994, -0.183, 87817
-0.021, -0.133, 0.997, -0.305, 87834
-0.023, -0.131, 0.996, -0.183, 87852
-0.022, -0.135, 0.996, -0.061, 87883
-0.022, -0.137, 0.997, -0.366, 87901
-0.020, -0.134, 0.997, -0.183, 87915
-0.022, -0.131, 0.999, -0.183, 87944
-0.018, -0.135, 1.000, -0.183, 87960
-0.019, -0.134, 0.995, -0.183, 87975
-0.021, -0.133, 0.995, -0.122, 88005
-0.019, -0.134, 0.996, -0.183, 88024
-0.019, -0.133, 0.998, 0.061, 88053
-0.020, -0.131, 0.994, -0.244, 88071
-0.019, -0.134, 0.994, -0.244, 88087
-0.020, -0.135, 0.993, -0.305, 88114
-0.021, -0.132, 0.996, -0.061, 88132
-0.019, -0.132, 0.995, -0.183, 88149
-0.022, -0.135, 0.994, -0.305, 88178
-0.018, -0.133, 0.997, -0.183, 88196
-0.019, -0.131, 0.995, -0.305, 88210
-0.019, -0.133, 0.999, -0.061, 88241
-0.021, -0.136, 0.995, -0.122, 88260
-0.021, -0.133, 0.997, -0.183, 88276
-0.022, -0.133, 0.996, -0.183, 88302
-0.020, -0.133, 0.996, -0.061, 88320
-0.018, -0.131, 0.999, -0.305, 88336
-0.022, -0.134, 0.996, -0.183, 88354
-0.019, -0.136, 0.998, -0.244, 88371
-0.021, -0.133, 0.995, 0.000, 88387
-0.018, -0.133, 0.994, -0.122, 88416
-0.019, -0.132, 0.997, 0.000, 88432
-0.022, -0.133, 0.995, 0.000, 88448
-0.023, -0.133, 0.996, -0.061, 88476
-0.023, -0.134, 0.997, -0.305, 88495
-0.023, -0.131, 0.992, -0.244, 88512
-0.019, -0.132, 0.997, -0.183, 88539
-0.022, -0.134, 0.996, -0.122, 88556
-0.021, -0.130, 0.997, -0.244, 88573
-0.021, -0.136, 0.998, -0.244, 88603
-0.023, -0.130, 0.998, -0.183, 88619
-0.021, -0.135, 0.992, -0.061, 88635
-0.021, -0.131, 0.998, 0.000, 88662
-0.015, -0.133, 0.996, -0.122, 88679
-0.022, -0.132, 0.995, -0.122, 88695
-0.021, -0.132, 0.999, -0.061, 88723
-0.020, -0.132, 0.996, -0.122, 88739
-0.021, -0.137, 0.999, -0.183, 88756
-0.025, -0.133, 0.994, -0.244, 88785
-0.019, -0.135, 0.995, -0.061, 88804
-0.019, -0.131, 0.997, -0.061, 88832
-0.021, -0.135, 0.997, -0.061, 88850
-0.024, -0.133, 1.000, -0.183, 88866
-0.022, -0.132, 0.996, -0.122, 88893
-0.021, -0.135, 0.993, -0.183, 88910
-0.023, -0.137, 0.998, -0.305, 88926
-0.017, -0.131, 0.996, -0.122, 88952
-0.023, -0.131, 0.996, -0.183, 88968
-0.023, -0.133, 0.995, -0.061, 88985
-0.021, -0.132, 0.992, -0.183, 89014
-0.020, -0.135, 0.998, -0.122, 89031
-0.021, -0.135, 0.995, -0.244, 89047
-0.022, -0.137, 0.995, -0.244, 89074
-0.021, -0.137, 0.994, -0.244, 89092
-0.017, -0.130, 0.994, -0.183, 89108
-0.018, -0.131, 0.996, -0.122, 89135
-0.020, -0.136, 0.994, -0.122, 89153
-0.016, -0.132, 0.995, -0.061, 89170
-0.023, -0.136, 0.996, 0.000, 89197
-0.019, -0.130, 0.995, -0.061, 89213
-0.024, -0.129, 0.996, 0.000, 89228
-0.020, -0.136, 0.992, -0.183, 89254
-0.023, -0.131, 0.999, -0.183, 89272
-0.022, -0.133, 0.996, -0.061, 89289
-0.022, -0.134, 0.997, -0.244, 89314
-0.021, -0.134, 0.998, -0.122, 89331
-0.021, -0.134, 0.996, -0.183, 89348
-0.021, -0.133, 0.993, -0.244, 89374
-0.021, -0.133, 0.994, -0.061, 89391
-0.019, -0.131, 0.998, -0.244, 89407
-0.020, -0.132, 0.998, -0.183, 89432
-0.022, -0.135, 0.995, -0.305, 89449
-0.018, -0.133, 0.994, -0.061, 89465
-0.020, -0.134, 0.994, -0.183, 89492
-0.020, -0.132, 0.995, -0.122, 89509
-0.022, -0.135, 0.995, -0.427, 89526
-0.021, -0.134, 0.995, -0.122, 89556
-0.023, -0.134, 0.998, -0.244, 89574
-0.023, -0.133, 0.991, -0.305, 89592
-0.021, -0.132, 0.995, -0.183, 89621
-0.021, -0.135, 0.996, -0.183, 89638
-0.022, -0.132, 0.997, -0.183, 89655
-0.020, -0.134, 0.994, -0.061, 89672
-0.021, -0.136, 0.993, 0.000, 89687
-0.017, -0.136, 0.995, -0.244, 89703
-0.021, -0.129, 0.994, -0.183, 89733
-0.023, -0.133, 0.996, -0.122, 89750
-0.020, -0.131, 0.995, 0.000, 89766
-0.023, -0.132, 1.001, -0.122, 89792
-0.021, -0.131, 0.995, -0.183, 89809
-0.020, -0.135, 0.994, -0.183, 89826
-0.021, -0.134, 0.993, 0.061, 89854
-0.016, -0.134, 0.995, -0.122, 89872
-0.021, -0.132, 0.993, -0.061, 89888
-0.019, -0.131, 1.000, -0.183, 89916
-0.020, -0.135, 0.998, -0.183, 89933
-0.024, -0.132, 0.996, -0.244, 89948
-0.022, -0.133, 0.998, -0.244, 89978
-0.020, -0.134, 0.995, -0.366, 89993
-0.021, -0.132, 0.998, -0.183, 90011
-0.024, -0.134, 0.997, -0.122, 90036
-0.021, -0.134, 0.995, -0.244, 90054
-0.019, -0.134, 0.994, -0.244, 90069
-0.022, -0.133, 0.995, -0.122, 90098
-0.018, -0.129, 0.996, -0.122, 90114
-0.023, -0.133, 0.997, -0.122, 90131
-0.025, -0.134, 0.994, -0.244, 90161
-0.021, -0.136, 0.995, -0.061, 90177
-0.021, -0.135, 0.998, -0.122, 90194
-0.021, -0.132, 0.994, -0.061, 90223
-0.023, -0.135, 0.993, -0.244, 90241
-0.023, -0.131, 0.999, -0.122, 90257
-0.022, -0.131, 0.996, -0.183, 90285
-0.022, -0.135, 0.997, -0.305, 90301
-0.021, -0.134, 0.995, -0.366, 90316
-0.022, -0.135, 0.998, -0.244, 90345
-0.019, -0.135, 0.998, -0.122, 90363
-0.020, -0.131, 0.997, -0.061, 90391
-0.021, -0.134, 0.998, 0.000, 90408
-0.018, -0.130, 0.993, -0.244, 90424
-0.021, -0.133, 0.998, -0.183, 90449
-0.023, -0.132, 0.994, -0.427, 90466
-0.018, -0.131, 0.994, -0.122, 90483
-0.023, -0.131, 0.994, -0.122, 90511
-0.024, -0.133, 0.997, -0.061, 90526
-0.019, -0.132, 0.996, -0.061, 90542
-0.020, -0.134, 0.993, 0.061, 90570
-0.018, -0.134, 0.996, -0.183, 90585
-0.023, -0.134, 0.996, -0.244, 90600
-0.022, -0.137, 0.996, -0.305, 90615
-0.021, -0.132, 0.996, -0.244, 90642
-0.022, -0.132, 0.997, 0.000, 90658
-0.023, -0.133, 0.994, -0.183, 90673
-0.021, -0.130, 1.001, 0.000, 90700
-0.022, -0.131, 0.992, -0.305, 90717
-0.022, -0.131, 0.995, -0.305, 90734
-0.024, -0.131, 0.996, -0.183, 90760
-0.023, -0.131, 0.993, -0.244, 90777
-0.020, -0.134, 0.996, -0.244, 90793
-0.019, -0.133, 0.995, -0.305, 90822
-0.016, -0.134, 0.995, -0.183, 90839
-0.017, -0.134, 0.999, -0.244, 90869
-0.019, -0.136, 0.997, -0.061, 90885
-0.021, -0.134, 0.995, -0.366, 90901
-0.021, -0.132, 1.000, -0.244, 90930
-0.022, -0.131, 0.998, -0.244, 90946
-0.024, -0.130, 0.995, -0.183, 90964
-0.017, -0.129, 0.995, -0.122, 90989
-0.017, -0.135, 0.997, -0.122, 91005
-0.018, -0.132, 0.999, -0.061, 91023
-0.024, -0.135, 0.996, -0.122, 91051
-0.020, -0.134, 0.997, -0.183, 91068
-0.020, -0.135, 0.994, -0.122, 91085
-0.020, -0.136, 0.996, -0.305, 91115
-0.022, -0.132, 0.996, -0.183, 91130
-0.021, -0.135, 0.993, -0.183, 91146
-0.023, -0.131, 0.996, -0.366, 91172
-0.023, -0.134, 0.996, -0.244, 91189
-0.022, -0.135, 0.995, 0.000, 91206
-0.022, -0.135, 0.998, -0.061, 91236
-0.020, -0.134, 0.998, -0.061, 91253
-0.020, -0.135, 0.994, -0.183, 91270
-0.020, -0.132, 0.994, -0.305, 91296
-0.024, -0.136, 0.998, -0.244, 91312
-0.021, -0.135, 0.998, 0.061, 91328
-0.020, -0.134, 0.995, -0.061, 91360
-0.021, -0.135, 0.998, -0.061, 91377
-0.020, -0.132, 0.996, -0.122, 91394
-0.019, -0.132, 1.000, -0.061, 91424
-0.021, -0.134, 0.998, -0.244, 91441
-0.021, -0.134, 0.996, -0.122, 91468
-0.016, -0.131, 0.994, -0.122, 91486
-0.019, -0.134, 0.995, -0.244, 91503
-0.025, -0.134, 0.998, -0.244, 91534
-0.023, -0.134, 0.997, -0.183, 91551
-0.018, -0.129, 0.998, -0.244, 91567
-0.021, -0.133, 0.994, -0.244, 91595
-0.019, -0.131, 0.995, 0.122, 91612
-0.021, -0.135, 0.999, -0.305, 91630
-0.019, -0.137, 0.997, -0.244, 91659
-0.021, -0.133, 0.994, -0.122, 91675
-0.020, -0.130, 0.996, -0.183, 91690
-0.022, -0.134, 0.996, -0.183, 91721
-0.019, -0.135, 0.993, -0.244, 91738
-0.021, -0.132, 1.000, -0.244, 91754
-0.020, -0.133, 0.994, -0.183, 91783
-0.019, -0.133, 0.995, -0.122, 91798
-0.021, -0.134, 0.996, -0.183, 91814
-0.022, -0.134, 0.998, -0.244, 91843
-0.024, -0.133, 0.998, -0.305, 91860
-0.023, -0.135, 0.993, -0.183, 91875
-0.021, -0.132, 0.994, -0.244, 91904
-0.019, -0.132, 0.993, -0.183, 91920
-0.024, -0.134, 0.997, -0.122, 91935
-0.022, -0.131, 0.997, -0.305, 91952
-0.021, -0.135, 0.998, -0.061, 91970
-0.019, -0.132, 0.994, -0.122, 91987
-0.022, -0.132, 0.997, -0.122, 92018
-0.021, -0.134, 0.995, -0.244, 92035
-0.022, -0.133, 0.996, -0.122, 92052
-0.019, -0.134, 0.995, -0.061, 92079
-0.022, -0.132, 0.994, -0.061, 92095
-0.021, -0.135, 0.993, -0.305, 92112
-0.019, -0.135, 0.994, 0.000, 92141
-0.023, -0.133, 0.996, -0.244, 92157
-0.020, -0.131, 0.995, -0.061, 92174
-0.022, -0.130, 0.994, -0.183, 92202
-0.019, -0.131, 1.001, -0.305, 92219
-0.022, -0.135, 0.996, -0.122, 92236
-0.023, -0.135, 0.997, -0.122, 92266
-0.021, -0.136, 0.998, -0.244, 92282
-0.020, -0.135, 0.996, -0.244, 92311
-0.023, -0.134, 0.999, -0.061, 92330
-0.020, -0.132, 0.998, -0.122, 92348
-0.019, -0.132, 0.996, -0.366, 92378
-0.025, -0.133, 0.999, -0.244, 92395
-0.022, -0.135, 0.997, -0.122, 92412
-0.018, -0.135, 0.997, -0.183, 92439
-0.022, -0.129, 0.996, -0.305, 92456
-0.019, -0.132, 0.998, -0.061, 92470
-0.021, -0.134, 0.997, -0.305, 92498
-0.020, -0.134, 0.996, -0.061, 92514
-0.021, -0.135, 0.997, -0.183, 92531
-0.024, -0.133, 0.996, 0.000, 92560
-0.023, -0.132, 0.999, -0.183, 92577
-0.019, -0.133, 0.999, -0.061, 92595
-0.023, -0.133, 0.995, -0.244, 92621
-0.020, -0.135, 0.998, -0.122, 92638
-0.020, -0.133, 0.998, -0.183, 92654
-0.021, -0.130, 0.997, -0.305, 92681
-0.020, -0.128, 0.992, -0.244, 92697
-0.021, -0.133, 0.993, -0.061, 92713
-0.020, -0.131, 0.998, -0.183, 92740
-0.021, -0.133, 0.995, -0.244, 92757
-0.020, -0.134, 0.995, -0.244, 92773
-0.024, -0.134, 0.993, -0.122, 92803
-0.019, -0.131, 0.996, -0.244, 92820
-0.019, -0.132, 1.000, -0.183, 92836
-0.023, -0.136, 0.995, -0.061, 92866
-0.021, -0.132, 0.994, -0.122, 92882
-0.020, -0.133, 0.995, -0.183, 92912
-0.015, -0.135, 0.996, -0.183, 92926
-0.021, -0.132, 0.998, -0.244, 92942
-0.019, -0.132, 0.995, -0.183, 92956
-0.020, -0.135, 0.992, 0.061, 92985
-0.019, -0.129, 0.995, -0.183, 93001
-0.022, -0.134, 0.997, -0.183, 93028
-0.021, -0.134, 0.996, -0.061, 93044
-0.025, -0.132, 0.997, -0.244, 93060
-0.021, -0.134, 0.999, -0.122, 93075
-0.023, -0.132, 0.996, -0.122, 93104
-0.021, -0.134, 0.996, -0.061, 93121
-0.020, -0.134, 0.995, -0.122, 93136
-0.024, -0.132, 0.994, -0.244, 93164
-0.025, -0.135, 0.997, 0.122, 93181
-0.021, -0.136, 0.997, -0.183, 93195
-0.022, -0.133, 0.996, 0.000, 93223
-0.019, -0.133, 0.996, -0.244, 93240
-0.022, -0.133, 0.990, -0.061, 93255
-0.021, -0.132, 0.995, 0.000, 93285
-0.023, -0.133, 0.998, -0.183, 93302
-0.021, -0.132, 0.997, -0.122, 93328
-0.024, -0.133, 0.996, -0.183, 93345
-0.021, -0.133, 0.994, -0.183, 93362
-0.018, -0.133, 0.993, -0.305, 93391
-0.020, -0.135, 0.995, -0.183, 93409
-0.021, -0.133, 0.995, -0.061, 93427
-0.021, -0.133, 0.995, -0.183, 93454
-0.025, -0.134, 0.997, 0.000, 93471
-0.019, -0.135, 0.996, -0.244, 93488
-0.021, -0.133, 1.000, 0.000, 93514
-0.020, -0.133, 0.993, -0.183, 93532
-0.018, -0.135, 0.997, -0.061, 93547
-0.021, -0.135, 0.997, -0.061, 93575
-0.019, -0.134, 0.995, -0.305, 93593
-0.021, -0.134, 0.995, -0.183, 93609
-0.022, -0.134, 0.994, -0.244, 93636
-0.022, -0.135, 0.997, -0.305, 93652
-0.020, -0.133, 0.997, 0.000, 93668
-0.018, -0.132, 0.995, -0.122, 93695
-0.021, -0.133, 0.996, -0.366, 93711
-0.023, -0.131, 0.998, -0.366, 93726
-0.018, -0.132, 0.994, -0.122, 93754
-0.020, -0.132, 0.993, -0.366, 93769
-0.021, -0.132, 0.994, -0.122, 93784
-0.024, -0.135, 0.999, -0.122, 93814
-0.021, -0.134, 0.994, -0.061, 93831
-0.019, -0.133, 0.997, -0.183, 93849
-0.022, -0.132, 0.998, -0.183, 93874
-0.022, -0.131, 0.995, -0.122, 93892
-0.019, -0.131, 0.998, -0.122, 93908
-0.024, -0.133, 0.991, -0.061, 93938
-0.022, -0.134, 0.997, -0.305, 93955
-0.018, -0.133, 0.997, 0.000, 93970
-0.022, -0.136, 0.996, -0.122, 93997
-0.021, -0.136, 0.996, -0.183, 94013
-0.021, -0.133, 0.991, -0.122, 94030
-0.021, -0.134, 0.996, -0.122, 94058
-0.018, -0.133, 0.997, -0.183, 94075
-0.017, -0.134, 0.997, -0.305, 94092
-0.019, -0.133, 0.998, -0.244, 94120
-0.023, -0.135, 0.996, -0.305, 94137
-0.019, -0.133, 0.999, -0.183, 94154
-0.022, -0.133, 0.997, -0.122, 94179
-0.020, -0.132, 0.995, -0.183, 94197
-0.018, -0.132, 0.996, -0.061, 94212
-0.024, -0.134, 0.996, -0.244, 94239
-0.018, -0.134, 0.999, -0.305, 94256
-0.021, -0.134, 0.996, -0.183, 94274
-0.022, -0.130, 0.995, -0.122, 94302
-0.021, -0.131, 0.999, -0.183, 94319
-0.019, -0.131, 0.995, -0.183, 94336
-0.019, -0.134, 0.996, -0.061, 94364
-0.021, -0.131, 0.996, -0.061, 94380
-0.018, -0.134, 0.999, -0.244, 94395
-0.023, -0.134, 0.996, -0.244, 94423
-0.022, -0.133, 0.998, -0.122, 94440
-0.023, -0.136, 0.994, -0.183, 94455
-0.017, -0.133, 0.995, -0.427, 94485
-0.019, -0.133, 0.994, 0.061, 94501
-0.024, -0.135, 0.996, -0.305, 94516
-0.020, -0.132, 0.994, -0.122, 94547
-0.021, -0.135, 0.996, -0.305, 94564
-0.021, -0.132, 0.999, -0.305, 94591
-0.021, -0.128, 0.993, -0.122, 94607
-0.021, -0.136, 0.994, -0.183, 94623
-0.023, -0.134, 0.993, -0.244, 94652
-0.021, -0.135, 0.996, -0.244, 94669
-0.018, -0.134, 0.996, -0.305, 94685
-0.020, -0.135, 0.996, -0.305, 94713
-0.018, -0.135, 0.995, -0.061, 94729
-0.022, -0.133, 0.998, -0.244, 94746
-0.021, -0.135, 0.996, -0.244, 94772
-0.021, -0.130, 0.996, -0.122, 94790
-0.022, -0.130, 0.995, -0.122, 94807
-0.018, -0.133, 0.994, -0.122, 94836
-0.019, -0.134, 0.997, -0.183, 94854
-0.022, -0.137, 0.995, -0.183, 94870
-0.022, -0.132, 0.998, -0.305, 94898
-0.022, -0.130, 0.996, -0.122, 94914
-0.021, -0.131, 0.995, -0.305, 94930
-0.023, -0.135, 0.994, -0.122, 94959
-0.021, -0.136, 0.998, -0.305, 94976
-0.023, -0.134, 0.995, -0.183, 94992
-0.019, -0.135, 0.994, -0.122, 95019
-0.021, -0.133, 0.997, -0.183, 95035
-0.023, -0.131, 0.991, -0.244, 95050
-0.018, -0.133, 0.996, -0.122, 95080
-0.020, -0.134, 0.995, -0.183, 95096
-0.019, -0.133, 0.994, -0.305, 95113
-0.022, -0.130, 0.997, 0.061, 95143
-0.023, -0.134, 0.996, -0.183, 95158
-0.024, -0.132, 0.994, -0.183, 95174
-0.022, -0.136, 0.996, -0.183, 95202
-0.020, -0.137, 0.994, -0.366, 95218
-0.023, -0.135, 0.997, -0.122, 95233
-0.021, -0.135, 0.997, -0.122, 95265
-0.023, -0.134, 0.996, -0.427, 95281
-0.020, -0.136, 0.997, -0.244, 95308
-0.021, -0.135, 0.996, -0.061, 95324
-0.020, -0.133, 0.994, -0.183, 95339
-0.021, -0.132, 0.994, -0.183, 95369
-0.024, -0.132, 0.995, -0.122, 95386
-0.021, -0.134, 0.997, -0.061, 95401
-0.021, -0.134, 0.996, -0.183, 95427
-0.020, -0.131, 0.996, -0.183, 95443
-0.024, -0.135, 0.995, -0.244, 95458
-0.023, -0.133, 0.995, -0.122, 95473
-0.021, -0.136, 0.996, -0.061, 95502
-0.024, -0.133, 0.997, -0.305, 95518
-0.020, -0.133, 0.997, -0.061, 95534
-0.022, -0.135, 0.997, -0.122, 95564
-0.021, -0.133, 0.997, -0.122, 95580
-0.019, -0.131, 0.998, 0.000, 95610
-0.023, -0.137, 0.997, -0.122, 95628
-0.022, -0.134, 0.998, -0.183, 95645
-0.017, -0.135, 0.993, -0.122, 95673
-0.023, -0.135, 0.997, -0.244, 95689
-0.021, -0.133, 0.998, -0.244, 95706
-0.019, -0.134, 0.995, -0.122, 95732
-0.023, -0.135, 0.999, 0.000, 95750
-0.022, -0.136, 0.996, -0.305, 95766
-0.021, -0.133, 0.992, -0.305, 95796
-0.022, -0.136, 0.996, -0.305, 95812
-0.024, -0.135, 0.996, -0.122, 95828
-0.021, -0.134, 0.995, -0.244, 95858
-0.018, -0.133, 0.997, -0.183, 95874
-0.022, -0.132, 0.999, -0.183, 95892
-0.020, -0.135, 0.996, -0.305, 95921
-0.019, -0.134, 0.997, -0.244, 95936
-0.021, -0.133, 0.993, -0.244, 95954
-0.019, -0.135, 0.995, -0.061, 95981
-0.022, -0.134, 0.996, -0.244, 95997
-0.019, -0.132, 0.999, -0.305, 96014
-0.023, -0.133, 0.993, -0.305, 96046
-0.020, -0.133, 0.995, -0.061, 96061
-0.018, -0.133, 0.995, -0.244, 96091
-0.019, -0.131, 0.994, 0.000, 96107
-0.018, -0.134, 0.994, -0.183, 96122
-0.024, -0.131, 0.997, -0.122, 96149
-0.020, -0.135, 0.994, -0.183, 96165
-0.020, -0.132, 0.997, -0.183, 96181
-0.024, -0.133, 0.992, -0.366, 96209
-0.023, -0.134, 0.997, -0.183, 96227
-0.022, -0.132, 0.997, -0.183, 96242
-0.018, -0.135, 0.995, -0.061, 96270
-0.020, -0.131, 0.994, -0.061, 96285
-0.021, -0.131, 0.995, -0.061, 96301
-0.022, -0.133, 0.994, -0.366, 96329
-0.021, -0.133, 0.994, -0.244, 96346
-0.020, -0.132, 0.995, -0.122, 96362
-0.023, -0.134, 0.999, -0.244, 96389
-0.018, -0.131, 0.998, -0.244, 96405
-0.018, -0.135, 1.000, -0.061, 96423
-0.022, -0.132, 0.998, -0.061, 96452
-0.018, -0.132, 0.992, 0.000, 96468
-0.015, -0.136, 0.997, -0.244, 96485
-0.023, -0.132, 0.998, -0.122, 96512
-0.024, -0.131, 0.995, -0.183, 96530
-0.024, -0.134, 0.993, -0.061, 96549
-0.020, -0.135, 0.998, -0.122, 96579
-0.021, -0.133, 0.994, -0.244, 96595
-0.023, -0.132, 0.997, -0.305, 96610
-0.022, -0.134, 0.997, 0.000, 96638
-0.022, -0.134, 0.996, -0.244, 96655
-0.020, -0.137, 0.995, -0.183, 96671
-0.019, -0.131, 0.995, 0.061, 96699
-0.023, -0.135, 0.997, -0.183, 96716
-0.021, -0.132, 0.992, -0.244, 96732
-0.024, -0.136, 0.993, -0.061, 96761
-0.022, -0.136, 0.997, -0.305, 96778
-0.020, -0.137, 0.998, -0.183, 96794
-0.025, -0.133, 0.996, -0.122, 96823
-0.019, -0.132, 0.999, 0.000, 96839
-0.018, -0.132, 0.992, -0.244, 96855
-0.020, -0.133, 0.998, -0.061, 96882
-0.024, -0.134, 0.996, -0.244, 96899
-0.021, -0.134, 0.995, -0.183, 96915
-0.021, -0.136, 0.995, -0.122, 96944
-0.020, -0.130, 0.998, -0.244, 96959
-0.019, -0.131, 0.994, -0.244, 96974
-0.019, -0.135, 0.998, -0.244, 97001
-0.017, -0.134, 0.994, -0.305, 97016
-0.023, -0.135, 0.993, 0.061, 97033
-0.022, -0.132, 0.994, -0.122, 97063
-0.018, -0.134, 0.998, 0.000, 97080
-0.021, -0.133, 0.996, -0.244, 97094
-0.021, -0.132, 0.994, -0.244, 97125
-0.023, -0.134, 0.994, -0.183, 97142
-0.021, -0.132, 0.995, -0.366, 97173
-0.021, -0.132, 0.994, -0.244, 97190
-0.023, -0.132, 0.997, -0.122, 97207
-0.020, -0.135, 0.993, -0.244, 97236
-0.023, -0.132, 0.996, -0.061, 97253
-0.023, -0.132, 0.996, 0.000, 97270
-0.022, -0.133, 0.995, -0.061, 97298
-0.021, -0.134, 0.992, -0.122, 97315
-0.020, -0.136, 0.997, 0.061, 97331
-0.021, -0.134, 0.999, -0.305, 97360
-0.022, -0.136, 0.996, -0.061, 97378
-0.021, -0.132, 0.997, -0.122, 97393
-0.021, -0.132, 0.994, -0.305, 97421
-0.022, -0.135, 0.999, -0.305, 97437
-0.020, -0.134, 0.994, -0.305, 97453
-0.023, -0.132, 1.001, -0.122, 97483
-0.018, -0.135, 0.998, -0.305, 97501
-0.019, -0.135, 0.996, -0.183, 97529
-0.021, -0.133, 0.997, -0.122, 97546
-0.021, -0.130, 0.996, -0.244, 97562
-0.021, -0.133, 0.992, -0.183, 97589
-0.023, -0.133, 0.999, -0.244, 97606
-0.018, -0.134, 0.995, -0.183, 97623
-0.019, -0.132, 0.995, -0.244, 97649
-0.022, -0.134, 0.996, -0.183, 97664
-0.019, -0.134, 0.996, -0.183, 97680
-0.015, -0.134, 0.998, -0.183, 97708
-0.021, -0.133, 0.997, -0.061, 97727
-0.018, -0.132, 0.996, -0.305, 97742
-0.021, -0.134, 0.996, -0.305, 97771
-0.025, -0.133, 0.992, -0.122, 97788
-0.021, -0.133, 0.994, -0.122, 97803
-0.021, -0.135, 0.999, -0.183, 97831
-0.026, -0.135, 0.997, -0.061, 97848
-0.025, -0.137, 0.995, -0.061, 97863
-0.021, -0.133, 0.996, -0.305, 97890
-0.022, -0.133, 0.997, -0.122, 97908
-0.021, -0.133, 0.995, -0.183, 97924
-0.020, -0.136, 0.998, -0.122, 97950
-0.026, -0.132, 0.995, -0.305, 97965
-0.020, -0.131, 0.996, -0.305, 97982
-0.025, -0.134, 0.997, -0.183, 98009
-0.024, -0.135, 0.998, 0.000, 98026
-0.022, -0.135, 0.995, -0.366, 98044
-0.019, -0.133, 0.997, -0.183, 98073
-0.020, -0.135, 0.997, -0.183, 98088
-0.017, -0.130, 0.997, -0.061, 98105
-0.023, -0.133, 0.995, -0.244, 98133
-0.023, -0.135, 0.995, -0.122, 98149
-0.022, -0.132, 0.993, -0.183, 98165
-0.024, -0.135, 0.993, -0.427, 98193
-0.021, -0.130, 0.998, -0.122, 98209
-0.025, -0.135, 0.999, -0.183, 98227
-0.020, -0.134, 0.995, -0.305, 98255
-0.021, -0.134, 0.994, -0.427, 98272
-0.023, -0.133, 0.999, -0.061, 98288
-0.022, -0.135, 0.997, -0.183, 98316
-0.020, -0.135, 0.994, -0.183, 98333
-0.021, -0.133, 0.995, -0.122, 98349
-0.023, -0.132, 0.996, -0.305, 98374
-0.022, -0.133, 0.998, -0.183, 98390
-0.024, -0.134, 0.995, 0.000, 98407
-0.019, -0.134, 0.998, -0.183, 98439
-0.024, -0.135, 0.995, -0.183, 98455
-0.025, -0.135, 0.995, -0.305, 98472
-0.020, -0.133, 0.996, -0.061, 98503
-0.021, -0.136, 0.993, -0.244, 98519
-0.026, -0.132, 1.000, -0.305, 98533
-0.017, -0.136, 0.995, -0.183, 98561
-0.023, -0.134, 0.997, -0.061, 98578
-0.019, -0.134, 0.999, -0.488, 98594
-0.021, -0.133, 0.997, -0.122, 98623
-0.024, -0.133, 0.993, -0.061, 98641
-0.025, -0.133, 0.994, 0.000, 98668
-0.023, -0.135, 0.999, -0.122, 98684
-0.021, -0.132, 0.995, -0.183, 98701
-0.018, -0.135, 0.996, -0.061, 98730
-0.019, -0.132, 0.997, -0.183, 98747
-0.022, -0.133, 0.996, -0.305, 98764
-0.023, -0.133, 0.993, -0.122, 98792
-0.022, -0.133, 0.995, -0.305, 98808
-0.018, -0.131, 0.993, -0.183, 98824
-0.022, -0.131, 0.998, -0.061, 98852
-0.020, -0.133, 0.992, -0.183, 98869
-0.020, -0.134, 0.997, -0.183, 98886
-0.021, -0.133, 0.997, -0.366, 98914
-0.024, -0.132, 0.995, 0.000, 98931
-0.022, -0.132, 0.996, -0.122, 98948
-0.023, -0.135, 0.996, -0.183, 98982
-0.018, -0.132, 0.997, 0.000, 98998
-0.018, -0.134, 0.999, -0.122, 99013
-0.021, -0.136, 0.996, 0.000, 99043
-0.020, -0.134, 0.997, -0.366, 99061
-0.021, -0.132, 0.998, -0.122, 99091
-0.017, -0.130, 0.995, -0.061, 99110
-0.019, -0.132, 0.996, -0.305, 99127
-0.019, -0.133, 0.998, -0.122, 99153
-0.022, -0.135, 0.994, 0.000, 99170
-0.023, -0.133, 0.995, -0.122, 99187
-0.017, -0.134, 0.995, -0.244, 99213
-0.023, -0.132, 0.996, -0.244, 99232
-0.020, -0.135, 0.996, -0.183, 99249
-0.019, -0.135, 0.992, -0.122, 99276
-0.022, -0.133, 0.994, -0.122, 99293
-0.022, -0.133, 0.996, -0.183, 99308
-0.019, -0.133, 0.999, -0.061, 99337
-0.019, -0.133, 0.995, -0.244, 99353
-0.021, -0.137, 0.996, -0.061, 99368
-0.025, -0.132, 0.997, -0.183, 99398
-0.023, -0.134, 0.996, -0.061, 99415
-0.021, -0.131, 0.995, -0.183, 99431
-0.023, -0.134, 0.995, -0.244, 99459
-0.019, -0.135, 0.999, -0.122, 99475
-0.022, -0.134, 0.995, -0.183, 99491
-0.023, -0.133, 0.999, -0.122, 99522
-0.023, -0.134, 0.995, -0.122, 99539
-0.022, -0.133, 0.996, -0.244, 99566
-0.017, -0.134, 0.997, -0.122, 99583
-0.021, -0.133, 0.994, -0.244, 99600
-0.021, -0.131, 0.992, -0.122, 99628
-0.019, -0.136, 0.997, -0.183, 99646
-0.021, -0.132, 0.996, 0.000, 99662
-0.022, -0.133, 0.996, -0.183, 99689
-0.020, -0.134, 0.995, 0.000, 99706
-0.021, -0.133, 0.997, -0.427, 99723
-0.020, -0.136, 0.999, -0.183, 99751
-0.023, -0.135, 0.992, 0.000, 99766
-0.021, -0.133, 0.994, -0.183, 99783
-0.020, -0.132, 0.999, -0.122, 99808
-0.021, -0.135, 0.994, -0.366, 99825
-0.018, -0.135, 0.995, 0.000, 99841
-0.022, -0.133, 0.992, 0.000, 99867
-0.020, -0.132, 0.996, -0.122, 99884
-0.019, -0.135, 0.997, -0.183, 99900
-0.024, -0.135, 0.994, -0.183, 99929
-0.019, -0.134, 0.997, -0.183, 99946
-0.021, -0.133, 0.995, -0.183, 99963
-0.023, -0.133, 0.996, -0.244, 99992
-0.021, -0.132, 0.996, -0.122, 100009
-0.024, -0.136, 1.000, -0.183, 100026
-0.019, -0.135, 0.997, -0.305, 100053
-0.025, -0.135, 0.997, -0.061, 100071
-0.020, -0.134, 0.994, -0.183, 100088
-0.022, -0.135, 0.996, -0.244, 100115
-0.021, -0.133, 0.995, -0.061, 100131
-0.023, -0.134, 0.995, 0.061, 100147
-0.023, -0.134, 0.998, -0.305, 100172
-0.022, -0.133, 0.995, -0.244, 100189
-0.023, -0.134, 1.003, -0.061, 100205
-0.023, -0.133, 0.998, -0.122, 100231
-0.022, -0.133, 0.999, 0.000, 100247
-0.022, -0.136, 0.993, -0.244, 100264
-0.021, -0.134, 0.998, -0.244, 100292
-0.016, -0.133, 0.998, -0.305, 100308
-0.019, -0.132, 0.992, -0.183, 100326
-0.017, -0.135, 0.993, -0.183, 100354
-0.023, -0.134, 0.996, -0.244, 100370
-0.023, -0.132, 0.995, -0.061, 100387
-0.021, -0.134, 0.994, -0.305, 100414
-0.017, -0.133, 0.999, -0.244, 100431
-0.021, -0.132, 0.996, -0.183, 100446
-0.024, -0.132, 0.997, 0.000, 100475
-0.019, -0.134, 0.994, -0.183, 100492
-0.019, -0.134, 0.995, -0.061, 100509
-0.021, -0.131, 0.994, -0.122, 100535
-0.021, -0.133, 0.995, -0.183, 100554
-0.025, -0.135, 1.001, -0.183, 100570
-0.025, -0.134, 0.997, -0.244, 100600
-0.020, -0.133, 0.997, 0.000, 100617
-0.021, -0.131, 0.993, -0.183, 100633
-0.023, -0.132, 0.994, -0.122, 100665
-0.025, -0.131, 0.995, -0.122, 100681
-0.021, -0.131, 0.998, -0.305, 100709
-0.018, -0.131, 0.995, 0.000, 100727
-0.019, -0.133, 0.995, -0.183, 100743
-0.018, -0.132, 0.997, -0.305, 100770
-0.021, -0.132, 0.998, -0.122, 100787
-0.024, -0.137, 0.998, -0.366, 100803
-0.021, -0.132, 0.994, -0.244, 100830
-0.021, -0.133, 0.998, -0.244, 100849
-0.021, -0.132, 0.994, -0.244, 100866
-0.025, -0.134, 1.000, -0.061, 100894
-0.020, -0.135, 0.995, -0.061, 100911
-0.021, -0.133, 0.993, -0.122, 100928
-0.016, -0.132, 1.002, -0.183, 100958
-0.022, -0.135, 0.994, -0.183, 100975
-0.021, -0.133, 0.994, -0.244, 100990
-0.016, -0.135, 0.994, -0.244, 101017
-0.020, -0.136, 0.995, -0.122, 101033
-0.021, -0.132, 0.998, 0.000, 101050
-0.022, -0.135, 0.995, -0.061, 101077
-0.025, -0.135, 0.999, -0.122, 101094
-0.020, -0.132, 0.995, -0.183, 101109
-0.021, -0.130, 0.993, -0.122, 101137
-0.020, -0.134, 0.996, -0.244, 101155
-0.018, -0.137, 0.998, -0.305, 101171
-0.020, -0.134, 0.997, -0.305, 101200
-0.021, -0.133, 0.995, -0.183, 101217
-0.022, -0.135, 0.992, 0.122, 101233
-0.021, -0.132, 0.997, -0.183, 101262
-0.020, -0.130, 0.994, -0.122, 101280
-0.019, -0.135, 0.995, -0.122, 101307
-0.019, -0.135, 0.994, -0.183, 101326
-0.018, -0.132, 0.996, -0.122, 101343
-0.021, -0.133, 0.993, -0.061, 101370
-0.020, -0.133, 0.993, 0.000, 101386
-0.022, -0.130, 0.993, -0.061, 101402
-0.022, -0.134, 0.994, -0.244, 101430
-0.016, -0.132, 0.998, -0.061, 101449
-0.018, -0.133, 0.999, -0.305, 101465
-0.023, -0.134, 0.993, -0.366, 101491
-0.024, -0.136, 0.997, -0.183, 101509
-0.021, -0.136, 0.998, -0.122, 101526
-0.019, -0.132, 0.998, 0.000, 101554
-0.019, -0.132, 0.993, -0.061, 101571
-0.019, -0.133, 0.997, -0.061, 101588
-0.020, -0.136, 0.997, -0.183, 101618
-0.025, -0.135, 0.998, -0.244, 101634
-0.021, -0.132, 0.993, -0.305, 101651
-0.023, -0.132, 0.998, -0.122, 101679
-0.022, -0.130, 0.995, -0.244, 101698
-0.022, -0.135, 0.995, -0.305, 101714
-0.019, -0.135, 0.998, -0.183, 101745
-0.020, -0.137, 0.998, -0.061, 101762
-0.018, -0.131, 0.996, -0.122, 101789
-0.026, -0.132, 0.997, -0.122, 101806
-0.020, -0.129, 0.997, -0.183, 101823
-0.021, -0.132, 0.997, 0.000, 101849
-0.021, -0.134, 0.996, 0.061, 101867
-0.021, -0.131, 0.997, -0.244, 101883
-0.019, -0.133, 0.997, -0.061, 101910
-0.018, -0.131, 0.995, -0.244, 101927
-0.018, -0.133, 0.999, -0.122, 101942
-0.018, -0.134, 0.994, -0.122, 101971
-0.022, -0.134, 0.999, -0.427, 101987
-0.020, -0.131, 1.000, -0.122, 102004
-0.023, -0.132, 0.996, -0.061, 102031
-0.020, -0.132, 0.996, -0.122, 102049
-0.022, -0.133, 0.993, -0.183, 102065
-0.017, -0.134, 0.995, -0.244, 102093
-0.025, -0.135, 0.996, -0.244, 102111
-0.017, -0.132, 0.993, -0.183, 102127
-0.022, -0.131, 0.996, -0.305, 102155
-0.020, -0.134, 0.997, -0.183, 102171
-0.017, -0.128, 0.994, -0.244, 102186
-0.020, -0.130, 0.995, -0.061, 102216
-0.026, -0.132, 0.999, -0.061, 102234
-0.018, -0.136, 0.996, -0.183, 102252
-0.027, -0.135, 0.996, -0.122, 102280
-0.021, -0.133, 0.998, -0.122, 102295
-0.024, -0.134, 0.997, -0.183, 102312
-0.024, -0.134, 0.996, -0.305, 102341
-0.018, -0.135, 0.994, -0.183, 102359
-0.022, -0.133, 0.996, -0.122, 102387
-0.019, -0.134, 0.998, -0.244, 102403
-0.021, -0.131, 0.999, -0.122, 102420
-0.020, -0.132, 0.997, -0.061, 102446
-0.021, -0.129, 0.992, -0.122, 102462
-0.019, -0.135, 0.994, -0.122, 102479
-0.021, -0.132, 0.997, -0.122, 102494
-0.021, -0.135, 0.996, -0.244, 102524
-0.019, -0.132, 0.995, -0.183, 102542
-0.021, -0.136, 0.994, -0.122, 102570
-0.020, -0.132, 0.994, -0.244, 102587
-0.021, -0.134, 0.996, -0.183, 102604
-0.020, -0.133, 0.996, -0.183, 102630
-0.019, -0.133, 0.996, -0.183, 102647
-0.025, -0.134, 0.997, -0.122, 102664
-0.024, -0.133, 0.991, -0.244, 102690
-0.022, -0.136, 0.995, -0.122, 102707
-0.020, -0.132, 0.994, -0.305, 102724
-0.025, -0.132, 0.996, -0.427, 102749
-0.020, -0.135, 0.998, -0.244, 102767
-0.022, -0.129, 0.994, -0.244, 102784
-0.022, -0.130, 0.994, -0.061, 102811
-0.021, -0.130, 0.995, 0.000, 102828
-0.022, -0.131, 0.997, -0.183, 102845
-0.020, -0.132, 0.997, -0.122, 102871
-0.020, -0.132, 0.992, -0.061, 102889
-0.021, -0.131, 0.995, -0.305, 102905
-0.019, -0.131, 0.993, -0.122, 102932
-0.022, -0.135, 0.998, -0.183, 102951
-0.023, -0.135, 0.997, -0.305, 102966
-0.022, -0.136, 0.994, -0.061, 102993
-0.022, -0.131, 0.993, -0.122, 103010
-0.022, -0.132, 0.999, -0.183, 103027
-0.017, -0.134, 0.998, -0.183, 103055
-0.018, -0.133, 0.998, -0.122, 103071
-0.021, -0.131, 0.993, -0.183, 103088
-0.022, -0.134, 0.997, -0.244, 103117
-0.021, -0.131, 0.995, -0.122, 103134
-0.021, -0.133, 0.995, -0.061, 103151
-0.024, -0.131, 0.998, -0.244, 103181
-0.021, -0.135, 0.993, -0.183, 103198
-0.018, -0.137, 0.996, -0.183, 103215
-0.018, -0.133, 0.997, -0.122, 103245
-0.022, -0.134, 0.995, -0.122, 103262
-0.022, -0.135, 0.996, -0.122, 103289
-0.021, -0.130, 0.997, -0.366, 103305
-0.021, -0.132, 0.998, -0.244, 103321
-0.020, -0.129, 0.994, -0.305, 103351
-0.023, -0.132, 0.996, -0.305, 103368
-0.019, -0.133, 0.997, -0.183, 103385
-0.018, -0.134, 0.996, -0.122, 103410
-0.020, -0.134, 0.998, -0.183, 103428
-0.021, -0.136, 0.996, -0.305, 103444
-0.019, -0.133, 0.995, -0.122, 103470
-0.019, -0.135, 0.995, -0.183, 103486
-0.020, -0.133, 0.996, -0.427, 103502
-0.025, -0.135, 1.000, -0.183, 103532
-0.020, -0.129, 0.995, -0.305, 103550
-0.020, -0.137, 0.997, -0.183, 103567
-0.022, -0.133, 0.995, -0.183, 103595
-0.020, -0.133, 0.996, -0.244, 103612
-0.020, -0.133, 0.994, 0.000, 103629
-0.020, -0.133, 0.999, -0.244, 103656
-0.021, -0.138, 1.001, -0.122, 103673
-0.019, -0.133, 0.991, -0.122, 103689
-0.022, -0.137, 0.990, -0.244, 103718
-0.021, -0.135, 1.000, -0.183, 103733
-0.017, -0.134, 0.995, 0.000, 103750
-0.020, -0.133, 0.999, -0.061, 103779
-0.019, -0.128, 0.994, -0.183, 103796
-0.020, -0.131, 0.992, -0.244, 103812
-0.018, -0.130, 0.995, -0.122, 103840
-0.017, -0.136, 0.996, -0.244, 103857
-0.021, -0.131, 0.991, 0.000, 103872
-0.022, -0.134, 1.000, -0.183, 103900
-0.021, -0.133, 0.993, 0.000, 103917
-0.021, -0.133, 0.993, -0.366, 103933
-0.015, -0.133, 0.997, -0.122, 103961
-0.018, -0.131, 0.996, -0.122, 103978
-0.022, -0.137, 0.998, -0.427, 103993
-0.022, -0.135, 0.999, -0.122, 104021
-0.022, -0.135, 0.999, -0.183, 104037