Acc_X,Acc_Y,Acc_Z,Rot_Z,Millis
0.076,0.764,-0.629,-0.122,9662
0.073,0.763,-0.619,0.122,9666
0.076,0.761,-0.63,-0.244,9670
0.075,0.762,-0.629,-0.549,9674
0.076,0.762,-0.629,-0.427,9678
0.079,0.761,-0.623,-0.61,9682
0.073,0.761,-0.627,-0.549,9686
0.077,0.761,-0.627,-0.366,9690
0.072,0.765,-0.628,0.0,9694
0.078,0.76,-0.625,-0.122,9698
0.071,0.765,-0.626,0.061,9702
0.075,0.762,-0.627,0.183,9706
0.078,0.757,-0.627,0.122,9710
0.075,0.761,-0.627,0.0,9715
0.077,0.761,-0.627,-0.305,9718
0.078,0.764,-0.636,0.122,9722
0.075,0.761,-0.631,-0.244,9726
0.077,0.761,-0.628,-0.366,9731
0.071,0.761,-0.631,-0.305,9734
0.072,0.765,-0.626,-0.61,9738
0.074,0.764,-0.632,-0.305,9742
0.074,0.761,-0.628,0.183,9746
0.076,0.763,-0.63,0.122,9750
0.078,0.761,-0.627,0.366,9754
0.078,0.758,-0.63,0.183,9758
0.079,0.759,-0.63,-0.061,9763
0.076,0.759,-0.63,-0.488,9766
0.075,0.76,-0.627,-0.977,9770
0.078,0.765,-0.621,-0.549,9774
0.076,0.762,-0.628,-0.61,9778
0.075,0.764,-0.625,-0.244,9782
0.079,0.762,-0.625,-0.183,9786
0.079,0.762,-0.627,-0.122,9790
0.075,0.757,-0.63,0.244,9795
0.076,0.763,-0.628,-0.122,9799
0.08,0.761,-0.625,-0.244,9803
0.078,0.758,-0.628,-0.122,9807
0.077,0.761,-0.631,-0.427,9810
0.076,0.763,-0.636,-0.061,9815
0.079,0.761,-0.627,-0.183,9819
0.073,0.765,-0.622,-0.305,9823
0.073,0.757,-0.629,-0.122,9827
0.078,0.762,-0.632,-0.183,9831
0.077,0.762,-0.632,-0.305,9834
0.076,0.762,-0.627,-0.671,9838
0.077,0.766,-0.63,-0.732,9842
0.077,0.767,-0.624,-0.305,9846
0.078,0.766,-0.627,-0.183,9850
0.077,0.76,-0.629,-0.488,9854
0.075,0.766,-0.626,-0.244,9859
0.079,0.766,-0.624,-0.122,9862
0.081,0.76,-0.631,0.305,9866
0.079,0.768,-0.628,0.061,9870
0.081,0.76,-0.63,-0.366,9874
0.078,0.762,-0.63,-0.244,9878
0.077,0.762,-0.625,-0.061,9882
0.075,0.761,-0.628,-0.244,9886
0.075,0.764,-0.627,-0.183,9890
0.077,0.763,-0.632,0.061,9894
0.073,0.766,-0.625,0.0,9898
0.079,0.76,-0.629,-0.122,9902
0.076,0.763,-0.63,-0.061,9906
0.08,0.764,-0.631,-0.061,9910
0.078,0.763,-0.629,-0.183,9914
0.075,0.761,-0.634,-0.122,9918
0.075,0.76,-0.626,-0.488,9923
0.075,0.756,-0.628,-0.366,9927
0.075,0.766,-0.626,-0.183,9931
0.076,0.763,-0.626,-0.183,9935
0.074,0.763,-0.628,-0.244,9939
0.075,0.762,-0.632,-0.244,9943
0.076,0.759,-0.622,-0.061,9946
0.074,0.758,-0.627,-0.671,9950
0.075,0.761,-0.632,-0.549,9954
0.073,0.759,-0.623,0.0,9958
0.076,0.764,-0.628,-0.61,9962
0.078,0.767,-0.629,-0.183,9967
0.076,0.764,-0.626,0.061,9971
0.077,0.76,-0.629,-0.244,9975
0.079,0.761,-0.628,-0.183,9978
0.079,0.763,-0.629,-0.366,9983
0.08,0.764,-0.626,-0.366,9986
0.078,0.767,-0.628,-0.244,9991
0.075,0.763,-0.629,-0.61,9994
0.074,0.761,-0.623,-0.671,9998
0.079,0.762,-0.623,-0.122,10003
0.079,0.764,-0.625,0.122,10006
0.075,0.762,-0.629,0.061,10010
0.073,0.762,-0.634,0.244,10014
0.075,0.759,-0.628,0.61,10019
0.075,0.767,-0.631,0.0,10023
0.078,0.759,-0.629,0.061,10027
0.078,0.764,-0.631,-0.122,10031
0.076,0.76,-0.627,-0.488,10034
0.076,0.762,-0.632,-0.488,10038
0.073,0.761,-0.629,-0.671,10042
0.077,0.763,-0.623,-0.671,10046
0.076,0.761,-0.625,-0.366,10050
0.08,0.763,-0.631,-0.854,10054
0.072,0.76,-0.633,-0.427,10059
0.08,0.764,-0.627,-0.183,10062
0.076,0.762,-0.625,-0.122,10066
0.076,0.762,-0.629,-0.244,10071
0.073,0.766,-0.626,0.122,10074
0.074,0.76,-0.626,-0.366,10079
0.079,0.761,-0.629,-0.061,10082
0.077,0.759,-0.626,-0.488,10086
0.082,0.762,-0.627,-0.183,10090
0.073,0.764,-0.633,-0.305,10094
0.08,0.763,-0.624,-0.366,10098
0.08,0.762,-0.627,0.061,10102
0.076,0.763,-0.632,-0.305,10106
0.076,0.763,-0.629,-0.183,10110
0.077,0.764,-0.625,-0.122,10114
0.075,0.762,-0.63,-0.061,10118
0.084,0.764,-0.631,-0.061,10122
0.077,0.763,-0.629,-0.061,10126
0.079,0.761,-0.626,0.0,10130
0.074,0.765,-0.627,-0.549,10134
0.076,0.766,-0.626,-0.488,10138
0.075,0.761,-0.633,-0.61,10142
0.075,0.763,-0.625,-0.122,10146
0.077,0.765,-0.627,-0.244,10150
0.077,0.764,-0.629,-0.366,10154
0.072,0.762,-0.627,-0.427,10158
0.078,0.762,-0.624,-0.244,10162
0.075,0.761,-0.629,-0.183,10166
0.073,0.764,-0.625,-0.183,10170
0.078,0.763,-0.63,0.122,10174
0.074,0.761,-0.624,0.0,10178
0.075,0.764,-0.631,0.183,10182
0.077,0.76,-0.626,-0.061,10186
0.074,0.764,-0.625,-0.183,10190
0.075,0.764,-0.63,-0.244,10194
0.074,0.764,-0.631,-0.427,10199
0.074,0.761,-0.633,-0.427,10203
0.076,0.766,-0.634,-0.671,10207
0.076,0.76,-0.628,0.061,10210
0.076,0.768,-0.632,-0.061,10215
0.075,0.763,-0.63,0.122,10218
0.076,0.759,-0.627,0.244,10222
0.078,0.764,-0.633,0.366,10227
0.076,0.764,-0.63,0.244,10230
0.077,0.762,-0.632,-0.122,10234
0.078,0.762,-0.624,-0.488,10238
0.077,0.761,-0.624,-0.366,10242
0.075,0.764,-0.63,-0.671,10246
0.075,0.761,-0.628,-0.916,10250
0.073,0.765,-0.623,-0.427,10254
0.077,0.765,-0.625,-0.183,10258
0.076,0.762,-0.628,-0.183,10262
0.076,0.763,-0.627,0.183,10266
0.078,0.76,-0.628,0.244,10270
0.074,0.763,-0.623,0.366,10274
0.078,0.761,-0.633,0.122,10278
0.077,0.765,-0.627,0.061,10282
0.082,0.764,-0.628,-0.244,10287
0.077,0.764,-0.629,-0.671,10290
0.074,0.763,-0.625,0.183,10294
0.077,0.767,-0.627,-0.427,10298
0.077,0.762,-0.627,-0.488,10302
0.075,0.762,-0.625,-0.305,10306
0.074,0.766,-0.629,-0.244,10310
0.075,0.76,-0.629,-0.183,10315
0.073,0.76,-0.627,0.244,10319
0.077,0.766,-0.633,-0.183,10322
0.074,0.761,-0.629,-0.488,10326
0.076,0.764,-0.625,-0.427,10330
0.077,0.764,-0.625,-0.061,10334
0.074,0.76,-0.629,-0.61,10338
0.076,0.763,-0.627,-0.549,10342
0.077,0.76,-0.629,-0.793,10346
0.078,0.76,-0.63,-0.366,10350
0.076,0.761,-0.626,-0.183,10354
0.075,0.763,-0.625,-0.183,10358
0.076,0.762,-0.628,-0.183,10362
0.076,0.76,-0.627,0.122,10366
0.074,0.764,-0.625,0.305,10370
0.078,0.763,-0.625,0.061,10375
0.08,0.767,-0.625,0.0,10378
0.078,0.762,-0.627,-0.122,10382
0.077,0.762,-0.626,-0.366,10387
0.076,0.767,-0.627,-0.305,10391
0.079,0.763,-0.631,-0.305,10395
0.073,0.764,-0.627,-0.183,10398
0.079,0.763,-0.628,-0.244,10402
0.076,0.764,-0.634,0.305,10407
0.08,0.764,-0.629,-0.366,10411
0.078,0.765,-0.627,-0.305,10415
0.075,0.759,-0.633,-0.061,10419
0.079,0.762,-0.63,0.183,10423
0.075,0.766,-0.629,-0.732,10427
0.076,0.761,-0.632,-0.244,10431
0.073,0.765,-0.629,-0.427,10435
0.074,0.761,-0.625,-0.183,10439
0.08,0.76,-0.625,-0.183,10443
0.078,0.767,-0.63,0.122,10447
0.079,0.765,-0.627,-0.183,10451
0.077,0.762,-0.63,0.0,10455
0.072,0.762,-0.632,-0.122,10459
0.077,0.761,-0.625,-0.244,10463
0.077,0.762,-0.627,-0.366,10467
0.077,0.762,-0.626,-0.305,10471
0.076,0.763,-0.63,-0.427,10475
0.076,0.759,-0.628,-0.061,10479
0.077,0.763,-0.625,0.0,10483
0.076,0.759,-0.628,-0.183,10487
0.078,0.76,-0.628,0.122,10491
0.078,0.76,-0.623,-0.122,10495
0.073,0.765,-0.629,-0.244,10498
0.078,0.764,-0.629,-0.305,10502
0.073,0.758,-0.631,-0.793,10507
0.073,0.763,-0.627,0.366,10511
0.077,0.765,-0.623,-0.305,10515
0.078,0.763,-0.627,-0.122,10519
0.077,0.767,-0.63,-0.244,10522
0.077,0.762,-0.63,-0.244,10527
0.076,0.767,-0.633,-0.427,10530
0.08,0.769,-0.628,-0.427,10534
0.075,0.763,-0.624,-0.61,10538
0.076,0.766,-0.628,-0.305,10542
0.073,0.766,-0.627,-0.122,10546
0.073,0.762,-0.634,0.061,10550
0.075,0.764,-0.622,0.427,10554
0.075,0.761,-0.628,0.732,10558
0.076,0.762,-0.625,0.61,10563
0.076,0.764,-0.631,0.427,10567
0.078,0.761,-0.631,-0.122,10571
0.074,0.761,-0.633,-0.366,10574
0.078,0.763,-0.624,-0.427,10579
0.073,0.767,-0.628,-0.916,10582
0.07,0.762,-0.625,-0.366,10586
0.071,0.765,-0.627,-0.061,10590
0.074,0.76,-0.628,0.244,10594
0.077,0.761,-0.629,0.549,10598
0.08,0.763,-0.629,-0.061,10602
0.076,0.764,-0.631,0.183,10606
0.077,0.763,-0.627,-0.305,10610
0.079,0.761,-0.627,-0.061,10615
0.078,0.765,-0.628,-0.488,10618
0.079,0.765,-0.626,-0.366,10622
0.077,0.763,-0.63,-0.305,10626
0.078,0.764,-0.629,0.0,10630
0.081,0.764,-0.626,-0.549,10634
0.078,0.761,-0.63,-0.671,10638
0.077,0.762,-0.626,-0.793,10642
0.075,0.763,-0.624,-0.183,10646
0.075,0.76,-0.623,-0.244,10650
0.075,0.762,-0.624,-0.122,10654
0.075,0.757,-0.63,0.244,10658
0.077,0.761,-0.629,0.183,10662
0.072,0.759,-0.632,0.549,10666
0.079,0.758,-0.628,0.488,10670
0.079,0.76,-0.626,0.061,10674
0.077,0.758,-0.632,0.0,10678
0.075,0.762,-0.626,-0.732,10682
0.077,0.766,-0.629,-0.916,10686
0.074,0.758,-0.629,-1.099,10690
0.074,0.765,-0.629,-0.549,10694
0.076,0.762,-0.625,-0.427,10698
0.074,0.761,-0.625,0.061,10702
0.076,0.764,-0.629,0.061,10706
0.078,0.763,-0.634,0.061,10710
0.085,0.761,-0.634,0.0,10714
0.076,0.762,-0.623,-0.305,10718
0.078,0.766,-0.623,-0.61,10722
0.076,0.765,-0.627,-0.488,10726
0.079,0.766,-0.627,-0.549,10730
0.078,0.762,-0.625,-0.488,10734
0.076,0.768,-0.626,-0.488,10738
0.073,0.766,-0.626,-0.427,10742
0.077,0.764,-0.628,-0.305,10746
0.072,0.765,-0.633,0.0,10750
0.076,0.765,-0.628,0.244,10754
0.075,0.762,-0.628,0.427,10758
0.077,0.767,-0.633,0.0,10762
0.076,0.763,-0.63,0.305,10766
0.074,0.759,-0.63,0.427,10770
0.076,0.76,-0.626,0.305,10774
0.074,0.762,-0.624,0.183,10778
0.076,0.763,-0.628,-0.122,10782
0.074,0.764,-0.632,-0.61,10786
0.077,0.764,-0.629,-0.61,10790
0.076,0.759,-0.628,-0.793,10794
0.078,0.763,-0.631,-0.549,10798
0.073,0.762,-0.63,-0.427,10802
0.076,0.76,-0.626,-0.488,10806
0.079,0.765,-0.624,-0.183,10811
0.079,0.764,-0.626,-0.061,10815
0.074,0.762,-0.626,0.183,10819
0.076,0.766,-0.629,-0.183,10823
0.081,0.764,-0.627,-0.549,10826
0.077,0.765,-0.63,-0.732,10830
0.074,0.761,-0.626,-0.305,10834
0.073,0.764,-0.622,-0.244,10838
0.074,0.765,-0.629,0.0,10842
0.076,0.762,-0.632,-0.122,10846
0.07,0.763,-0.631,0.0,10850
0.075,0.759,-0.625,-0.061,10855
0.075,0.757,-0.628,0.305,10858
0.076,0.761,-0.63,0.122,10863
0.076,0.761,-0.633,-0.244,10866
0.074,0.762,-0.632,-0.183,10870
0.075,0.764,-0.631,-0.122,10875
0.075,0.766,-0.63,-0.061,10878
0.072,0.759,-0.63,-0.061,10882
0.077,0.762,-0.625,-0.427,10886
0.078,0.762,-0.626,-0.122,10890
0.077,0.757,-0.625,-0.488,10895
0.078,0.762,-0.624,-0.61,10898
0.079,0.761,-0.629,-0.793,10902
0.079,0.764,-0.631,-0.854,10906
0.079,0.768,-0.63,-0.61,10910
0.075,0.768,-0.627,-0.488,10914
0.078,0.761,-0.625,-0.061,10918
0.075,0.764,-0.626,-0.244,10922
0.08,0.765,-0.622,0.0,10927
0.072,0.761,-0.626,0.122,10931
0.077,0.761,-0.627,0.244,10934
0.073,0.764,-0.63,0.122,10939
0.074,0.762,-0.629,-0.61,10943
0.073,0.763,-0.629,-0.427,10947
0.075,0.761,-0.627,-0.244,10950
0.075,0.762,-0.629,-0.183,10955
0.077,0.766,-0.629,0.244,10959
0.07,0.768,-0.631,-0.061,10963
0.078,0.761,-0.628,-0.122,10967
0.077,0.762,-0.631,0.0,10971
0.075,0.762,-0.63,-0.427,10975
0.074,0.76,-0.628,-0.366,10979
0.077,0.764,-0.629,-0.549,10983
0.073,0.762,-0.627,-0.488,10987
0.074,0.761,-0.628,-0.366,10990
0.076,0.763,-0.625,-0.061,10994
0.081,0.76,-0.623,-0.305,10998
0.078,0.761,-0.624,-0.122,11002
0.077,0.763,-0.623,-0.061,11007
0.078,0.766,-0.623,-0.366,11011
0.078,0.769,-0.629,-0.305,11015
0.081,0.767,-0.627,-0.427,11018
0.074,0.764,-0.623,-0.488,11023
0.07,0.768,-0.628,-0.366,11026
0.073,0.767,-0.627,-0.183,11031
0.075,0.765,-0.631,0.122,11034
0.074,0.761,-0.627,-0.122,11039
0.074,0.764,-0.631,0.427,11042
0.074,0.761,-0.628,0.671,11046
0.078,0.757,-0.628,0.244,11050
0.073,0.764,-0.63,-0.427,11054
0.076,0.757,-0.632,-0.488,11058
0.074,0.759,-0.628,-0.305,11063
0.073,0.757,-0.627,-0.671,11067
0.078,0.763,-0.629,-0.916,11071
0.074,0.76,-0.626,-0.427,11074
0.077,0.761,-0.631,-0.427,11078
0.079,0.762,-0.625,-0.061,11082
0.077,0.756,-0.629,-0.671,11086
0.082,0.758,-0.626,-0.427,11090
0.079,0.76,-0.626,-0.549,11095
0.079,0.766,-0.624,-0.671,11098
0.077,0.761,-0.627,-0.366,11102
0.084,0.764,-0.625,0.183,11106
0.076,0.759,-0.624,-0.183,11110
0.078,0.763,-0.625,0.305,11114
0.076,0.768,-0.627,0.244,11118
0.075,0.766,-0.629,-0.122,11123
0.075,0.766,-0.632,-0.183,11126
0.078,0.761,-0.632,-0.122,11130
0.076,0.764,-0.629,-0.366,11134
0.071,0.765,-0.629,-0.061,11138
0.073,0.765,-0.633,-0.305,11142
0.075,0.764,-0.634,-0.061,11146
0.073,0.765,-0.628,0.061,11151
0.077,0.766,-0.629,0.061,11154
0.071,0.761,-0.631,0.122,11158
0.074,0.76,-0.631,0.183,11162
0.076,0.76,-0.63,0.244,11166
0.079,0.765,-0.628,-0.549,11170
0.074,0.762,-0.632,-0.305,11174
0.079,0.759,-0.623,-0.671,11179
0.077,0.757,-0.62,-0.427,11182
0.079,0.761,-0.624,-0.61,11187
0.078,0.76,-0.623,-0.854,11190
0.08,0.763,-0.627,-0.732,11195
0.077,0.763,-0.625,-0.305,11198
0.078,0.762,-0.624,-0.671,11202
0.074,0.763,-0.624,-0.427,11206
0.072,0.759,-0.623,0.061,11210
0.073,0.762,-0.625,0.244,11214
0.077,0.765,-0.627,0.549,11218
0.074,0.764,-0.627,0.244,11222
0.076,0.767,-0.634,-0.061,11227
0.074,0.761,-0.628,-0.122,11230
0.071,0.76,-0.624,-0.305,11234
0.073,0.765,-0.631,-0.305,11239
0.07,0.765,-0.623,-0.671,11243
0.071,0.765,-0.632,0.0,11247
0.072,0.762,-0.632,-0.183,11251
0.073,0.76,-0.628,0.183,11255
0.075,0.764,-0.627,0.0,11259
0.076,0.76,-0.628,-0.366,11262
0.075,0.762,-0.626,-0.061,11267
0.079,0.763,-0.629,-0.244,11270
0.077,0.76,-0.627,-0.793,11275
0.082,0.761,-0.627,-1.099,11278
0.079,0.765,-0.632,-1.343,11283
0.08,0.761,-0.625,-0.366,11287
0.078,0.756,-0.618,-0.671,11291
0.082,0.763,-0.618,-0.183,11295
0.078,0.764,-0.621,-0.122,11299
0.081,0.763,-0.621,0.183,11303
0.082,0.765,-0.622,0.305,11307
0.078,0.761,-0.625,0.427,11310
0.075,0.767,-0.628,-0.183,11315
0.078,0.766,-0.628,0.122,11318
0.072,0.765,-0.627,-0.061,11322
0.076,0.762,-0.631,-0.061,11326
0.068,0.762,-0.627,-0.122,11330
0.071,0.765,-0.63,-0.427,11334
0.073,0.761,-0.632,0.244,11338
0.073,0.764,-0.632,-0.244,11342
0.077,0.766,-0.635,-0.061,11346
0.071,0.762,-0.633,-0.427,11350
0.075,0.764,-0.636,0.061,11354
0.08,0.76,-0.628,-0.122,11358
0.077,0.764,-0.626,-0.488,11362
0.079,0.762,-0.626,-0.549,11366
0.078,0.764,-0.628,-0.793,11370
0.082,0.764,-0.635,-0.488,11374
0.08,0.763,-0.624,-1.16,11378
0.078,0.763,-0.623,-0.732,11382
0.079,0.76,-0.622,-0.916,11386
0.08,0.763,-0.625,-0.488,11390
0.077,0.763,-0.621,-0.244,11394
0.078,0.765,-0.622,0.0,11398
0.08,0.761,-0.622,0.0,11402
0.08,0.764,-0.624,0.549,11406
0.077,0.764,-0.629,0.427,11410
0.076,0.762,-0.628,0.427,11414
0.076,0.764,-0.63,0.122,11419
0.074,0.763,-0.633,0.549,11422
0.076,0.766,-0.634,-0.183,11426
0.075,0.766,-0.633,0.061,11431
0.072,0.763,-0.634,0.061,11435
0.071,0.764,-0.635,0.0,11439
0.068,0.763,-0.631,-0.244,11443
0.076,0.763,-0.634,-0.061,11446
0.076,0.765,-0.627,-0.061,11451
0.076,0.762,-0.63,-0.183,11455
0.073,0.763,-0.63,-0.61,11459
0.075,0.76,-0.629,-0.61,11462
0.079,0.76,-0.626,-0.671,11466
0.076,0.763,-0.625,-0.977,11470
0.079,0.767,-0.622,-1.16,11475
0.082,0.761,-0.625,-0.671,11479
0.079,0.762,-0.625,-0.671,11483
0.081,0.764,-0.621,-0.427,11487
0.078,0.764,-0.625,-0.305,11490
0.08,0.761,-0.629,0.305,11494
0.078,0.766,-0.627,0.61,11498
0.074,0.765,-0.624,0.61,11502
0.078,0.763,-0.628,0.61,11506
0.076,0.757,-0.628,0.671,11510
0.075,0.764,-0.632,0.305,11515
0.077,0.769,-0.629,0.183,11518
0.074,0.763,-0.633,-0.366,11523
0.067,0.769,-0.626,-0.305,11527
0.073,0.764,-0.629,-0.488,11531
0.072,0.765,-0.629,-0.305,11535
0.072,0.767,-0.631,-0.244,11538
0.074,0.766,-0.629,-0.122,11542
0.077,0.762,-0.632,-0.305,11546
0.074,0.766,-0.63,-0.122,11550
0.08,0.762,-0.631,-0.366,11554
0.076,0.76,-0.626,-0.427,11559
0.077,0.762,-0.626,-0.427,11563
0.076,0.762,-0.63,-0.793,11567
0.082,0.763,-0.625,-0.854,11571
0.075,0.759,-0.62,-0.61,11575
0.083,0.762,-0.623,-0.549,11579
0.084,0.763,-0.625,-0.488,11583
0.078,0.763,-0.626,-0.732,11586
0.08,0.76,-0.624,-0.244,11590
0.075,0.768,-0.622,0.0,11594
0.077,0.764,-0.629,0.061,11598
0.074,0.763,-0.626,0.549,11602
0.075,0.766,-0.621,0.732,11606
0.073,0.761,-0.626,0.366,11611
0.075,0.766,-0.633,0.61,11614
0.073,0.763,-0.632,0.427,11618
0.074,0.762,-0.629,0.305,11622
0.073,0.763,-0.63,-0.122,11626
0.074,0.761,-0.635,-0.732,11631
0.073,0.764,-0.636,-0.427,11635
0.072,0.763,-0.635,-0.427,11638
0.073,0.76,-0.63,-0.61,11642
0.077,0.763,-0.63,-0.732,11646
0.074,0.757,-0.629,-0.305,11650
0.076,0.762,-0.622,-0.244,11654
0.076,0.763,-0.628,-0.366,11658
0.076,0.765,-0.626,-0.366,11663
0.08,0.76,-0.628,-0.427,11667
0.082,0.762,-0.625,-0.854,11671
0.076,0.765,-0.627,-0.549,11675
0.082,0.763,-0.624,-0.61,11679
0.078,0.764,-0.624,-0.305,11683
0.08,0.766,-0.623,-0.488,11687
0.078,0.763,-0.625,0.427,11691
0.081,0.763,-0.625,0.061,11695
0.076,0.765,-0.626,0.366,11699
0.076,0.763,-0.629,0.122,11703
0.079,0.764,-0.629,0.61,11707
0.077,0.763,-0.63,0.366,11711
0.077,0.764,-0.629,0.0,11714
0.072,0.767,-0.628,-0.183,11718
0.074,0.762,-0.629,0.0,11723
0.073,0.764,-0.632,-0.122,11726
0.076,0.76,-0.63,-0.549,11731
0.078,0.761,-0.628,-0.366,11735
0.073,0.763,-0.634,-0.427,11739
0.073,0.766,-0.628,-0.61,11743
0.073,0.762,-0.63,-0.793,11747
0.073,0.759,-0.625,-0.427,11751
0.077,0.764,-0.63,-0.488,11754
0.077,0.764,-0.63,-0.183,11758
0.08,0.759,-0.621,-0.305,11763
0.083,0.759,-0.63,-0.305,11767
0.082,0.761,-0.627,-0.183,11771
0.077,0.76,-0.625,-0.305,11775
0.078,0.76,-0.624,-0.427,11778
0.076,0.761,-0.623,-0.427,11782
0.078,0.762,-0.625,-0.122,11787
0.079,0.759,-0.627,0.122,11791
0.077,0.766,-0.627,0.122,11795
0.073,0.761,-0.631,0.427,11798
0.079,0.764,-0.63,0.366,11803
0.078,0.762,-0.63,0.488,11806
0.073,0.762,-0.629,0.061,11811
0.073,0.766,-0.627,0.061,11814
0.073,0.752,-0.627,-0.122,11818
0.073,0.757,-0.625,0.061,11822
0.079,0.774,-0.635,-0.366,11826
0.078,0.77,-0.633,-0.61,11830
0.074,0.756,-0.632,-0.61,11834
0.079,0.744,-0.624,-0.854,11839
0.079,0.767,-0.627,-0.916,11842
0.079,0.781,-0.627,-1.77,11846
0.071,0.766,-0.634,-1.465,11850
0.072,0.753,-0.628,-0.061,11854
0.076,0.76,-0.616,1.16,11858
0.079,0.772,-0.621,0.305,11862
0.073,0.766,-0.628,-0.488,11867
0.072,0.757,-0.633,0.549,11870
0.078,0.758,-0.62,2.014,11875
0.083,0.763,-0.616,0.244,11879
0.077,0.764,-0.632,-0.854,11883
0.076,0.76,-0.634,-1.038,11887
0.075,0.756,-0.628,0.183,11891
0.076,0.764,-0.622,-0.793,11895
0.075,0.76,-0.626,-1.221,11899
0.072,0.763,-0.64,-0.061,11903
0.072,0.756,-0.631,1.16,11906
0.075,0.76,-0.628,1.282,11910
0.081,0.76,-0.624,0.305,11915
0.08,0.766,-0.631,-0.671,11919
0.071,0.765,-0.635,-0.427,11923
0.077,0.76,-0.627,0.61,11927
0.08,0.76,-0.623,-0.122,11931
0.076,0.764,-0.626,-0.977,11934
0.069,0.767,-0.628,-1.343,11938
0.069,0.763,-0.629,-0.549,11943
0.075,0.767,-0.628,-0.366,11947
0.076,0.765,-0.621,-0.916,11951
0.078,0.764,-0.63,-0.61,11955
0.074,0.765,-0.626,-0.122,11959
0.078,0.764,-0.625,0.244,11963
0.076,0.758,-0.627,0.305,11967
0.08,0.761,-0.625,-0.183,11971
0.08,0.763,-0.627,0.244,11975
0.08,0.766,-0.623,1.221,11979
0.081,0.762,-0.621,0.671,11983
0.078,0.759,-0.627,-0.366,11987
0.074,0.764,-0.628,-0.427,11991
0.074,0.762,-0.63,-0.244,11995
0.077,0.758,-0.629,-0.305,11998
0.081,0.764,-0.626,-0.732,12003
0.076,0.763,-0.631,-0.732,12007
0.07,0.763,-0.632,-0.366,12011
0.074,0.759,-0.632,0.122,12015
0.075,0.764,-0.63,0.244,12018
0.074,0.763,-0.626,-0.183,12023
0.077,0.761,-0.629,0.0,12027
0.074,0.764,-0.631,0.122,12031
0.077,0.761,-0.632,-0.366,12035
0.075,0.768,-0.623,-0.732,12038
0.074,0.766,-0.629,-1.282,12042
0.074,0.762,-0.628,-0.732,12046
0.074,0.761,-0.625,-0.977,12050
0.075,0.763,-0.626,-0.427,12054
0.076,0.763,-0.626,-0.305,12059
0.076,0.762,-0.63,-0.183,12063
0.081,0.763,-0.622,0.549,12067
0.076,0.765,-0.627,0.183,12071
0.076,0.761,-0.628,0.0,12074
0.08,0.765,-0.629,0.366,12079
0.079,0.762,-0.631,0.122,12082
0.076,0.763,-0.627,0.305,12086
0.08,0.762,-0.629,-0.122,12090
0.078,0.764,-0.623,-0.244,12094
0.074,0.761,-0.631,-0.366,12098
0.073,0.761,-0.624,-0.549,12102
0.075,0.763,-0.627,-0.549,12106
0.078,0.763,-0.629,-0.793,12110
0.071,0.764,-0.629,-0.488,12115
0.07,0.768,-0.631,-0.244,12118
0.078,0.763,-0.632,0.0,12122
0.07,0.764,-0.631,0.0,12126
0.075,0.762,-0.627,0.061,12131
0.074,0.762,-0.629,0.183,12134
0.075,0.759,-0.628,0.061,12138
0.078,0.76,-0.623,-0.183,12142
0.075,0.76,-0.627,-0.549,12146
0.077,0.76,-0.628,-0.854,12150
0.075,0.761,-0.632,-0.61,12154
0.075,0.762,-0.627,-0.244,12158
0.077,0.758,-0.628,-0.183,12162
0.079,0.761,-0.627,0.183,12167
0.077,0.76,-0.63,0.427,12171
0.078,0.76,-0.626,0.122,12175
0.078,0.765,-0.629,-0.061,12179
0.081,0.762,-0.624,-0.183,12182
0.08,0.762,-0.626,-0.427,12186
0.076,0.763,-0.629,-0.366,12190
0.08,0.761,-0.625,-0.488,12194
0.077,0.767,-0.627,-0.366,12199
0.079,0.763,-0.629,-0.427,12202
0.079,0.762,-0.625,-0.488,12207
0.076,0.76,-0.625,-0.549,12210
0.075,0.764,-0.625,-0.427,12214
0.072,0.76,-0.626,-0.183,12218
0.074,0.764,-0.628,0.122,12222
0.075,0.76,-0.63,-0.061,12226
0.078,0.764,-0.631,-0.183,12230
0.077,0.766,-0.631,0.366,12235
0.071,0.763,-0.629,0.366,12238
0.076,0.764,-0.631,-0.061,12242
0.075,0.764,-0.633,0.0,12246
0.069,0.76,-0.627,-0.061,12250
0.076,0.768,-0.63,-0.488,12255
0.074,0.765,-0.628,-0.671,12258
0.072,0.762,-0.628,-0.244,12262
0.077,0.76,-0.629,-0.244,12266
0.077,0.763,-0.625,-0.427,12270
0.077,0.758,-0.629,0.0,12275
0.079,0.762,-0.623,0.0,12278
0.074,0.762,-0.633,0.183,12283
0.078,0.757,-0.623,0.061,12286
0.075,0.763,-0.624,-0.244,12290
0.073,0.766,-0.622,-0.305,12294
0.081,0.762,-0.624,-0.366,12298
0.076,0.764,-0.624,-0.427,12302
0.073,0.757,-0.625,-0.366,12306
0.075,0.761,-0.625,-0.549,12311
0.073,0.761,-0.625,0.061,12314
0.077,0.763,-0.628,-0.122,12318
0.078,0.764,-0.627,0.061,12322
0.074,0.768,-0.628,-0.427,12326
0.071,0.764,-0.632,-0.061,12330
0.072,0.762,-0.631,0.183,12334
0.076,0.762,-0.63,0.183,12338
0.07,0.766,-0.626,-0.122,12342
0.077,0.769,-0.632,0.0,12346
0.077,0.759,-0.63,-0.366,12350
0.073,0.76,-0.627,-0.122,12354
0.074,0.762,-0.626,-0.366,12358
0.076,0.77,-0.627,-0.61,12363
0.073,0.766,-0.63,-0.488,12366
0.076,0.764,-0.629,-0.244,12370
0.074,0.758,-0.626,-0.122,12374
0.08,0.763,-0.625,-0.549,12379
0.075,0.761,-0.627,-0.488,12382
0.077,0.758,-0.629,-0.061,12387
0.077,0.76,-0.627,0.183,12391
0.079,0.761,-0.626,0.61,12394
0.079,0.761,-0.625,0.244,12398
0.079,0.762,-0.629,0.183,12402
0.079,0.765,-0.63,-0.244,12406
0.076,0.765,-0.623,-0.366,12410
0.079,0.762,-0.629,-0.61,12415
0.075,0.763,-0.629,-1.038,12418
0.077,0.76,-0.627,-0.427,12422
0.078,0.762,-0.627,-0.305,12426
0.074,0.766,-0.625,-0.549,12431
0.078,0.762,-0.629,-0.122,12435
0.075,0.765,-0.632,-0.305,12439
0.076,0.765,-0.627,0.671,12443
0.076,0.767,-0.625,0.122,12447
0.078,0.761,-0.623,0.0,12450
0.076,0.763,-0.629,-0.305,12454
0.072,0.761,-0.63,-0.427,12458
0.072,0.767,-0.631,-0.671,12462
0.076,0.764,-0.63,-0.854,12466
0.074,0.767,-0.624,-0.549,12471
0.077,0.761,-0.63,-0.427,12475
0.072,0.765,-0.629,0.061,12478
0.077,0.763,-0.628,0.061,12483
0.078,0.761,-0.629,0.061,12487
0.075,0.765,-0.632,0.305,12491
0.076,0.763,-0.629,0.183,12494
0.08,0.762,-0.628,-0.061,12499
0.077,0.761,-0.627,0.244,12503
0.079,0.758,-0.631,-0.061,12507
0.075,0.758,-0.632,-0.183,12510
0.079,0.759,-0.627,-0.183,12515
0.074,0.765,-0.626,-0.122,12519
0.078,0.761,-0.625,-0.549,12523
0.08,0.762,-0.625,-0.549,12527
0.077,0.761,-0.629,-0.61,12531
0.08,0.764,-0.627,-0.549,12535
0.077,0.762,-0.624,-0.854,12538
0.073,0.76,-0.623,-0.427,12542
0.074,0.761,-0.624,0.0,12546
0.079,0.763,-0.625,0.366,12550
0.076,0.764,-0.629,0.122,12555
0.078,0.763,-0.631,0.061,12559
0.079,0.763,-0.628,0.183,12563
0.075,0.76,-0.623,-0.122,12567
0.075,0.763,-0.626,-0.427,12571
0.072,0.765,-0.63,-0.549,12575
0.073,0.76,-0.633,-0.671,12579
0.076,0.76,-0.632,-0.244,12582
0.073,0.762,-0.629,-0.183,12586
0.076,0.759,-0.629,0.366,12590
0.073,0.762,-0.631,0.549,12594
0.076,0.761,-0.629,0.427,12598
0.077,0.765,-0.627,0.183,12602
0.077,0.764,-0.63,-0.488,12607
0.077,0.763,-0.629,-0.793,12610
0.079,0.766,-0.628,-0.793,12615
0.077,0.761,-0.627,-1.099,12618
0.077,0.76,-0.624,-0.854,12622
0.075,0.763,-0.627,-0.549,12626
0.073,0.767,-0.629,-0.427,12631
0.077,0.765,-0.628,0.488,12635
0.074,0.763,-0.629,0.366,12639
0.077,0.765,-0.631,0.244,12643
0.076,0.763,-0.632,-0.061,12647
0.076,0.763,-0.627,0.0,12651
0.073,0.764,-0.625,-0.122,12654
0.074,0.765,-0.628,-0.122,12658
0.075,0.759,-0.627,0.0,12662
0.073,0.766,-0.626,-0.183,12666
0.076,0.76,-0.629,0.061,12670
0.072,0.761,-0.632,-0.122,12674
0.073,0.765,-0.629,-0.061,12678
0.079,0.761,-0.628,-0.061,12682
0.075,0.76,-0.629,-0.61,12686
0.079,0.761,-0.625,-0.366,12690
0.076,0.763,-0.623,-0.488,12694
0.078,0.765,-0.635,-0.427,12698
0.076,0.762,-0.628,-0.244,12702
0.079,0.767,-0.627,-0.061,12706
0.079,0.76,-0.626,-0.244,12710
0.077,0.76,-0.624,0.061,12714
0.077,0.759,-0.629,-0.122,12718
0.076,0.765,-0.625,-0.427,12722
0.073,0.763,-0.631,-0.122,12726
0.076,0.761,-0.625,0.061,12730
0.076,0.762,-0.626,0.061,12734
0.074,0.766,-0.624,-0.122,12738
0.078,0.765,-0.625,0.061,12742
0.074,0.761,-0.629,0.366,12746
0.077,0.766,-0.628,0.183,12750
0.081,0.761,-0.624,0.061,12754
0.076,0.76,-0.629,-0.366,12758
0.079,0.765,-0.63,-0.488,12762
0.075,0.764,-0.631,-0.488,12767
0.076,0.761,-0.63,-0.427,12770
0.074,0.761,-0.626,-0.549,12774
0.077,0.765,-0.63,-0.122,12778
0.078,0.76,-0.63,0.244,12782
0.08,0.761,-0.628,0.244,12787
0.082,0.761,-0.623,0.488,12791
0.078,0.76,-0.63,0.183,12794
0.078,0.763,-0.625,-0.244,12798
0.079,0.761,-0.626,-0.488,12802
0.075,0.762,-0.625,-0.854,12806
0.077,0.762,-0.623,-0.488,12810
0.073,0.764,-0.625,-0.61,12814
0.075,0.762,-0.629,-0.427,12818
0.073,0.759,-0.624,-0.244,12822
0.077,0.759,-0.624,-0.061,12826
0.076,0.763,-0.631,0.366,12830
0.077,0.762,-0.628,0.488,12834
0.081,0.765,-0.634,0.366,12838
0.079,0.764,-0.628,0.183,12842
0.078,0.762,-0.631,0.122,12846
0.075,0.762,-0.629,-0.305,12851
0.073,0.768,-0.629,-0.427,12855
0.079,0.76,-0.63,-0.366,12859
0.076,0.764,-0.626,-0.244,12863
0.074,0.767,-0.631,-0.244,12867
0.076,0.769,-0.634,-0.244,12871
0.073,0.765,-0.63,-0.61,12875
0.074,0.771,-0.625,-0.549,12878
0.077,0.763,-0.625,-0.305,12883
0.074,0.765,-0.627,-0.122,12887
0.073,0.767,-0.627,-0.244,12891
0.076,0.769,-0.628,-0.244,12895
0.082,0.763,-0.626,-0.183,12899
0.078,0.768,-0.626,0.183,12903
0.079,0.763,-0.623,0.122,12907
0.072,0.763,-0.628,0.549,12911
0.073,0.761,-0.626,0.427,12915
0.075,0.762,-0.626,0.488,12919
0.079,0.759,-0.629,0.488,12923
0.078,0.758,-0.628,-0.061,12927
0.078,0.763,-0.628,-0.366,12931
0.077,0.762,-0.625,-0.244,12935
0.078,0.757,-0.627,-0.549,12939
0.077,0.756,-0.629,-0.61,12943
0.079,0.763,-0.635,-0.793,12947
0.076,0.76,-0.629,-0.549,12951
0.077,0.765,-0.629,-0.305,12955
0.077,0.764,-0.625,-0.122,12959
0.075,0.76,-0.626,0.183,12963
0.077,0.762,-0.627,-0.305,12967
0.077,0.762,-0.628,-0.183,12971
0.075,0.762,-0.627,-0.244,12975
0.078,0.771,-0.63,-0.366,12979
0.077,0.764,-0.629,-0.61,12983
0.077,0.766,-0.627,-0.61,12987
0.076,0.767,-0.631,-0.305,12991
0.072,0.766,-0.626,-0.183,12995
0.07,0.765,-0.628,0.0,12999
0.073,0.759,-0.627,0.244,13003
0.071,0.764,-0.629,0.305,13007
0.071,0.761,-0.626,0.366,13010
0.073,0.76,-0.63,0.366,13015
0.075,0.76,-0.63,0.305,13019
0.079,0.761,-0.63,-0.244,13023
0.077,0.76,-0.63,-0.122,13027
0.078,0.759,-0.628,-0.488,13031
0.075,0.765,-0.627,-0.732,13035
0.077,0.761,-0.628,-0.732,13039
0.074,0.758,-0.624,-0.61,13043
0.078,0.755,-0.621,-0.793,13046
0.079,0.758,-0.623,-0.488,13051
0.076,0.763,-0.625,-0.244,13054
0.077,0.768,-0.626,-0.061,13058
0.08,0.774,-0.63,-0.183,13063
0.084,0.774,-0.63,-0.61,13067
0.077,0.763,-0.628,-1.099,13071
0.078,0.765,-0.631,-1.221,13075
0.074,0.762,-0.633,-1.343,13078
0.065,0.768,-0.631,-0.61,13083
0.069,0.769,-0.632,0.427,13086
0.064,0.762,-0.628,1.709,13090
0.068,0.763,-0.623,2.502,13094
0.072,0.761,-0.629,2.38,13098
0.073,0.759,-0.626,1.709,13102
0.077,0.762,-0.629,0.671,13106
0.076,0.756,-0.634,-0.183,13111
0.08,0.757,-0.623,-1.648,13114
0.077,0.755,-0.632,-2.197,13118
0.077,0.761,-0.631,-2.319,13122
0.074,0.763,-0.629,-1.709,13126
0.077,0.754,-0.628,-0.61,13130
0.083,0.76,-0.623,0.366,13134
0.085,0.761,-0.628,0.916,13138
0.088,0.759,-0.627,1.221,13142
0.092,0.758,-0.623,1.099,13146
0.093,0.759,-0.623,-0.122,13150
0.091,0.765,-0.622,-1.404,13154
0.081,0.762,-0.626,-2.441,13158
0.079,0.762,-0.624,-2.502,13162
0.072,0.768,-0.624,-1.465,13167
0.067,0.774,-0.621,-0.793,13170
0.067,0.774,-0.625,0.671,13174
0.07,0.766,-0.628,1.77,13179
0.073,0.767,-0.627,2.075,13182
0.076,0.764,-0.635,1.526,13187
0.073,0.766,-0.639,0.732,13190
0.071,0.759,-0.635,0.0,13194
0.068,0.758,-0.642,-0.244,13198
0.072,0.762,-0.636,-0.488,13203
0.065,0.763,-0.629,-0.244,13206
0.07,0.76,-0.632,0.061,13211
0.075,0.756,-0.632,0.183,13215
0.074,0.76,-0.628,0.366,13219
0.079,0.757,-0.626,-0.244,13222
0.08,0.757,-0.63,-1.099,13226
0.08,0.753,-0.625,-1.77,13231
0.084,0.759,-0.62,-2.014,13235
0.084,0.764,-0.617,-1.648,13239
0.079,0.76,-0.622,-1.221,13243
0.079,0.761,-0.62,-0.427,13246
0.08,0.764,-0.617,0.427,13251
0.084,0.764,-0.616,0.854,13254
0.088,0.763,-0.62,0.793,13258
0.081,0.764,-0.626,0.0,13263
0.083,0.764,-0.629,-0.488,13266
0.075,0.767,-0.626,-0.732,13270
0.074,0.77,-0.632,-0.732,13274
0.065,0.766,-0.632,0.0,13279
0.065,0.766,-0.628,0.732,13283
0.066,0.766,-0.633,1.648,13286
0.067,0.765,-0.632,2.014,13290
0.072,0.764,-0.639,2.014,13294
0.073,0.762,-0.639,1.221,13298
0.076,0.759,-0.636,0.61,13303
0.072,0.761,-0.638,-0.671,13306
0.075,0.758,-0.635,-1.038,13310
0.073,0.753,-0.633,-1.77,13315
0.078,0.756,-0.63,-1.77,13318
0.072,0.76,-0.629,-1.404,13322
0.078,0.758,-0.629,-1.038,13326
0.076,0.758,-0.621,-0.305,13331
0.085,0.757,-0.621,-0.488,13334
0.081,0.762,-0.623,-0.366,13339
0.086,0.76,-0.619,-0.549,13342
0.085,0.76,-0.62,-0.671,13346
0.085,0.764,-0.617,-0.916,13350
0.08,0.764,-0.618,-0.488,13354
0.079,0.763,-0.623,-0.183,13358
0.078,0.764,-0.626,0.305,13362
0.078,0.764,-0.629,0.854,13366
0.075,0.763,-0.626,1.038,13370
0.07,0.76,-0.632,1.282,13374
0.076,0.763,-0.631,0.732,13378
0.072,0.765,-0.635,0.732,13383
0.07,0.763,-0.633,0.305,13387
0.069,0.762,-0.632,-0.122,13390
0.069,0.762,-0.637,0.0,13395
0.07,0.762,-0.632,0.061,13398
0.073,0.759,-0.635,0.0,13403
0.075,0.763,-0.636,-0.427,13406
0.074,0.758,-0.634,-0.793,13410
0.075,0.759,-0.631,-1.16,13414
0.079,0.761,-0.631,-1.16,13419
0.076,0.763,-0.628,-1.526,13422
0.081,0.765,-0.629,-1.587,13427
0.078,0.764,-0.627,-1.404,13431
0.078,0.762,-0.625,-0.671,13435
0.083,0.761,-0.618,-0.427,13439
0.082,0.767,-0.619,-0.061,13443
0.079,0.766,-0.621,0.122,13447
0.081,0.764,-0.619,0.183,13450
0.079,0.766,-0.624,0.61,13455
0.08,0.762,-0.62,0.305,13458
0.076,0.758,-0.625,0.183,13462
0.071,0.764,-0.627,0.183,13466
0.07,0.764,-0.629,0.671,13471
0.074,0.762,-0.63,0.793,13475
0.07,0.763,-0.634,0.61,13479
0.07,0.76,-0.635,0.793,13483
0.075,0.762,-0.638,0.732,13487
0.073,0.765,-0.633,0.305,13490
0.072,0.766,-0.635,-0.183,13494
0.07,0.763,-0.634,-0.549,13499
0.068,0.76,-0.641,-0.671,13503
0.073,0.765,-0.626,-0.549,13507
0.076,0.765,-0.633,-0.488,13511
0.075,0.762,-0.626,-0.671,13515
0.078,0.76,-0.627,-0.61,13519
0.078,0.76,-0.626,-0.366,13523
0.083,0.761,-0.623,-0.61,13527
0.088,0.757,-0.623,-0.549,13531
0.079,0.759,-0.623,-0.916,13535
0.085,0.758,-0.622,-0.793,13538
0.081,0.765,-0.622,-0.916,13542
0.082,0.766,-0.621,-0.549,13546
0.079,0.766,-0.624,-0.122,13550
0.078,0.765,-0.627,0.549,13555
0.077,0.762,-0.625,0.671,13559
0.076,0.761,-0.625,0.793,13563
0.08,0.765,-0.626,1.038,13567
0.075,0.765,-0.634,0.61,13571
0.073,0.758,-0.631,0.488,13575
0.074,0.761,-0.631,0.183,13578
0.07,0.761,-0.633,-0.183,13582
0.067,0.764,-0.635,-0.305,13586
0.071,0.762,-0.628,-0.732,13590
0.074,0.76,-0.634,-0.977,13594
0.071,0.763,-0.628,-0.793,13598
0.073,0.765,-0.63,-0.61,13602
0.074,0.761,-0.633,-1.038,13606
0.076,0.765,-0.627,-0.854,13610
0.078,0.761,-0.625,-0.916,13615
0.077,0.761,-0.626,-0.793,13618
0.078,0.763,-0.621,-0.549,13622
0.08,0.763,-0.623,-0.427,13626
0.081,0.766,-0.625,-0.061,13630
0.078,0.765,-0.627,-0.061,13634
0.08,0.759,-0.622,0.427,13638
0.08,0.763,-0.625,0.122,13642
0.077,0.759,-0.628,0.122,13646
0.082,0.759,-0.622,0.0,13651
0.081,0.761,-0.627,-0.061,13654
0.08,0.762,-0.633,0.122,13658
0.074,0.759,-0.631,0.427,13662
0.077,0.76,-0.631,0.122,13666
0.074,0.762,-0.631,0.366,13670
0.07,0.762,-0.627,0.305,13674
0.077,0.762,-0.631,0.244,13678
0.077,0.763,-0.631,0.183,13682
0.075,0.761,-0.632,-0.244,13686
0.076,0.764,-0.631,-0.61,13690
0.074,0.763,-0.631,-0.671,13694
0.069,0.768,-0.631,-0.854,13698
0.073,0.765,-0.63,-0.61,13702
0.074,0.765,-0.625,-0.61,13706
0.075,0.765,-0.629,-0.549,13710
0.077,0.763,-0.625,-0.183,13714
0.076,0.763,-0.622,-0.183,13718
0.079,0.762,-0.629,0.0,13722
0.079,0.764,-0.626,0.0,13726
0.076,0.761,-0.623,-0.183,13730
0.079,0.764,-0.625,0.0,13734
0.077,0.762,-0.629,0.061,13739
0.077,0.76,-0.625,0.122,13742
0.079,0.759,-0.627,0.244,13746
0.08,0.762,-0.63,0.122,13750
0.075,0.763,-0.63,0.244,13754
0.078,0.762,-0.626,-0.122,13758
0.081,0.76,-0.628,0.0,13762
0.076,0.759,-0.63,0.0,13766
0.074,0.764,-0.632,-0.183,13770
0.079,0.763,-0.636,-0.427,13774
0.077,0.761,-0.627,-0.549,13778
0.076,0.762,-0.627,-0.183,13782
0.077,0.766,-0.624,-0.488,13786
0.075,0.765,-0.625,-0.427,13791
0.074,0.764,-0.632,-0.427,13794
0.079,0.765,-0.629,-0.427,13798
0.079,0.764,-0.627,-0.549,13803
0.078,0.769,-0.626,-0.61,13806
0.076,0.766,-0.626,-0.61,13810
0.078,0.768,-0.628,-0.671,13814
0.074,0.766,-0.627,-0.427,13818
0.075,0.765,-0.631,-0.183,13823
0.07,0.768,-0.629,0.061,13826
0.073,0.765,-0.632,0.366,13830
0.071,0.764,-0.627,0.488,13834
0.075,0.766,-0.632,0.732,13838
0.078,0.762,-0.628,0.793,13842
0.076,0.762,-0.631,0.488,13846
0.081,0.761,-0.631,0.122,13850
0.077,0.761,-0.632,0.061,13854
0.071,0.76,-0.63,-0.549,13858
0.073,0.76,-0.632,-0.366,13863
0.074,0.763,-0.624,-0.854,13866
0.077,0.757,-0.624,-0.732,13871
0.077,0.762,-0.631,-0.488,13875
0.079,0.768,-0.625,-0.183,13878
0.076,0.761,-0.629,-0.305,13882
0.076,0.765,-0.632,-0.305,13886
0.076,0.767,-0.627,-0.183,13890
0.076,0.766,-0.625,0.061,13894
0.079,0.762,-0.626,-0.061,13898
0.08,0.762,-0.624,-0.122,13903
0.078,0.763,-0.629,0.122,13906
0.079,0.763,-0.624,-0.061,13910
0.072,0.763,-0.624,0.0,13914
0.074,0.759,-0.623,-0.183,13918
0.075,0.76,-0.625,-0.122,13922
0.076,0.762,-0.627,0.0,13927
0.074,0.765,-0.633,-0.061,13931
0.076,0.757,-0.629,0.061,13934
0.072,0.756,-0.63,0.061,13938
0.076,0.76,-0.63,0.244,13943
0.075,0.761,-0.631,0.183,13947
0.073,0.761,-0.632,0.183,13950
0.074,0.758,-0.626,0.305,13955
0.079,0.761,-0.629,0.244,13958
0.075,0.762,-0.628,-0.183,13962
0.077,0.761,-0.636,-0.977,13966
0.077,0.763,-0.635,-1.099,13971
0.077,0.762,-0.624,-0.732,13974
0.076,0.762,-0.631,-1.038,13979
0.073,0.764,-0.63,-0.671,13983
0.071,0.759,-0.629,-0.366,13987
0.078,0.763,-0.625,0.061,13990
0.077,0.763,-0.627,0.366,13994
0.078,0.763,-0.625,0.244,13999
0.081,0.763,-0.629,0.061,14003
0.083,0.765,-0.627,-0.061,14007
0.078,0.763,-0.626,-0.366,14011
0.076,0.767,-0.629,-1.16,14015
0.076,0.767,-0.629,-1.099,14019
0.071,0.765,-0.626,-0.488,14023
0.076,0.762,-0.629,0.122,14027
0.072,0.766,-0.623,0.671,14031
0.069,0.759,-0.633,0.61,14035
0.074,0.764,-0.628,1.038,14039
0.076,0.761,-0.63,0.793,14042
0.071,0.763,-0.632,0.671,14046
0.074,0.761,-0.63,0.061,14050
0.075,0.763,-0.631,-0.61,14055
0.076,0.763,-0.63,-1.038,14059
0.077,0.76,-0.629,-1.099,14063
0.074,0.757,-0.628,-0.916,14067
0.078,0.766,-0.635,-0.244,14071
0.075,0.762,-0.628,-0.427,14075
0.077,0.757,-0.625,-0.061,14078
0.075,0.759,-0.63,0.183,14082
0.082,0.762,-0.626,0.183,14086
0.083,0.762,-0.628,-0.183,14091
0.081,0.764,-0.634,0.122,14094
0.08,0.761,-0.629,0.244,14098
0.081,0.761,-0.621,-0.244,14102
0.078,0.763,-0.623,-0.732,14106
0.076,0.762,-0.628,-0.916,14110
0.074,0.763,-0.629,-0.305,14115
0.073,0.765,-0.623,-0.244,14118
0.074,0.767,-0.634,0.0,14122
0.076,0.765,-0.635,-0.183,14126
0.073,0.76,-0.633,0.122,14130
0.074,0.764,-0.632,0.488,14134
0.078,0.765,-0.632,0.61,14138
0.076,0.764,-0.631,0.549,14142
0.075,0.76,-0.636,0.244,14146
0.077,0.763,-0.631,0.061,14150
0.075,0.762,-0.625,-0.244,14154
0.072,0.764,-0.632,-0.793,14158
0.073,0.759,-0.628,-0.916,14162
0.072,0.76,-0.626,-0.671,14166
0.074,0.763,-0.627,-0.854,14170
0.078,0.764,-0.624,-0.854,14174
0.078,0.76,-0.63,-0.732,14178
0.078,0.76,-0.627,-0.244,14182
0.081,0.762,-0.623,-0.061,14186
0.081,0.764,-0.624,-0.305,14190
0.081,0.764,-0.625,-0.244,14194
0.08,0.764,-0.626,-0.183,14198
0.077,0.764,-0.622,-0.122,14202
0.077,0.764,-0.622,-0.122,14206
0.078,0.765,-0.628,0.183,14210
0.077,0.766,-0.63,-0.183,14214
0.072,0.768,-0.629,-0.183,14218
0.071,0.762,-0.633,-0.244,14222
0.072,0.762,-0.628,-0.244,14226
0.074,0.769,-0.634,-0.427,14231
0.071,0.762,-0.637,-0.122,14234
0.07,0.766,-0.63,0.061,14239
0.073,0.763,-0.629,0.183,14242
0.075,0.765,-0.629,0.183,14246
0.078,0.763,-0.635,0.427,14250
0.074,0.764,-0.627,0.244,14254
0.075,0.763,-0.632,-0.183,14258
0.08,0.763,-0.628,-0.427,14262
0.078,0.759,-0.632,-0.488,14266
0.077,0.758,-0.632,-0.854,14270
0.08,0.761,-0.631,-0.793,14274
0.083,0.765,-0.625,-0.488,14278
0.078,0.756,-0.626,-0.427,14282
0.077,0.761,-0.625,0.061,14286
0.077,0.764,-0.623,0.0,14290
0.081,0.762,-0.623,-0.061,14294
0.078,0.761,-0.627,0.061,14298
0.078,0.759,-0.624,0.0,14302
0.082,0.762,-0.626,-0.183,14306
0.075,0.759,-0.626,-0.244,14310
0.076,0.757,-0.625,-0.122,14314
0.076,0.776,-0.631,0.122,14318
0.077,0.771,-0.629,0.0,14322
0.069,0.754,-0.626,-0.061,14326
0.072,0.754,-0.625,0.305,14330
0.078,0.768,-0.627,0.122,14334
0.074,0.781,-0.629,-0.671,14338
0.071,0.765,-0.644,-0.244,14342
0.066,0.756,-0.634,0.977,14346
0.08,0.76,-0.625,0.793,14350
0.082,0.769,-0.625,-0.061,14354
0.072,0.765,-0.635,-1.343,14359
0.071,0.756,-0.636,-0.183,14362
0.085,0.756,-0.628,0.671,14366
0.08,0.762,-0.622,-0.549,14370
0.076,0.762,-0.632,-1.526,14375
0.077,0.76,-0.634,-0.916,14378
0.075,0.757,-0.625,-0.122,14382
0.081,0.763,-0.62,-0.854,14386
0.078,0.766,-0.627,-0.793,14391
0.078,0.763,-0.633,-0.305,14394
0.077,0.76,-0.624,0.61,14398
0.08,0.756,-0.625,0.854,14402
0.081,0.765,-0.621,-0.183,14406
0.075,0.765,-0.636,-0.854,14410
0.074,0.766,-0.631,-0.122,14415
0.075,0.766,-0.63,0.366,14418
0.074,0.768,-0.623,0.305,14422
0.074,0.765,-0.631,-0.61,14427
0.071,0.765,-0.633,0.061,14431
0.068,0.77,-0.633,0.488,14434
0.077,0.764,-0.629,0.122,14438
0.075,0.766,-0.628,-0.244,14442
0.075,0.761,-0.635,-0.183,14446
0.071,0.763,-0.636,0.061,14450
0.077,0.758,-0.624,-0.122,14454
0.071,0.76,-0.631,-0.305,14458
0.076,0.764,-0.629,-0.549,14462
0.076,0.758,-0.627,-0.061,14466
0.079,0.764,-0.624,0.427,14471
0.079,0.755,-0.623,-0.61,14475
0.077,0.759,-0.626,-0.549,14479
0.084,0.762,-0.626,-0.732,14483
0.078,0.764,-0.625,-0.305,14487
0.085,0.76,-0.627,-0.549,14491
0.083,0.761,-0.623,-0.549,14495
0.076,0.763,-0.624,-0.183,14499
0.075,0.761,-0.629,0.244,14502
0.079,0.761,-0.627,0.122,14506
0.077,0.764,-0.622,0.244,14511
0.076,0.767,-0.628,0.427,14515
0.077,0.768,-0.631,0.488,14519
0.076,0.764,-0.632,0.244,14523
0.074,0.764,-0.628,0.0,14527
0.074,0.766,-0.629,-0.305,14531
0.073,0.764,-0.632,-0.183,14535
0.072,0.767,-0.632,-0.244,14539
0.072,0.759,-0.632,0.0,14542
0.074,0.769,-0.633,-0.122,14547
0.072,0.759,-0.63,-0.488,14550
0.075,0.762,-0.627,-0.183,14554
0.075,0.762,-0.625,-0.244,14558
0.08,0.764,-0.629,-0.122,14563
0.079,0.764,-0.624,-0.61,14567
0.075,0.765,-0.623,-0.671,14571
0.079,0.76,-0.623,-0.549,14575
0.08,0.762,-0.628,-0.61,14578
0.078,0.764,-0.628,-0.549,14582
0.082,0.758,-0.623,-0.488,14586
0.077,0.768,-0.626,-0.61,14590
0.079,0.765,-0.628,0.0,14594
0.081,0.764,-0.629,0.061,14598
0.074,0.762,-0.627,0.122,14602
0.078,0.761,-0.632,0.183,14606
0.078,0.763,-0.636,0.427,14610
0.075,0.761,-0.632,0.366,14615
0.077,0.758,-0.631,0.244,14618
0.076,0.761,-0.632,-0.122,14623
0.073,0.763,-0.631,-0.549,14626
0.073,0.763,-0.633,-0.549,14630
0.077,0.764,-0.63,-0.366,14634
0.073,0.762,-0.629,-0.488,14638
0.072,0.766,-0.63,-0.061,14642
0.075,0.766,-0.625,0.183,14646
0.077,0.765,-0.629,0.061,14650
0.075,0.762,-0.627,-0.122,14654
0.077,0.767,-0.626,-0.305,14658
0.077,0.762,-0.63,-0.427,14662
0.084,0.761,-0.625,-0.671,14666
0.075,0.764,-0.624,-1.038,14670
0.078,0.761,-0.625,-0.977,14675
0.078,0.763,-0.622,-0.61,14678
0.079,0.764,-0.624,-0.488,14682
0.077,0.76,-0.623,-0.183,14686
0.081,0.763,-0.628,-0.183,14690
0.08,0.761,-0.624,0.122,14694
0.078,0.761,-0.631,0.0,14698
0.079,0.762,-0.63,0.549,14703
0.078,0.762,-0.628,-0.183,14706
0.078,0.761,-0.629,-0.061,14710
0.077,0.764,-0.63,-0.244,14714
0.073,0.768,-0.625,-0.244,14719
0.074,0.761,-0.63,-0.244,14723
0.072,0.761,-0.631,0.305,14727
0.073,0.764,-0.628,0.122,14730
0.075,0.758,-0.63,-0.183,14734
0.075,0.76,-0.635,-0.122,14738
0.077,0.76,-0.627,-0.183,14742
0.076,0.765,-0.632,-0.549,14746
0.076,0.762,-0.63,-1.038,14750
0.073,0.761,-0.627,-0.488,14754
0.075,0.764,-0.622,-0.427,14758
0.078,0.767,-0.624,-0.732,14762
0.076,0.759,-0.628,-0.305,14766
0.077,0.76,-0.624,-0.305,14770
0.081,0.76,-0.626,0.0,14774
0.083,0.766,-0.623,-0.61,14778
0.081,0.76,-0.625,-0.183,14782
0.08,0.767,-0.629,-0.366,14786
0.082,0.765,-0.623,-0.183,14790
0.075,0.764,-0.622,-0.183,14794
0.075,0.765,-0.624,-0.061,14798
0.075,0.763,-0.627,0.244,14803
0.079,0.76,-0.628,0.366,14807
0.075,0.764,-0.628,0.0,14811
0.077,0.764,-0.631,0.244,14815
0.075,0.761,-0.636,-0.183,14819
0.068,0.761,-0.633,-0.305,14822
0.074,0.766,-0.63,-0.366,14827
0.074,0.764,-0.627,-0.244,14831
0.072,0.766,-0.624,-0.488,14835
0.069,0.762,-0.628,-0.305,14839
0.077,0.765,-0.63,-0.671,14843
0.077,0.762,-0.63,-0.244,14846
0.076,0.766,-0.625,-0.671,14851
0.075,0.76,-0.629,-0.305,14855
0.077,0.765,-0.624,-0.183,14859
0.079,0.765,-0.625,-0.244,14863
0.076,0.763,-0.628,-0.122,14867
0.082,0.761,-0.626,-0.183,14870
0.081,0.761,-0.625,-0.305,14874
0.082,0.763,-0.626,-0.366,14878
0.076,0.762,-0.621,0.0,14882
0.073,0.759,-0.627,-0.183,14887
0.078,0.764,-0.625,0.244,14891
0.078,0.759,-0.63,-0.061,14894
0.074,0.764,-0.628,0.0,14898
0.077,0.764,-0.627,0.0,14903
0.079,0.763,-0.627,0.0,14906
0.074,0.766,-0.625,0.366,14910
0.078,0.76,-0.634,0.0,14914
0.074,0.765,-0.627,-0.305,14919
0.075,0.763,-0.629,-0.427,14923
0.073,0.762,-0.627,-0.427,14927
0.078,0.76,-0.63,-0.427,14931
0.074,0.76,-0.63,-0.183,14935
0.073,0.763,-0.63,-0.427,14938
0.076,0.763,-0.628,-0.549,14943
0.073,0.764,-0.629,-0.549,14947
0.077,0.76,-0.626,-0.671,14950
0.073,0.765,-0.626,-0.549,14954
0.075,0.764,-0.626,-0.61,14958
0.076,0.762,-0.627,0.061,14962
0.078,0.764,-0.625,0.0,14967
0.077,0.764,-0.628,0.305,14970
0.079,0.769,-0.623,0.183,14974
0.08,0.761,-0.628,0.427,14979
0.076,0.762,-0.63,-0.183,14983
0.075,0.763,-0.625,-0.122,14987
0.075,0.763,-0.624,-0.122,14991
0.074,0.764,-0.623,-0.305,14994
0.077,0.76,-0.622,0.0,14999
0.075,0.764,-0.628,0.122,15003
0.072,0.766,-0.634,0.183,15007
0.073,0.764,-0.632,0.366,15011
0.08,0.765,-0.632,0.366,15015
0.079,0.762,-0.632,0.122,15019
0.074,0.762,-0.624,-0.549,15022
0.069,0.764,-0.631,-0.61,15027
0.078,0.764,-0.628,-0.671,15031
0.074,0.763,-0.625,-0.427,15035
0.074,0.764,-0.63,-0.305,15039
0.074,0.767,-0.626,-0.427,15042
0.078,0.761,-0.627,0.0,15046
0.078,0.764,-0.625,-0.244,15050
0.075,0.763,-0.625,-0.305,15054
0.074,0.765,-0.624,-0.427,15059
0.077,0.762,-0.629,-0.671,15063
0.076,0.762,-0.631,-0.244,15067
0.075,0.765,-0.623,-0.488,15071
0.075,0.764,-0.627,-0.183,15075
0.076,0.762,-0.624,-0.122,15078
0.077,0.767,-0.625,0.0,15082
0.078,0.764,-0.626,-0.183,15086
0.075,0.761,-0.627,0.183,15090
0.076,0.762,-0.63,-0.183,15094
0.076,0.765,-0.628,-0.366,15098
0.074,0.762,-0.629,-0.366,15102
0.07,0.762,-0.634,-0.122,15106
0.073,0.762,-0.627,-0.183,15110
0.074,0.763,-0.628,-0.488,15115
0.074,0.76,-0.626,-0.183,15118
0.072,0.766,-0.629,0.061,15122
0.074,0.764,-0.632,-0.427,15126
0.078,0.762,-0.629,-0.671,15130
0.077,0.762,-0.627,-0.427,15135
0.078,0.765,-0.625,-0.793,15139
0.081,0.764,-0.624,-0.854,15143
0.078,0.764,-0.627,-0.854,15147
0.076,0.761,-0.625,-0.183,15151
0.078,0.768,-0.624,-0.183,15154
0.081,0.766,-0.625,0.061,15158
0.077,0.763,-0.626,0.122,15162
0.077,0.763,-0.627,0.061,15167
0.077,0.757,-0.63,0.061,15171
0.076,0.761,-0.624,0.122,15175
0.073,0.763,-0.624,-0.427,15179
0.076,0.764,-0.627,-0.061,15182
0.08,0.765,-0.625,0.122,15187
0.072,0.764,-0.625,0.183,15190
0.076,0.764,-0.631,-0.122,15195
0.077,0.765,-0.632,-0.305,15199
0.076,0.764,-0.629,-0.305,15202
0.079,0.765,-0.629,-0.183,15206
0.074,0.762,-0.632,0.0,15210
0.071,0.762,-0.631,-0.488,15214
0.075,0.762,-0.63,-0.122,15218
0.071,0.764,-0.629,0.122,15222
0.076,0.762,-0.632,0.122,15226
0.079,0.768,-0.631,0.122,15230
0.076,0.762,-0.634,-0.122,15234
0.083,0.762,-0.628,-0.549,15238
0.076,0.76,-0.633,-0.549,15242
0.077,0.761,-0.632,-1.038,15246
0.076,0.761,-0.624,-0.732,15251
0.078,0.762,-0.628,-0.183,15255
0.073,0.763,-0.626,0.488,15259
0.078,0.758,-0.631,0.183,15263
0.079,0.762,-0.626,0.61,15266
0.077,0.763,-0.624,0.916,15270
0.079,0.762,-0.627,0.549,15274
0.079,0.761,-0.624,-0.061,15278
0.081,0.76,-0.625,-0.366,15283
0.08,0.76,-0.632,-0.854,15286
0.074,0.761,-0.63,-1.038,15290
0.074,0.763,-0.625,-1.282,15294
0.075,0.762,-0.626,-0.793,15298
0.074,0.765,-0.627,-0.183,15303
0.073,0.766,-0.631,0.366,15307
0.076,0.765,-0.621,0.549,15311
0.078,0.76,-0.629,0.488,15314
0.075,0.764,-0.632,0.427,15319
0.079,0.76,-0.632,-0.061,15322
0.076,0.765,-0.629,-0.732,15326
0.076,0.76,-0.627,-1.099,15331
0.073,0.765,-0.628,-0.61,15334
0.073,0.759,-0.627,-0.61,15339
0.076,0.759,-0.618,-0.549,15343
0.076,0.763,-0.63,-0.244,15346
0.077,0.762,-0.625,-0.183,15351
0.075,0.762,-0.628,-0.488,15355
0.079,0.761,-0.627,0.0,15359
0.075,0.762,-0.627,0.061,15362
0.078,0.761,-0.625,0.305,15367
0.076,0.767,-0.626,0.244,15371
0.08,0.764,-0.624,0.244,15375
0.079,0.764,-0.624,0.061,15378
0.076,0.762,-0.625,0.061,15383
0.078,0.764,-0.631,0.0,15387
0.073,0.763,-0.628,-0.488,15391
0.074,0.765,-0.629,-0.305,15394
0.075,0.762,-0.627,-0.305,15399
0.075,0.762,-0.626,0.0,15403
0.072,0.763,-0.626,0.122,15406
0.075,0.76,-0.633,0.366,15410
0.074,0.76,-0.629,0.0,15415
0.078,0.762,-0.632,-0.061,15418
0.074,0.763,-0.623,0.122,15423
0.079,0.765,-0.633,0.061,15427
0.074,0.758,-0.631,-0.122,15430
0.081,0.76,-0.631,-0.244,15435
0.074,0.762,-0.624,-0.549,15439
0.08,0.763,-0.632,-0.305,15443
0.078,0.761,-0.623,-0.305,15447
0.078,0.76,-0.625,-0.366,15451
0.08,0.762,-0.634,-0.366,15455
0.078,0.76,-0.629,-0.244,15459
0.079,0.76,-0.628,-0.244,15463
0.08,0.762,-0.628,-0.183,15467
0.073,0.762,-0.623,-0.305,15471
0.076,0.765,-0.625,-0.183,15475
0.076,0.766,-0.627,0.244,15479
0.073,0.764,-0.629,0.305,15483
0.078,0.765,-0.63,0.0,15487
0.077,0.766,-0.621,0.122,15491
0.076,0.76,-0.625,-0.488,15495
0.075,0.763,-0.626,-0.671,15499
0.076,0.763,-0.63,-0.732,15503
0.076,0.765,-0.628,-0.732,15507
0.075,0.766,-0.628,-0.549,15511
0.074,0.762,-0.627,-0.366,15515
0.076,0.766,-0.628,0.488,15519
0.076,0.761,-0.626,0.488,15523
0.073,0.761,-0.623,0.305,15527
0.08,0.76,-0.632,0.122,15531
0.08,0.759,-0.627,-0.488,15535
0.079,0.76,-0.627,-1.16,15539
0.077,0.763,-0.626,-0.793,15543
0.081,0.761,-0.624,-1.038,15547
0.074,0.763,-0.625,-0.793,15551
0.077,0.764,-0.627,-0.671,15555
0.074,0.765,-0.626,0.061,15559
0.077,0.76,-0.628,0.244,15563
0.074,0.761,-0.625,0.427,15567
0.08,0.762,-0.627,0.244,15571
0.077,0.764,-0.626,-0.427,15575
0.078,0.766,-0.629,-0.488,15579
0.075,0.768,-0.628,-0.732,15582
0.07,0.767,-0.625,-0.366,15586
0.074,0.763,-0.627,-0.366,15590
0.073,0.764,-0.626,-0.244,15595
0.072,0.766,-0.628,0.366,15599
0.073,0.763,-0.631,0.183,15603
0.077,0.762,-0.629,0.305,15607
0.075,0.765,-0.632,0.183,15611
0.076,0.764,-0.63,-0.061,15615
0.076,0.76,-0.627,-0.305,15619
0.076,0.763,-0.625,-0.61,15623
0.075,0.756,-0.627,-0.732,15627
0.078,0.761,-0.626,-0.366,15631
0.075,0.765,-0.631,-0.427,15635
0.077,0.765,-0.629,-0.061,15638
0.078,0.76,-0.63,-0.244,15643
0.082,0.765,-0.625,0.122,15646
0.079,0.761,-0.626,-0.549,15651
0.083,0.765,-0.627,-0.427,15654
0.081,0.763,-0.623,-0.427,15658
0.077,0.761,-0.626,-0.305,15663
0.075,0.761,-0.624,-0.061,15667
0.076,0.764,-0.631,0.183,15670
0.073,0.766,-0.624,-0.244,15674
0.078,0.763,-0.629,0.244,15678
0.075,0.765,-0.63,0.305,15682
0.077,0.766,-0.631,-0.122,15686
0.076,0.763,-0.628,-0.427,15690
0.076,0.763,-0.63,-0.427,15694
0.074,0.761,-0.634,0.061,15698
0.073,0.766,-0.632,-0.244,15702
0.078,0.763,-0.631,0.061,15706
0.077,0.765,-0.629,0.305,15710
0.075,0.762,-0.63,0.122,15714
0.076,0.765,-0.629,0.244,15718
0.075,0.758,-0.629,0.0,15722
0.08,0.761,-0.628,-0.549,15726
0.077,0.763,-0.624,-0.732,15730
0.079,0.76,-0.621,-0.916,15734
0.077,0.767,-0.626,-0.732,15738
0.072,0.764,-0.625,-0.366,15742
0.072,0.761,-0.625,-0.183,15746
0.077,0.764,-0.626,0.427,15750
0.076,0.762,-0.619,-0.122,15754
0.08,0.762,-0.625,0.122,15758
0.077,0.764,-0.628,0.0,15762
0.078,0.761,-0.626,-0.244,15766
0.08,0.761,-0.628,-0.427,15770
0.073,0.765,-0.632,0.0,15774
0.071,0.761,-0.63,-0.122,15778
0.068,0.765,-0.629,0.0,15782
0.071,0.763,-0.627,0.305,15786
0.074,0.76,-0.628,0.427,15790
0.074,0.765,-0.632,0.427,15794
0.08,0.759,-0.632,0.183,15798
0.075,0.765,-0.635,-0.305,15802
0.076,0.759,-0.632,-0.61,15806
0.077,0.765,-0.625,-0.854,15810
0.071,0.764,-0.632,-0.793,15815
0.074,0.761,-0.627,-0.61,15818
0.078,0.762,-0.631,-0.305,15823
0.077,0.762,-0.624,-0.122,15827
0.077,0.763,-0.625,0.244,15831
0.082,0.762,-0.626,0.061,15834
0.083,0.763,-0.63,-0.122,15838
0.08,0.76,-0.626,-0.366,15842
0.078,0.758,-0.633,-0.61,15846
0.075,0.763,-0.625,-0.61,15850
0.073,0.758,-0.625,-0.61,15854
0.073,0.763,-0.625,-0.183,15859
0.074,0.758,-0.625,0.244,15863
0.075,0.759,-0.63,0.61,15866
0.077,0.761,-0.629,0.732,15871
0.08,0.762,-0.628,0.061,15875
0.081,0.762,-0.632,-0.122,15879
0.077,0.763,-0.633,-0.488,15883
0.076,0.763,-0.63,-0.977,15887
0.075,0.755,-0.629,-0.854,15891
0.072,0.763,-0.634,-0.244,15895
0.07,0.764,-0.628,-0.183,15899
0.073,0.77,-0.63,-0.183,15903
0.077,0.764,-0.631,0.244,15907
0.078,0.764,-0.626,0.061,15911
0.082,0.764,-0.627,0.244,15915
0.076,0.759,-0.632,-0.488,15919
0.079,0.765,-0.625,-0.671,15923
0.079,0.759,-0.628,-0.488,15926
0.073,0.757,-0.627,-0.061,15930
0.073,0.763,-0.624,-0.244,15934
0.073,0.76,-0.632,-0.061,15938
0.08,0.764,-0.628,0.122,15942
0.078,0.765,-0.626,-0.183,15946
0.075,0.763,-0.625,-0.061,15950
0.082,0.762,-0.631,-0.427,15954
0.074,0.762,-0.63,-0.244,15959
0.074,0.76,-0.629,-0.488,15963
0.068,0.762,-0.625,-0.183,15967
0.073,0.761,-0.63,0.061,15971
0.073,0.769,-0.631,0.671,15975
0.074,0.761,-0.634,0.671,15979
0.078,0.762,-0.628,0.488,15983
0.078,0.761,-0.632,0.366,15987
0.079,0.76,-0.631,-0.122,15991
0.081,0.762,-0.63,-0.671,15995
0.077,0.762,-0.63,-0.671,15999
0.077,0.764,-0.628,-1.038,16003
0.073,0.76,-0.627,-0.977,16007
0.075,0.76,-0.625,-0.366,16011
0.075,0.761,-0.626,0.244,16015
0.075,0.761,-0.627,0.549,16019
0.081,0.761,-0.627,0.244,16023
0.079,0.759,-0.63,-0.061,16027
0.087,0.763,-0.631,-0.244,16031
0.081,0.758,-0.626,-0.366,16035
0.083,0.763,-0.628,-0.305,16039
0.076,0.763,-0.628,-0.183,16042
0.075,0.761,-0.628,-0.183,16047
0.076,0.765,-0.626,0.0,16050
0.072,0.763,-0.624,0.0,16054
0.076,0.761,-0.629,0.122,16059
0.078,0.762,-0.635,0.244,16063
0.074,0.767,-0.63,0.0,16067
0.073,0.763,-0.634,0.0,16071
0.076,0.764,-0.631,0.0,16075
0.074,0.761,-0.632,-0.305,16079
0.074,0.766,-0.626,-0.183,16082
0.076,0.764,-0.63,-0.183,16086
0.073,0.763,-0.63,0.183,16090
0.072,0.762,-0.628,-0.305,16094
0.072,0.765,-0.63,-0.854,16098
0.076,0.766,-0.625,-0.244,16102
0.073,0.765,-0.628,-0.61,16106
0.076,0.762,-0.626,-0.488,16110
0.08,0.763,-0.626,-0.549,16115
0.075,0.762,-0.625,-0.488,16118
0.08,0.759,-0.629,0.0,16122
0.076,0.761,-0.621,0.244,16126
0.078,0.766,-0.625,0.122,16130
0.077,0.763,-0.629,-0.061,16134
0.082,0.761,-0.627,-0.122,16138
0.08,0.763,-0.624,-0.366,16142
0.075,0.763,-0.627,-0.305,16146
0.077,0.763,-0.629,-0.061,16150
0.077,0.76,-0.627,-0.244,16155
0.071,0.761,-0.626,0.183,16158
0.076,0.763,-0.633,0.122,16162
0.074,0.762,-0.631,0.366,16166
0.073,0.768,-0.63,0.0,16171
0.078,0.764,-0.629,0.0,16174
0.075,0.762,-0.627,0.305,16178
0.077,0.763,-0.63,-0.122,16182
0.079,0.764,-0.629,-0.244,16186
0.074,0.763,-0.629,-0.61,16191
0.077,0.76,-0.627,-0.61,16195
0.074,0.766,-0.625,-0.916,16199
0.073,0.763,-0.628,-0.671,16202
0.076,0.764,-0.625,-0.549,16206
0.077,0.763,-0.626,-0.305,16210
0.079,0.763,-0.628,-0.366,16214
0.076,0.763,-0.628,0.061,16218
0.076,0.766,-0.624,0.122,16222
0.081,0.762,-0.624,0.244,16226
0.082,0.759,-0.626,0.122,16230
0.083,0.764,-0.621,-0.061,16234
0.083,0.764,-0.629,0.0,16238
0.078,0.764,-0.631,-0.183,16242
0.078,0.764,-0.63,-0.061,16246
0.073,0.762,-0.631,-0.488,16250
0.076,0.761,-0.627,-0.427,16254
0.068,0.758,-0.627,0.061,16258
0.077,0.761,-0.629,0.061,16262
0.073,0.764,-0.63,0.305,16266
0.072,0.763,-0.632,0.305,16270
0.07,0.762,-0.628,0.244,16274
0.074,0.761,-0.632,0.183,16278
0.073,0.76,-0.625,-0.488,16283
0.076,0.765,-0.625,-0.427,16286
0.073,0.763,-0.627,-0.977,16290
0.075,0.763,-0.627,-0.977,16294
0.077,0.762,-0.629,-0.366,16298
0.075,0.767,-0.625,-0.366,16302
0.073,0.767,-0.631,-0.305,16307
0.079,0.765,-0.624,-0.122,16310
0.079,0.766,-0.623,0.061,16314
0.079,0.763,-0.632,-0.122,16318
0.076,0.763,-0.629,-0.061,16322
0.077,0.76,-0.628,-0.244,16327
0.08,0.763,-0.627,-0.183,16331
0.073,0.762,-0.631,-0.305,16334
0.072,0.764,-0.628,0.122,16338
0.074,0.76,-0.628,0.122,16342
0.076,0.763,-0.634,0.183,16346
0.074,0.762,-0.628,-0.061,16351
0.075,0.759,-0.629,0.061,16354
0.076,0.764,-0.629,-0.366,16358
0.077,0.761,-0.633,-0.122,16362
0.078,0.761,-0.627,-0.427,16367
0.073,0.763,-0.632,-0.366,16370
0.078,0.763,-0.627,-0.061,16374
0.074,0.761,-0.627,-0.061,16378
0.077,0.764,-0.627,0.0,16382
0.078,0.761,-0.634,0.0,16386
0.077,0.761,-0.632,0.061,16390
0.078,0.759,-0.625,-0.488,16394
0.084,0.762,-0.627,-0.61,16398
0.073,0.761,-0.626,-1.16,16402
0.076,0.759,-0.629,-0.854,16406
0.078,0.765,-0.623,-0.671,16410
0.077,0.761,-0.625,-0.244,16414
0.08,0.76,-0.623,-0.061,16418
0.08,0.761,-0.625,0.0,16422
0.078,0.761,-0.627,0.0,16426
0.081,0.761,-0.62,0.0,16430
0.071,0.76,-0.632,0.0,16434
0.073,0.758,-0.626,0.244,16439
0.076,0.761,-0.624,-0.366,16443
0.077,0.762,-0.629,-0.244,16446
0.076,0.76,-0.634,-0.366,16450
0.073,0.767,-0.627,-0.488,16454
0.079,0.759,-0.624,-0.061,16458
0.073,0.765,-0.626,-0.366,16463
0.073,0.76,-0.628,-0.061,16466
0.074,0.765,-0.634,-0.732,16470
0.074,0.765,-0.627,-0.427,16475
0.076,0.761,-0.627,-0.549,16478
0.074,0.763,-0.625,-0.732,16483
0.076,0.761,-0.632,-0.366,16487
0.076,0.763,-0.628,-0.488,16491
0.077,0.764,-0.626,0.0,16495
0.078,0.762,-0.625,-0.061,16499
0.079,0.761,-0.629,0.122,16503
0.081,0.764,-0.629,0.244,16506
0.078,0.759,-0.629,-0.122,16511
0.081,0.759,-0.624,-0.366,16515
0.08,0.763,-0.626,-0.549,16519
0.078,0.76,-0.628,-0.305,16523
0.079,0.761,-0.629,-0.244,16527
0.074,0.766,-0.626,-0.244,16531
0.073,0.762,-0.63,-0.061,16535
0.078,0.762,-0.625,0.183,16539
0.075,0.758,-0.628,-0.244,16542
0.078,0.761,-0.626,-0.061,16546
0.076,0.76,-0.628,0.061,16551
0.075,0.76,-0.632,-0.427,16555
0.075,0.761,-0.626,-0.671,16559
0.078,0.761,-0.626,-0.366,16563
0.075,0.766,-0.63,-0.427,16567
0.077,0.765,-0.628,-0.366,16571
0.073,0.762,-0.626,0.0,16575
0.073,0.763,-0.627,-0.488,16579
0.073,0.761,-0.628,0.061,16583
0.078,0.761,-0.627,-0.488,16587
0.078,0.758,-0.63,-0.61,16591
0.077,0.759,-0.627,-0.244,16595
0.076,0.76,-0.625,-0.244,16598
0.076,0.76,-0.622,0.061,16602
0.08,0.761,-0.629,-0.183,16607
0.077,0.765,-0.629,-0.061,16611
0.078,0.765,-0.628,-0.061,16615
0.076,0.761,-0.629,-0.061,16619
0.078,0.758,-0.626,0.0,16623
0.075,0.764,-0.626,-0.61,16627
0.075,0.764,-0.625,-0.427,16631
0.077,0.764,-0.633,-0.427,16635
0.074,0.763,-0.628,-0.427,16638
0.073,0.759,-0.625,-0.122,16643
0.076,0.758,-0.623,0.183,16646
0.077,0.764,-0.63,-0.122,16650
0.076,0.761,-0.632,-0.122,16654
0.076,0.765,-0.63,-0.061,16658
0.076,0.759,-0.625,-0.244,16662
0.075,0.76,-0.63,-0.244,16666
0.075,0.764,-0.631,-0.854,16671
0.078,0.766,-0.628,-0.244,16674
0.075,0.765,-0.631,-0.671,16678
0.079,0.769,-0.627,-0.183,16683
0.081,0.759,-0.629,-0.122,16687
0.08,0.76,-0.627,0.183,16691
0.078,0.762,-0.629,0.0,16694
0.078,0.761,-0.631,-0.183,16699
0.082,0.76,-0.629,-0.427,16702
0.08,0.765,-0.63,-0.244,16707
0.075,0.761,-0.628,-0.427,16710
0.075,0.765,-0.63,0.0,16714
0.076,0.761,-0.626,-0.305,16718
0.075,0.764,-0.631,-0.244,16722
0.077,0.764,-0.63,-0.244,16726
0.08,0.763,-0.625,0.0,16730
0.074,0.762,-0.623,-0.122,16734
0.076,0.763,-0.631,0.244,16738
0.075,0.762,-0.63,-0.061,16742
0.08,0.761,-0.632,-0.305,16746
0.073,0.762,-0.627,0.122,16750
0.081,0.767,-0.631,-0.183,16755
0.073,0.764,-0.626,0.061,16758
0.079,0.765,-0.631,-0.122,16762
0.074,0.765,-0.626,0.305,16766
0.076,0.762,-0.628,-0.61,16770
0.08,0.762,-0.628,-0.61,16774
0.079,0.765,-0.627,-0.183,16778
0.077,0.761,-0.628,0.0,16782
0.078,0.758,-0.631,-0.183,16786
0.08,0.761,-0.63,-0.183,16790
0.082,0.762,-0.628,-0.183,16794
0.076,0.766,-0.627,0.061,16798
0.076,0.763,-0.625,0.305,16802
0.077,0.764,-0.631,-0.244,16806
0.078,0.765,-0.626,-0.061,16810
0.082,0.761,-0.621,-0.305,16814
0.075,0.765,-0.625,-0.305,16818
0.074,0.761,-0.63,-0.061,16822
0.078,0.761,-0.633,0.061,16826
0.078,0.762,-0.625,0.122,16830
0.078,0.761,-0.629,-0.122,16834
0.075,0.763,-0.63,0.122,16838
0.076,0.763,-0.628,0.122,16842
0.071,0.761,-0.627,0.244,16846
0.077,0.767,-0.628,0.0,16850
0.077,0.762,-0.63,-0.244,16854
0.077,0.768,-0.629,-0.366,16858
0.072,0.763,-0.628,-0.732,16862
0.076,0.765,-0.633,-0.305,16866
0.078,0.761,-0.632,-0.244,16870
0.078,0.764,-0.626,-0.183,16874
0.077,0.761,-0.629,-0.122,16878
0.079,0.762,-0.632,-0.122,16882
0.078,0.766,-0.628,0.183,16886
0.075,0.762,-0.627,-0.183,16890
0.078,0.762,-0.627,-0.366,16894
0.075,0.763,-0.625,-0.305,16898
0.08,0.762,-0.626,0.0,16902
0.077,0.763,-0.625,-0.488,16906
0.077,0.765,-0.622,0.061,16910
0.078,0.76,-0.626,0.0,16914
0.076,0.764,-0.627,-0.366,16918
0.078,0.759,-0.628,-0.244,16922
0.074,0.762,-0.63,-0.305,16926
0.077,0.762,-0.628,-0.244,16931
0.073,0.764,-0.628,-0.183,16934
0.075,0.764,-0.627,-0.183,16938
0.077,0.761,-0.628,-0.122,16942
0.074,0.762,-0.63,0.061,16946
0.078,0.765,-0.626,-0.061,16951
0.077,0.763,-0.634,-0.244,16955
0.075,0.762,-0.629,0.183,16958
0.077,0.762,-0.634,-0.488,16963
0.072,0.765,-0.629,-0.183,16966
0.077,0.765,-0.633,-0.183,16970
0.074,0.764,-0.627,-0.488,16974
0.077,0.761,-0.625,-0.122,16979
0.077,0.764,-0.626,-0.244,16983
0.076,0.759,-0.627,0.0,16987
0.076,0.763,-0.629,-0.305,16990
0.078,0.768,-0.623,-0.122,16995
0.074,0.76,-0.621,-0.488,16998
0.081,0.765,-0.629,-0.244,17003
0.082,0.762,-0.631,-0.366,17006
0.076,0.762,-0.632,-0.305,17010
0.079,0.765,-0.63,-0.366,17015
0.076,0.763,-0.623,-0.183,17019
0.077,0.761,-0.628,-0.183,17023
0.074,0.766,-0.63,0.122,17027
0.079,0.76,-0.625,-0.244,17031
0.076,0.76,-0.629,-0.122,17035
0.075,0.765,-0.626,-0.244,17039
0.077,0.763,-0.631,-0.122,17042
0.075,0.761,-0.629,-0.183,17046
0.071,0.767,-0.629,-0.061,17050
0.076,0.763,-0.627,-0.122,17054
0.071,0.764,-0.627,-0.122,17059
0.08,0.76,-0.632,-0.183,17063
0.076,0.766,-0.627,-0.244,17067
0.078,0.765,-0.629,-0.122,17071
0.07,0.763,-0.629,-0.244,17075
0.079,0.76,-0.626,-0.183,17079
0.077,0.76,-0.625,-0.183,17082
0.081,0.762,-0.629,0.0,17086
0.078,0.767,-0.625,-0.061,17090
0.078,0.762,-0.627,-0.244,17094
0.077,0.763,-0.625,-0.427,17098
0.074,0.758,-0.629,0.122,17102
0.078,0.764,-0.628,-0.183,17106
0.077,0.765,-0.625,0.0,17110
0.075,0.765,-0.63,-0.244,17115
0.076,0.759,-0.623,-0.366,17119
0.079,0.762,-0.63,-0.366,17122
0.08,0.763,-0.629,-0.122,17126
0.074,0.759,-0.627,-0.366,17130
0.077,0.764,-0.626,0.061,17134
0.078,0.757,-0.627,0.183,17138
0.075,0.762,-0.627,-0.183,17142
0.072,0.762,-0.632,-0.427,17146
0.074,0.761,-0.63,-0.183,17150
0.077,0.765,-0.626,0.0,17154
0.077,0.759,-0.627,-0.488,17158
0.076,0.761,-0.632,-0.366,17162
0.078,0.763,-0.63,-0.183,17166
0.081,0.761,-0.63,0.061,17170
0.075,0.76,-0.629,-0.183,17174
0.076,0.762,-0.625,-0.366,17178
0.075,0.763,-0.63,-0.488,17182
0.081,0.763,-0.63,-0.366,17186
0.077,0.761,-0.626,-0.244,17190
0.078,0.764,-0.625,-0.854,17194
0.075,0.76,-0.625,-0.305,17198
0.077,0.762,-0.626,0.183,17202
0.076,0.766,-0.625,-0.244,17206
0.08,0.757,-0.625,0.061,17210
0.081,0.763,-0.631,-0.183,17214
0.079,0.763,-0.627,-0.366,17218
0.073,0.766,-0.628,-0.122,17222
0.074,0.765,-0.624,-0.305,17226
0.079,0.765,-0.625,-0.061,17230
0.079,0.764,-0.626,-0.183,17234
0.078,0.76,-0.631,-0.244,17238
0.078,0.762,-0.625,-0.366,17242
0.077,0.764,-0.625,-0.244,17246
0.075,0.764,-0.633,-0.427,17250
0.079,0.762,-0.629,-0.061,17254
0.077,0.768,-0.632,-0.244,17258
0.077,0.764,-0.628,-0.183,17262
0.075,0.762,-0.633,0.305,17266
0.078,0.765,-0.627,-0.244,17270
0.08,0.759,-0.632,0.061,17274
0.077,0.761,-0.627,-0.183,17278
0.079,0.76,-0.626,-0.305,17282
0.08,0.761,-0.629,-0.427,17286
0.079,0.763,-0.626,-0.366,17290
0.07,0.763,-0.628,-0.488,17294
0.076,0.763,-0.627,-0.366,17298
0.074,0.763,-0.624,0.061,17302
0.076,0.764,-0.625,0.061,17306
0.075,0.765,-0.625,0.183,17310
0.077,0.764,-0.626,0.122,17314
0.076,0.761,-0.626,-0.244,17318
0.079,0.766,-0.627,0.427,17322
0.076,0.762,-0.629,-0.427,17326
0.074,0.763,-0.629,-0.061,17330
0.076,0.764,-0.628,-0.122,17334
0.075,0.761,-0.629,-0.549,17338
0.073,0.763,-0.63,-0.305,17342
0.075,0.76,-0.63,-0.488,17346
0.077,0.762,-0.63,0.0,17350
0.075,0.765,-0.632,-0.183,17354
0.076,0.759,-0.631,0.0,17358
0.074,0.763,-0.626,-0.183,17363
0.078,0.765,-0.63,-0.183,17367
0.075,0.757,-0.625,-0.244,17371
0.076,0.761,-0.624,-0.122,17375
0.077,0.758,-0.624,-0.183,17379
0.074,0.763,-0.629,0.122,17382
0.075,0.765,-0.627,-0.305,17386
0.076,0.765,-0.627,-0.549,17391
0.075,0.762,-0.628,-0.305,17394
0.077,0.761,-0.628,-0.244,17399
0.078,0.763,-0.633,-0.183,17402
0.075,0.761,-0.625,-0.305,17407
0.077,0.764,-0.63,-0.061,17411
0.074,0.765,-0.631,-0.061,17414
0.077,0.762,-0.627,0.183,17418
0.079,0.765,-0.626,0.061,17422
0.074,0.761,-0.628,-0.061,17426
0.081,0.762,-0.631,0.061,17430
0.076,0.76,-0.63,-0.183,17434
0.076,0.766,-0.63,-0.244,17438
0.073,0.76,-0.629,-0.244,17442
0.076,0.759,-0.625,0.0,17446
0.077,0.763,-0.627,-0.122,17451
0.076,0.761,-0.625,-0.061,17454
0.076,0.761,-0.63,-0.244,17458
0.075,0.762,-0.63,0.0,17462
0.073,0.764,-0.625,0.0,17466
0.078,0.763,-0.625,-0.183,17470
0.08,0.764,-0.631,-0.305,17474
0.075,0.766,-0.623,-0.305,17479
0.074,0.762,-0.627,-0.488,17483
0.079,0.759,-0.628,-0.427,17487
0.078,0.762,-0.628,-0.427,17490
0.077,0.762,-0.628,-0.305,17494
0.073,0.761,-0.629,-0.122,17499
0.077,0.761,-0.626,-0.122,17502
0.08,0.763,-0.627,0.061,17506
0.076,0.764,-0.627,0.0,17510
0.08,0.764,-0.63,-0.061,17515
0.079,0.761,-0.625,-0.122,17518
0.077,0.762,-0.623,-0.061,17523
0.08,0.763,-0.627,-0.427,17527
0.076,0.758,-0.631,-0.488,17531
0.074,0.761,-0.631,-0.244,17535
0.075,0.763,-0.629,-0.305,17539
0.075,0.761,-0.624,-0.183,17542
0.078,0.765,-0.628,0.0,17546
0.077,0.76,-0.628,-0.488,17550
0.079,0.763,-0.625,-0.122,17554
0.073,0.764,-0.636,-0.366,17558
0.075,0.759,-0.631,0.0,17563
0.075,0.768,-0.624,0.0,17567
0.08,0.765,-0.622,-0.305,17571
0.076,0.763,-0.628,-0.427,17575
0.077,0.764,-0.627,-0.122,17579
0.075,0.762,-0.626,0.0,17582
0.079,0.761,-0.627,-0.549,17587
0.075,0.766,-0.624,0.183,17590
0.079,0.76,-0.627,0.061,17595
0.076,0.758,-0.623,-0.244,17599
0.076,0.759,-0.627,-0.244,17602
0.079,0.759,-0.626,-0.061,17606
0.076,0.764,-0.629,0.0,17610
0.077,0.76,-0.629,0.0,17615
0.074,0.768,-0.627,-0.122,17619
0.076,0.764,-0.626,-0.549,17622
0.075,0.762,-0.626,-0.427,17627
0.073,0.763,-0.633,-0.244,17630
0.079,0.762,-0.628,-0.427,17635
0.078,0.762,-0.633,-0.244,17639
0.078,0.765,-0.627,-0.183,17643
0.075,0.762,-0.629,0.183,17647
0.079,0.763,-0.625,0.061,17650
0.076,0.759,-0.627,-0.061,17654
0.077,0.761,-0.627,-0.183,17658
0.077,0.762,-0.625,-0.305,17662
0.076,0.763,-0.625,-0.305,17666
0.075,0.764,-0.625,-0.366,17670
0.076,0.763,-0.627,-0.244,17674
0.079,0.766,-0.632,-0.427,17678
0.079,0.764,-0.626,-0.244,17682
0.078,0.76,-0.628,-0.427,17686
0.073,0.766,-0.632,-0.305,17690
0.076,0.759,-0.63,-0.122,17694
0.077,0.76,-0.625,-0.305,17698
0.079,0.76,-0.624,0.305,17702
0.075,0.763,-0.627,-0.366,17706
0.074,0.761,-0.627,-0.122,17710
0.079,0.763,-0.626,-0.061,17714
0.076,0.764,-0.629,0.122,17718
0.075,0.76,-0.626,-0.122,17723
0.078,0.761,-0.632,-0.244,17726
0.075,0.76,-0.631,-0.549,17730
0.075,0.765,-0.634,-0.549,17734
0.076,0.761,-0.628,-0.122,17738
0.073,0.759,-0.629,0.061,17742
0.072,0.761,-0.629,-0.366,17746
0.075,0.761,-0.627,-0.122,17750
0.075,0.761,-0.626,0.183,17754
0.079,0.759,-0.629,0.305,17758
0.077,0.758,-0.631,0.183,17762
0.078,0.762,-0.63,0.122,17766
0.076,0.766,-0.624,-0.671,17770
0.08,0.763,-0.625,-0.366,17774
0.075,0.761,-0.626,-0.366,17778
0.075,0.762,-0.63,-0.305,17782
0.075,0.768,-0.629,-0.671,17786
0.076,0.762,-0.628,-0.061,17790
0.077,0.762,-0.631,0.061,17794
0.073,0.765,-0.627,0.183,17798
0.073,0.762,-0.626,0.183,17802
0.075,0.763,-0.627,0.061,17806
0.076,0.765,-0.631,-0.061,17810
0.072,0.769,-0.63,-0.732,17814
0.076,0.762,-0.629,-0.366,17818
0.071,0.761,-0.625,-0.549,17822
0.077,0.763,-0.628,-0.305,17826
0.08,0.761,-0.627,-0.061,17830
0.076,0.763,-0.629,-0.183,17834
0.078,0.763,-0.629,0.122,17838
0.076,0.763,-0.63,-0.122,17842
0.075,0.765,-0.627,-0.061,17846
0.072,0.76,-0.627,-0.366,17850
0.077,0.764,-0.633,-0.366,17854
0.073,0.763,-0.629,-0.183,17858
0.08,0.76,-0.628,0.0,17862
0.08,0.762,-0.634,-0.366,17866
0.078,0.762,-0.629,-0.061,17870
0.081,0.762,-0.626,-0.427,17874
0.079,0.763,-0.628,-0.244,17878
0.077,0.761,-0.627,-0.366,17882
0.079,0.762,-0.625,-0.61,17886
0.076,0.76,-0.63,-0.488,17890
0.074,0.763,-0.624,-0.366,17894
0.074,0.762,-0.627,-0.122,17898
0.077,0.763,-0.625,-0.061,17902
0.074,0.763,-0.622,0.244,17906
0.077,0.764,-0.625,0.305,17910
0.077,0.762,-0.628,0.305,17914
0.079,0.762,-0.629,-0.061,17918
0.077,0.761,-0.623,-0.305,17922
0.075,0.761,-0.631,-0.244,17926
0.08,0.763,-0.627,-0.183,17931
0.082,0.762,-0.629,-0.488,17934
0.075,0.764,-0.624,-0.366,17938
0.078,0.765,-0.629,-0.183,17942
0.077,0.765,-0.628,-0.061,17946
0.073,0.763,-0.626,-0.366,17950
0.077,0.762,-0.63,-0.305,17955
0.077,0.761,-0.63,-0.061,17958
0.077,0.759,-0.63,-0.122,17962
0.078,0.763,-0.625,-0.061,17966
0.075,0.765,-0.627,0.122,17970
0.077,0.762,-0.626,0.061,17974
0.074,0.761,-0.628,-0.061,17979
0.079,0.76,-0.627,-0.183,17983
0.075,0.761,-0.626,-0.244,17987
0.077,0.76,-0.627,-0.427,17990
0.075,0.762,-0.629,-0.183,17994
0.076,0.759,-0.628,-0.305,17999
0.074,0.76,-0.626,-0.244,18003
0.074,0.763,-0.628,-0.061,18006
0.073,0.761,-0.628,-0.122,18010
0.078,0.764,-0.63,-0.122,18015
0.078,0.762,-0.629,0.183,18019
0.077,0.766,-0.627,-0.061,18023
0.076,0.762,-0.633,-0.061,18027
0.074,0.764,-0.63,-0.244,18031
0.078,0.764,-0.635,-0.061,18035
0.073,0.764,-0.625,-0.244,18039
0.081,0.763,-0.625,-0.244,18042
0.075,0.764,-0.627,-0.244,18046
0.077,0.762,-0.627,-0.244,18050
0.076,0.764,-0.624,-0.061,18054
0.075,0.765,-0.627,-0.305,18059
0.078,0.761,-0.627,-0.183,18063
0.076,0.765,-0.621,0.122,18067
0.075,0.764,-0.625,-0.183,18071
0.081,0.761,-0.623,-0.305,18075
0.077,0.763,-0.626,-0.305,18079
0.078,0.761,-0.629,-0.183,18083
0.08,0.76,-0.631,-0.244,18087
0.075,0.764,-0.625,-0.183,18091
0.073,0.764,-0.628,0.0,18095
0.078,0.759,-0.627,0.061,18098
0.079,0.766,-0.627,0.122,18103
0.073,0.766,-0.632,0.183,18107
0.075,0.767,-0.627,0.0,18111
0.075,0.764,-0.629,-0.244,18115
0.077,0.762,-0.625,-0.183,18119
0.078,0.763,-0.63,-0.305,18123
0.072,0.766,-0.629,-0.061,18127
0.08,0.76,-0.632,-0.122,18131
0.073,0.766,-0.628,-0.122,18135
0.076,0.761,-0.626,0.0,18139
0.077,0.76,-0.63,-0.122,18143
0.078,0.761,-0.63,0.122,18146
0.074,0.761,-0.625,0.061,18151
0.077,0.763,-0.631,-0.366,18155
0.075,0.763,-0.627,-0.366,18159
0.077,0.766,-0.624,-0.366,18162
0.08,0.765,-0.628,-0.427,18166
0.076,0.765,-0.631,-0.305,18170
0.072,0.764,-0.633,-0.122,18174
0.078,0.764,-0.628,-0.366,18178
0.077,0.764,-0.626,0.244,18182
0.078,0.76,-0.629,-0.122,18187
0.074,0.763,-0.631,0.183,18190
0.073,0.765,-0.63,-0.122,18195
0.071,0.765,-0.629,0.122,18198
0.075,0.76,-0.633,-0.244,18203
0.074,0.765,-0.626,0.061,18206
0.075,0.766,-0.628,-0.061,18210
0.074,0.762,-0.625,-0.061,18214
