Acc_X,Acc_Y,Acc_Z,Rot_Z,Millis
-0.005,0.37,0.92,-0.305,16867.0
-0.003,0.373,0.922,-0.183,16888.0
-0.0,0.373,0.925,-0.183,16908.0
-0.002,0.371,0.926,-0.183,16927.0
-0.001,0.372,0.922,0.0,16946.0
-0.003,0.371,0.925,0.061,16964.0
-0.004,0.374,0.921,-0.366,16982.0
-0.002,0.371,0.922,-0.244,17005.0
-0.001,0.374,0.921,-0.183,17024.0
0.001,0.375,0.92,-0.427,17042.0
0.002,0.374,0.926,-0.366,17062.0
-0.006,0.371,0.926,-0.366,17082.0
-0.003,0.371,0.92,-0.305,17101.0
-0.006,0.37,0.924,-0.061,17120.0
-0.0,0.372,0.921,-0.061,17140.0
-0.003,0.375,0.92,-0.366,17159.0
-0.0,0.37,0.922,-0.122,17179.0
-0.0,0.372,0.924,-0.061,17200.0
-0.003,0.371,0.926,-0.183,17220.0
-0.002,0.375,0.924,-0.122,17239.0
-0.003,0.372,0.923,-0.244,17262.0
-0.003,0.369,0.925,-0.183,17283.0
-0.002,0.372,0.921,-0.122,17304.0
0.001,0.371,0.922,0.0,17324.0
-0.004,0.373,0.925,-0.366,17344.0
-0.005,0.374,0.924,-0.305,17364.0
-0.0,0.37,0.925,-0.244,17384.0
0.002,0.37,0.922,-0.244,17408.0
-0.001,0.367,0.925,0.122,17427.0
-0.002,0.371,0.924,-0.061,17447.0
-0.004,0.373,0.922,-0.305,17471.0
-0.005,0.374,0.928,-0.122,17490.0
-0.006,0.371,0.921,-0.305,17512.0
-0.001,0.373,0.925,-0.122,17535.0
-0.001,0.371,0.925,-0.427,17554.0
0.001,0.374,0.925,-0.061,17574.0
-0.001,0.373,0.925,-0.366,17593.0
-0.003,0.372,0.926,-0.122,17612.0
0.001,0.374,0.922,0.0,17631.0
-0.003,0.371,0.923,-0.122,17650.0
-0.005,0.375,0.924,0.0,17673.0
0.003,0.368,0.925,-0.244,17694.0
-0.005,0.369,0.927,-0.244,17714.0
-0.005,0.37,0.925,-0.366,17735.0
-0.004,0.37,0.927,0.0,17753.0
-0.004,0.373,0.927,-0.305,17773.0
0.0,0.372,0.925,-0.366,17794.0
-0.002,0.372,0.922,-0.244,17816.0
-0.002,0.369,0.926,-0.244,17835.0
-0.004,0.372,0.923,-0.122,17853.0
-0.003,0.371,0.924,-0.061,17872.0
-0.003,0.371,0.926,-0.061,17891.0
-0.002,0.372,0.925,-0.183,17909.0
-0.005,0.371,0.923,-0.183,17930.0
-0.001,0.37,0.924,-0.061,17948.0
-0.002,0.371,0.923,-0.122,17967.0
-0.002,0.371,0.927,-0.366,17989.0
-0.002,0.37,0.925,-0.122,18007.0
-0.0,0.373,0.923,-0.244,18027.0
-0.005,0.374,0.924,-0.183,18047.0
0.002,0.372,0.927,-0.183,18067.0
0.001,0.37,0.924,-0.366,18086.0
0.0,0.372,0.924,-0.122,18104.0
-0.003,0.371,0.926,-0.244,18125.0
-0.003,0.372,0.924,-0.305,18144.0
-0.002,0.372,0.923,-0.244,18166.0
-0.002,0.37,0.926,-0.305,18188.0
0.0,0.37,0.924,-0.061,18207.0
-0.003,0.371,0.922,-0.122,18228.0
-0.002,0.372,0.925,0.0,18248.0
-0.003,0.371,0.927,-0.244,18267.0
-0.005,0.373,0.923,-0.122,18288.0
-0.003,0.371,0.926,-0.183,18308.0
-0.002,0.373,0.925,-0.122,18329.0
0.0,0.371,0.923,-0.183,18347.0
-0.0,0.373,0.924,-0.122,18365.0
-0.0,0.376,0.917,-0.305,18383.0
-0.002,0.371,0.922,-0.061,18403.0
0.0,0.371,0.921,-0.244,18421.0
-0.001,0.369,0.925,-0.122,18444.0
0.002,0.371,0.925,-0.244,18464.0
-0.001,0.369,0.926,-0.183,18484.0
-0.002,0.37,0.924,-0.183,18505.0
-0.004,0.374,0.924,-0.122,18524.0
-0.003,0.371,0.926,-0.244,18545.0
-0.001,0.37,0.922,-0.183,18564.0
-0.002,0.368,0.925,-0.183,18582.0
-0.002,0.372,0.926,-0.366,18602.0
-0.003,0.374,0.921,-0.183,18622.0
0.0,0.373,0.923,-0.305,18642.0
-0.003,0.369,0.927,-0.183,18665.0
0.001,0.373,0.925,-0.244,18683.0
-0.0,0.372,0.924,-0.244,18704.0
-0.002,0.371,0.926,-0.061,18724.0
-0.002,0.373,0.924,-0.244,18745.0
0.002,0.37,0.927,-0.183,18765.0
-0.0,0.371,0.927,-0.122,18783.0
-0.005,0.373,0.92,-0.122,18801.0
-0.003,0.375,0.926,-0.305,18820.0
-0.0,0.37,0.926,0.061,18839.0
0.0,0.372,0.925,-0.183,18859.0
0.0,0.37,0.925,-0.244,18877.0
-0.001,0.37,0.924,-0.122,18897.0
-0.002,0.375,0.919,-0.122,18915.0
0.001,0.373,0.928,-0.244,18936.0
-0.002,0.37,0.923,-0.244,18955.0
-0.001,0.371,0.923,-0.061,18974.0
-0.003,0.371,0.924,-0.244,18997.0
-0.004,0.369,0.926,-0.305,19014.0
-0.003,0.37,0.921,-0.244,19034.0
-0.003,0.373,0.922,-0.061,19056.0
-0.003,0.373,0.923,-0.183,19076.0
0.0,0.371,0.924,-0.366,19096.0
-0.003,0.369,0.922,0.0,19115.0
-0.001,0.373,0.923,-0.122,19135.0
-0.002,0.373,0.926,-0.244,19158.0
-0.0,0.375,0.922,-0.549,19177.0
-0.001,0.372,0.925,-0.305,19202.0
-0.005,0.372,0.924,-0.122,19222.0
-0.005,0.371,0.926,-0.305,19242.0
-0.001,0.37,0.924,-0.366,19262.0
-0.002,0.368,0.925,-0.305,19282.0
-0.0,0.369,0.923,-0.061,19300.0
0.0,0.372,0.928,-0.305,19320.0
-0.002,0.371,0.923,-0.244,19338.0
-0.001,0.37,0.922,-0.183,19356.0
-0.002,0.37,0.922,-0.122,19375.0
-0.002,0.371,0.924,-0.244,19395.0
-0.001,0.372,0.923,-0.183,19415.0
-0.004,0.37,0.922,-0.183,19434.0
-0.0,0.37,0.922,-0.122,19455.0
-0.004,0.375,0.923,-0.122,19474.0
-0.003,0.373,0.921,-0.122,19495.0
-0.003,0.372,0.922,-0.122,19513.0
0.0,0.37,0.92,-0.244,19531.0
-0.002,0.371,0.922,0.061,19549.0
-0.001,0.369,0.925,-0.427,19571.0
-0.0,0.373,0.925,-0.122,19591.0
-0.001,0.37,0.924,-0.183,19610.0
0.002,0.371,0.926,-0.061,19630.0
-0.005,0.372,0.921,-0.244,19648.0
-0.004,0.37,0.922,-0.244,19669.0
-0.004,0.37,0.923,-0.244,19689.0
-0.002,0.372,0.923,-0.244,19709.0
-0.0,0.372,0.923,-0.122,19732.0
-0.001,0.372,0.922,-0.183,19752.0
-0.003,0.371,0.923,-0.305,19771.0
-0.002,0.371,0.921,-0.061,19792.0
-0.003,0.371,0.923,-0.305,19812.0
0.001,0.37,0.924,-0.122,19834.0
-0.003,0.371,0.925,0.122,19852.0
0.0,0.375,0.921,-0.305,19874.0
-0.002,0.371,0.927,-0.122,19895.0
-0.004,0.374,0.923,-0.061,19915.0
-0.0,0.375,0.926,-0.244,19935.0
-0.004,0.371,0.921,-0.244,19956.0
0.003,0.368,0.927,-0.122,19975.0
-0.004,0.371,0.925,-0.183,19996.0
-0.003,0.372,0.926,-0.427,20017.0
-0.0,0.368,0.922,-0.244,20036.0
0.0,0.369,0.923,-0.183,20056.0
-0.004,0.372,0.922,-0.183,20078.0
-0.001,0.371,0.925,-0.244,20100.0
-0.005,0.371,0.931,-0.366,20119.0
0.0,0.371,0.922,-0.122,20140.0
0.002,0.37,0.925,-0.183,20160.0
-0.002,0.371,0.927,-0.122,20179.0
-0.001,0.368,0.924,-0.122,20199.0
-0.002,0.37,0.924,-0.244,20217.0
0.001,0.372,0.921,-0.183,20236.0
-0.005,0.371,0.923,0.0,20254.0
-0.001,0.373,0.923,-0.183,20273.0
-0.004,0.369,0.925,-0.122,20293.0
-0.003,0.371,0.926,-0.244,20313.0
-0.0,0.368,0.922,-0.244,20332.0
-0.004,0.372,0.926,-0.183,20351.0
-0.001,0.372,0.924,-0.061,20374.0
-0.001,0.37,0.923,-0.183,20394.0
-0.005,0.373,0.923,-0.305,20413.0
-0.003,0.37,0.925,-0.244,20433.0
-0.003,0.371,0.927,-0.244,20451.0
-0.003,0.37,0.924,-0.061,20471.0
-0.003,0.371,0.923,-0.122,20493.0
0.0,0.37,0.926,0.0,20512.0
-0.004,0.369,0.925,-0.244,20532.0
-0.002,0.371,0.922,-0.061,20551.0
-0.005,0.367,0.922,-0.427,20569.0
-0.003,0.372,0.925,-0.366,20591.0
-0.003,0.37,0.923,-0.061,20610.0
-0.001,0.371,0.923,-0.183,20632.0
-0.003,0.37,0.92,-0.244,20651.0
-0.004,0.373,0.925,-0.366,20669.0
-0.001,0.371,0.923,-0.244,20690.0
-0.0,0.367,0.925,-0.183,20710.0
-0.003,0.372,0.923,-0.244,20728.0
-0.001,0.37,0.923,-0.122,20746.0
-0.001,0.371,0.922,-0.122,20765.0
-0.0,0.373,0.926,-0.183,20788.0
-0.003,0.372,0.922,-0.305,20807.0
-0.002,0.368,0.927,-0.122,20827.0
0.0,0.372,0.922,0.0,20847.0
-0.001,0.369,0.923,-0.183,20867.0
-0.002,0.371,0.924,-0.122,20888.0
-0.006,0.369,0.927,-0.061,20907.0
-0.003,0.371,0.927,-0.061,20926.0
-0.004,0.372,0.925,-0.244,20944.0
0.0,0.371,0.924,-0.061,20965.0
-0.001,0.375,0.922,-0.305,20984.0
-0.003,0.372,0.921,-0.244,21009.0
-0.002,0.37,0.923,-0.366,21028.0
-0.002,0.371,0.922,-0.122,21046.0
-0.001,0.373,0.922,-0.122,21067.0
-0.002,0.37,0.925,-0.244,21086.0
0.001,0.369,0.924,-0.305,21106.0
-0.001,0.369,0.926,-0.183,21125.0
-0.002,0.372,0.927,-0.122,21145.0
-0.001,0.368,0.923,-0.183,21164.0
-0.002,0.371,0.925,-0.244,21186.0
0.0,0.371,0.927,-0.305,21206.0
0.001,0.368,0.924,-0.244,21226.0
0.0,0.374,0.923,-0.183,21244.0
-0.003,0.371,0.926,-0.305,21264.0
-0.003,0.369,0.921,-0.244,21283.0
0.001,0.373,0.923,0.0,21303.0
0.0,0.367,0.922,-0.366,21323.0
-0.002,0.37,0.924,-0.061,21342.0
-0.005,0.372,0.922,-0.183,21360.0
0.0,0.372,0.924,-0.122,21380.0
-0.003,0.372,0.925,-0.244,21402.0
-0.003,0.37,0.922,-0.061,21421.0
-0.003,0.368,0.925,-0.122,21441.0
-0.003,0.374,0.921,-0.183,21461.0
-0.004,0.373,0.927,-0.061,21481.0
0.0,0.371,0.924,-0.366,21502.0
-0.001,0.368,0.924,-0.244,21522.0
0.0,0.371,0.925,-0.183,21541.0
0.001,0.371,0.923,-0.244,21560.0
0.0,0.372,0.923,-0.305,21578.0
-0.0,0.372,0.923,0.0,21596.0
-0.003,0.373,0.925,-0.122,21617.0
0.003,0.371,0.922,-0.122,21638.0
-0.004,0.373,0.923,-0.061,21658.0
0.0,0.371,0.925,-0.183,21678.0
-0.002,0.367,0.923,0.061,21698.0
0.001,0.371,0.923,-0.061,21717.0
-0.001,0.372,0.926,-0.244,21742.0
-0.002,0.373,0.924,-0.244,21761.0
-0.002,0.372,0.92,-0.122,21782.0
-0.001,0.37,0.923,-0.061,21802.0
-0.002,0.369,0.925,-0.122,21821.0
-0.001,0.37,0.922,-0.122,21842.0
-0.001,0.369,0.927,-0.305,21861.0
-0.005,0.368,0.926,-0.122,21881.0
-0.0,0.372,0.925,-0.366,21899.0
-0.001,0.369,0.923,-0.122,21922.0
-0.0,0.373,0.922,-0.061,21940.0
-0.001,0.371,0.924,-0.061,21959.0
-0.006,0.371,0.925,-0.244,21977.0
0.0,0.369,0.924,-0.061,21995.0
0.0,0.369,0.924,-0.183,22013.0
-0.003,0.366,0.923,-0.183,22032.0
-0.003,0.369,0.925,-0.183,22054.0
0.0,0.371,0.925,-0.122,22072.0
-0.003,0.371,0.923,-0.244,22091.0
-0.001,0.371,0.925,-0.244,22110.0
0.001,0.371,0.922,-0.183,22130.0
0.0,0.372,0.924,-0.183,22150.0
-0.002,0.368,0.926,-0.183,22170.0
-0.003,0.37,0.928,-0.122,22188.0
-0.004,0.372,0.927,-0.061,22206.0
-0.001,0.37,0.925,-0.183,22227.0
0.002,0.372,0.927,-0.366,22245.0
-0.002,0.368,0.925,-0.244,22266.0
-0.002,0.37,0.924,-0.305,22285.0
-0.003,0.372,0.927,-0.366,22304.0
-0.003,0.372,0.92,-0.427,22324.0
-0.003,0.371,0.921,-0.244,22345.0
-0.001,0.37,0.924,-0.183,22364.0
0.002,0.371,0.921,-0.122,22384.0
-0.004,0.372,0.927,-0.244,22404.0
-0.005,0.373,0.923,-0.244,22423.0
-0.002,0.372,0.926,-0.122,22443.0
-0.002,0.375,0.923,-0.244,22464.0
0.001,0.371,0.925,-0.305,22482.0
-0.002,0.368,0.924,-0.183,22502.0
-0.002,0.373,0.922,-0.183,22524.0
-0.004,0.374,0.921,-0.366,22544.0
-0.006,0.372,0.924,-0.183,22564.0
-0.004,0.373,0.925,-0.244,22584.0
-0.004,0.37,0.924,-0.305,22604.0
-0.001,0.369,0.921,0.0,22624.0
-0.003,0.37,0.922,-0.122,22644.0
-0.001,0.375,0.925,-0.244,22662.0
-0.002,0.372,0.926,-0.305,22685.0
-0.0,0.371,0.923,-0.183,22703.0
0.0,0.371,0.924,-0.305,22722.0
-0.004,0.372,0.926,-0.244,22741.0
-0.003,0.375,0.926,-0.183,22763.0
-0.002,0.369,0.922,0.0,22783.0
-0.001,0.371,0.926,-0.366,22801.0
-0.002,0.369,0.927,-0.061,22819.0
-0.0,0.372,0.926,-0.183,22843.0
-0.001,0.372,0.926,-0.549,22862.0
-0.001,0.371,0.922,-0.305,22882.0
-0.0,0.371,0.925,-0.244,22902.0
-0.0,0.372,0.924,-0.061,22921.0
0.002,0.372,0.921,-0.305,22941.0
-0.004,0.374,0.923,-0.183,22961.0
-0.003,0.37,0.925,-0.183,22979.0
-0.003,0.37,0.922,-0.061,22998.0
-0.002,0.373,0.924,-0.061,23018.0
-0.002,0.37,0.926,-0.061,23040.0
-0.001,0.371,0.923,-0.061,23059.0
-0.002,0.371,0.925,-0.122,23081.0
0.001,0.369,0.925,-0.305,23100.0
0.0,0.37,0.924,0.0,23120.0
-0.0,0.37,0.923,-0.244,23143.0
-0.004,0.369,0.926,0.0,23160.0
-0.002,0.371,0.924,-0.305,23181.0
-0.003,0.372,0.925,-0.183,23201.0
-0.001,0.369,0.926,-0.122,23221.0
-0.002,0.37,0.924,-0.366,23241.0
-0.001,0.372,0.924,-0.183,23259.0
-0.001,0.37,0.92,0.0,23281.0
-0.002,0.373,0.922,0.0,23299.0
-0.002,0.371,0.922,-0.244,23319.0
-0.001,0.373,0.924,-0.366,23339.0
-0.005,0.37,0.925,-0.183,23360.0
-0.005,0.371,0.926,-0.244,23378.0
0.0,0.372,0.922,-0.244,23399.0
-0.001,0.372,0.921,-0.244,23418.0
-0.002,0.371,0.926,-0.183,23438.0
-0.003,0.372,0.926,0.061,23457.0
-0.002,0.371,0.924,-0.122,23476.0
-0.003,0.37,0.927,-0.061,23494.0
-0.002,0.371,0.928,-0.183,23516.0
-0.004,0.373,0.926,-0.061,23537.0
-0.001,0.372,0.925,-0.122,23556.0
0.001,0.369,0.922,-0.183,23575.0
-0.001,0.373,0.925,-0.122,23594.0
-0.002,0.373,0.923,-0.122,23617.0
-0.002,0.372,0.924,-0.183,23639.0
-0.002,0.37,0.922,-0.366,23658.0
0.0,0.371,0.923,-0.183,23678.0
-0.004,0.372,0.925,-0.122,23699.0
-0.004,0.373,0.927,-0.305,23719.0
-0.004,0.375,0.921,-0.061,23737.0
0.0,0.371,0.926,-0.122,23756.0
-0.001,0.371,0.927,-0.122,23774.0
-0.002,0.37,0.923,-0.305,23796.0
-0.0,0.37,0.922,-0.122,23814.0
-0.006,0.373,0.923,-0.244,23833.0
-0.001,0.367,0.923,-0.122,23854.0
-0.003,0.37,0.925,-0.183,23875.0
-0.002,0.37,0.925,-0.183,23897.0
-0.001,0.369,0.923,-0.244,23916.0
-0.003,0.371,0.924,-0.183,23936.0
-0.0,0.373,0.924,-0.183,23955.0
-0.0,0.367,0.924,-0.244,23977.0
-0.003,0.371,0.924,-0.183,23999.0
-0.001,0.372,0.928,-0.244,24022.0
-0.002,0.371,0.921,-0.183,24041.0
-0.003,0.371,0.925,-0.244,24060.0
0.0,0.375,0.922,-0.061,24078.0
-0.004,0.372,0.925,0.0,24097.0
-0.002,0.371,0.923,-0.183,24115.0
0.0,0.37,0.923,0.0,24135.0
0.0,0.371,0.926,-0.122,24155.0
-0.003,0.371,0.926,-0.244,24177.0
-0.002,0.373,0.921,-0.061,24197.0
-0.001,0.368,0.926,-0.244,24219.0
-0.003,0.37,0.924,-0.061,24240.0
-0.003,0.368,0.921,-0.244,24259.0
-0.001,0.37,0.924,-0.183,24281.0
-0.002,0.373,0.925,-0.183,24301.0
-0.001,0.37,0.924,-0.183,24320.0
-0.004,0.369,0.923,-0.366,24339.0
0.0,0.372,0.922,-0.122,24362.0
-0.002,0.371,0.924,-0.122,24382.0
-0.003,0.369,0.92,-0.122,24402.0
-0.003,0.368,0.926,-0.122,24421.0
-0.001,0.372,0.925,-0.244,24443.0
-0.002,0.369,0.923,-0.122,24462.0
0.002,0.37,0.927,-0.122,24480.0
-0.003,0.369,0.926,-0.244,24499.0
-0.003,0.371,0.926,-0.061,24521.0
-0.002,0.371,0.925,-0.122,24539.0
-0.0,0.372,0.922,0.061,24560.0
0.0,0.373,0.926,-0.061,24582.0
-0.003,0.373,0.924,-0.122,24601.0
-0.001,0.371,0.923,-0.183,24622.0
-0.002,0.37,0.921,-0.061,24640.0
-0.002,0.372,0.922,-0.122,24658.0
-0.001,0.374,0.923,-0.122,24678.0
-0.001,0.372,0.923,-0.061,24698.0
0.001,0.369,0.92,-0.305,24716.0
-0.006,0.368,0.921,-0.122,24740.0
-0.004,0.371,0.924,-0.122,24758.0
-0.002,0.371,0.924,-0.122,24777.0
-0.001,0.373,0.92,-0.305,24797.0
-0.003,0.369,0.928,-0.061,24817.0
-0.001,0.373,0.927,-0.061,24838.0
-0.005,0.371,0.926,-0.122,24856.0
-0.001,0.37,0.924,-0.061,24875.0
-0.002,0.371,0.925,-0.305,24898.0
-0.004,0.37,0.925,-0.244,24917.0
-0.001,0.373,0.923,-0.183,24938.0
-0.001,0.372,0.924,-0.244,24958.0
-0.001,0.372,0.925,-0.427,24982.0
-0.001,0.368,0.922,-0.366,25005.0
-0.0,0.371,0.925,0.0,25026.0
-0.001,0.369,0.925,-0.122,25046.0
-0.004,0.373,0.924,-0.061,25066.0
-0.0,0.373,0.925,-0.061,25090.0
0.001,0.37,0.921,-0.183,25110.0
0.002,0.371,0.927,-0.183,25130.0
-0.002,0.371,0.925,-0.183,25148.0
-0.001,0.373,0.924,-0.244,25166.0
-0.005,0.372,0.923,-0.244,25184.0
-0.004,0.373,0.927,-0.305,25203.0
-0.007,0.369,0.924,-0.122,25223.0
-0.004,0.37,0.924,-0.244,25243.0
-0.001,0.371,0.924,-0.366,25264.0
0.0,0.37,0.922,-0.366,25285.0
-0.003,0.371,0.922,-0.244,25306.0
0.0,0.371,0.925,-0.244,25325.0
-0.001,0.371,0.925,-0.244,25343.0
-0.002,0.37,0.918,-0.183,25363.0
-0.002,0.373,0.923,-0.183,25382.0
-0.0,0.374,0.924,-0.244,25405.0
-0.001,0.373,0.925,-0.244,25424.0
-0.001,0.373,0.925,-0.061,25446.0
-0.003,0.369,0.924,-0.427,25465.0
-0.003,0.372,0.923,-0.122,25485.0
-0.003,0.371,0.925,-0.244,25505.0
-0.004,0.37,0.921,-0.244,25523.0
-0.002,0.373,0.926,0.0,25541.0
-0.001,0.37,0.923,-0.183,25561.0
-0.003,0.371,0.922,-0.183,25581.0
0.003,0.369,0.923,-0.061,25602.0
0.001,0.372,0.924,-0.122,25623.0
-0.001,0.369,0.924,0.122,25644.0
-0.002,0.371,0.924,-0.366,25664.0
-0.002,0.372,0.921,-0.183,25682.0
0.0,0.372,0.926,-0.061,25701.0
0.001,0.372,0.921,-0.305,25720.0
-0.003,0.372,0.924,-0.366,25742.0
-0.001,0.371,0.924,-0.244,25762.0
-0.004,0.37,0.923,-0.244,25781.0
-0.004,0.374,0.925,-0.366,25799.0
-0.004,0.37,0.924,-0.244,25817.0
-0.002,0.37,0.926,-0.244,25836.0
-0.001,0.368,0.923,-0.122,25854.0
-0.003,0.372,0.923,-0.061,25872.0
-0.001,0.373,0.921,-0.244,25892.0
-0.001,0.372,0.921,-0.122,25911.0
-0.003,0.373,0.925,-0.244,25931.0
-0.003,0.37,0.925,-0.122,25949.0
-0.002,0.371,0.926,-0.183,25967.0
-0.002,0.371,0.923,-0.122,25985.0
-0.002,0.371,0.924,-0.122,26006.0
-0.003,0.372,0.922,0.061,26025.0
-0.002,0.371,0.923,-0.122,26045.0
-0.001,0.372,0.925,-0.061,26065.0
0.001,0.37,0.92,-0.305,26086.0
-0.004,0.37,0.924,-0.183,26106.0
-0.003,0.372,0.924,-0.122,26127.0
-0.007,0.371,0.925,0.0,26147.0
0.0,0.37,0.927,-0.122,26167.0
-0.003,0.372,0.925,-0.305,26187.0
-0.004,0.371,0.925,-0.305,26204.0
-0.002,0.372,0.923,-0.122,26225.0
-0.001,0.37,0.925,-0.183,26245.0
0.002,0.372,0.922,-0.305,26265.0
0.002,0.37,0.924,-0.183,26284.0
0.0,0.37,0.922,-0.061,26302.0
-0.003,0.372,0.922,-0.183,26322.0
-0.003,0.37,0.93,-0.244,26340.0
-0.004,0.367,0.925,-0.183,26358.0
0.0,0.368,0.921,-0.366,26377.0
-0.002,0.37,0.924,-0.122,26396.0
-0.0,0.374,0.926,-0.122,26418.0
-0.001,0.374,0.924,-0.305,26438.0
-0.004,0.37,0.924,-0.244,26459.0
-0.003,0.37,0.925,0.0,26479.0
-0.001,0.371,0.924,-0.244,26500.0
-0.0,0.371,0.927,-0.244,26520.0
-0.001,0.371,0.921,-0.122,26540.0
-0.003,0.374,0.923,-0.061,26558.0
-0.007,0.375,0.924,-0.061,26578.0
-0.004,0.371,0.92,-0.244,26596.0
-0.004,0.37,0.924,-0.061,26616.0
-0.001,0.371,0.925,-0.122,26641.0
-0.005,0.37,0.923,-0.122,26659.0
-0.006,0.371,0.927,-0.244,26678.0
-0.001,0.372,0.924,-0.244,26697.0
0.0,0.372,0.926,-0.244,26717.0
-0.0,0.372,0.928,-0.122,26739.0
-0.001,0.368,0.926,-0.488,26760.0
-0.003,0.371,0.925,-0.183,26779.0
0.002,0.371,0.922,-0.244,26797.0
-0.001,0.369,0.926,-0.244,26817.0
0.0,0.372,0.925,-0.061,26839.0
0.0,0.37,0.924,-0.061,26859.0
-0.001,0.373,0.924,-0.183,26878.0
-0.003,0.373,0.922,-0.183,26898.0
0.0,0.371,0.926,0.122,26919.0
-0.002,0.371,0.923,-0.122,26941.0
0.0,0.372,0.92,-0.244,26961.0
-0.0,0.372,0.922,-0.183,26985.0
-0.001,0.37,0.926,-0.244,27003.0
0.001,0.37,0.922,-0.061,27024.0
-0.0,0.371,0.924,-0.244,27043.0
0.001,0.371,0.924,-0.183,27063.0
-0.004,0.373,0.925,-0.244,27084.0
0.0,0.37,0.927,-0.183,27102.0
0.0,0.372,0.925,-0.183,27122.0
-0.0,0.371,0.925,-0.244,27144.0
-0.005,0.371,0.922,-0.061,27162.0
-0.001,0.371,0.924,-0.427,27182.0
-0.001,0.371,0.92,-0.122,27202.0
-0.003,0.373,0.924,-0.122,27220.0
0.001,0.372,0.927,-0.183,27241.0
-0.002,0.371,0.923,-0.244,27260.0
0.001,0.372,0.924,-0.366,27278.0
-0.002,0.371,0.924,-0.305,27298.0
-0.002,0.371,0.922,-0.305,27317.0
-0.002,0.371,0.928,-0.122,27340.0
0.002,0.37,0.924,-0.061,27359.0
-0.002,0.368,0.923,-0.061,27377.0
-0.007,0.369,0.922,-0.244,27397.0
-0.005,0.372,0.926,-0.183,27415.0
0.0,0.375,0.922,-0.305,27436.0
0.001,0.372,0.925,-0.305,27456.0
0.0,0.371,0.924,-0.366,27475.0
-0.003,0.372,0.924,-0.244,27495.0
-0.004,0.369,0.927,-0.366,27514.0
-0.002,0.373,0.926,-0.183,27536.0
-0.005,0.37,0.924,-0.183,27555.0
-0.003,0.372,0.925,-0.305,27573.0
-0.002,0.373,0.924,-0.122,27592.0
-0.001,0.372,0.923,-0.122,27611.0
-0.001,0.371,0.925,-0.244,27630.0
-0.001,0.37,0.923,-0.305,27648.0
-0.002,0.369,0.923,-0.305,27669.0
-0.003,0.368,0.921,-0.305,27689.0
-0.003,0.371,0.925,-0.244,27707.0
-0.001,0.37,0.922,-0.122,27726.0
-0.002,0.369,0.925,-0.244,27747.0
-0.001,0.374,0.929,-0.244,27767.0
-0.003,0.37,0.924,-0.061,27789.0
-0.003,0.371,0.927,-0.122,27809.0
-0.003,0.37,0.92,-0.183,27829.0
-0.003,0.372,0.92,-0.061,27850.0
-0.001,0.371,0.923,-0.305,27869.0
0.001,0.371,0.921,-0.122,27887.0
-0.003,0.367,0.924,-0.122,27907.0
-0.003,0.373,0.924,-0.427,27925.0
-0.005,0.369,0.922,-0.366,27944.0
-0.001,0.372,0.924,-0.366,27964.0
-0.004,0.369,0.926,-0.183,27982.0
-0.0,0.37,0.926,-0.183,28001.0
-0.003,0.371,0.927,-0.305,28021.0
-0.001,0.37,0.923,-0.122,28041.0
-0.001,0.371,0.924,-0.305,28064.0
-0.001,0.372,0.926,-0.183,28083.0
-0.003,0.373,0.927,-0.183,28103.0
-0.002,0.372,0.924,0.0,28123.0
0.0,0.37,0.919,-0.305,28143.0
-0.004,0.371,0.924,-0.183,28165.0
-0.001,0.369,0.926,-0.244,28183.0
-0.002,0.374,0.926,-0.183,28203.0
-0.005,0.372,0.928,-0.305,28221.0
-0.003,0.371,0.923,-0.305,28239.0
-0.002,0.373,0.929,-0.122,28259.0
-0.001,0.372,0.924,-0.122,28280.0
-0.005,0.369,0.924,-0.061,28298.0
-0.002,0.372,0.927,-0.122,28319.0
-0.004,0.37,0.925,-0.366,28337.0
0.0,0.371,0.926,-0.183,28356.0
-0.004,0.372,0.921,-0.122,28377.0
-0.001,0.37,0.925,0.061,28396.0
-0.001,0.372,0.927,0.0,28416.0
-0.002,0.372,0.92,-0.305,28435.0
0.0,0.373,0.927,-0.183,28456.0
-0.002,0.37,0.923,-0.183,28475.0
-0.003,0.369,0.925,0.0,28494.0
-0.001,0.372,0.923,-0.122,28513.0
-0.005,0.371,0.923,-0.061,28531.0
-0.001,0.372,0.924,-0.244,28550.0
-0.002,0.369,0.923,-0.244,28571.0
0.0,0.37,0.924,-0.305,28590.0
-0.005,0.368,0.923,0.0,28610.0
-0.003,0.372,0.925,-0.183,28629.0
-0.008,0.37,0.922,-0.183,28648.0
-0.003,0.369,0.922,-0.061,28667.0
-0.002,0.37,0.923,-0.427,28686.0
-0.001,0.37,0.918,-0.183,28705.0
-0.003,0.371,0.921,-0.122,28725.0
-0.004,0.372,0.924,0.0,28744.0
-0.001,0.373,0.924,-0.305,28766.0
0.001,0.37,0.923,-0.244,28785.0
-0.001,0.371,0.925,-0.122,28803.0
-0.003,0.369,0.924,-0.061,28821.0
0.0,0.372,0.922,-0.061,28839.0
-0.002,0.368,0.923,-0.122,28857.0
-0.002,0.369,0.924,-0.183,28878.0
0.001,0.372,0.923,0.0,28896.0
-0.004,0.37,0.921,-0.061,28914.0
0.0,0.367,0.925,-0.244,28933.0
0.001,0.367,0.924,-0.244,28953.0
-0.001,0.368,0.924,-0.244,28971.0
0.0,0.372,0.922,-0.244,28992.0
-0.002,0.371,0.921,-0.305,29013.0
-0.002,0.367,0.924,-0.183,29033.0
-0.003,0.373,0.928,-0.122,29051.0
-0.005,0.37,0.927,-0.122,29070.0
-0.005,0.371,0.923,-0.244,29089.0
-0.0,0.372,0.924,-0.244,29110.0
-0.002,0.371,0.924,-0.183,29129.0
-0.001,0.372,0.923,-0.061,29147.0
-0.018,0.361,0.912,-0.793,29166.0
0.006,0.373,0.923,0.488,29186.0
-0.001,0.372,0.927,-0.183,29205.0
-0.001,0.374,0.922,-0.427,29224.0
-0.004,0.373,0.923,-0.061,29244.0
-0.007,0.372,0.923,-0.183,29264.0
-0.002,0.374,0.926,0.0,29284.0
-0.004,0.372,0.924,-0.244,29304.0
-0.0,0.372,0.926,0.061,29322.0
0.001,0.371,0.925,-0.061,29342.0
0.001,0.37,0.919,-0.061,29360.0
0.003,0.374,0.922,0.0,29378.0
0.001,0.371,0.926,-0.061,29396.0
-0.001,0.368,0.921,-0.061,29416.0
-0.0,0.371,0.924,-0.061,29435.0
0.0,0.37,0.923,-0.061,29454.0
0.007,0.375,0.925,0.0,29472.0
0.002,0.375,0.92,-0.122,29491.0
-0.0,0.376,0.922,-0.244,29513.0
-0.003,0.374,0.93,-0.122,29531.0
-0.005,0.369,0.926,-0.244,29550.0
-0.007,0.364,0.925,-0.488,29568.0
0.001,0.373,0.922,0.122,29590.0
-0.001,0.368,0.923,-0.244,29608.0
0.004,0.372,0.927,0.183,29628.0
0.001,0.373,0.924,0.061,29647.0
0.003,0.37,0.928,-0.061,29665.0
0.004,0.376,0.926,0.244,29683.0
-0.008,0.364,0.909,-0.305,29705.0
-0.0,0.371,0.915,-0.061,29723.0
-0.001,0.372,0.923,-0.183,29745.0
-0.002,0.374,0.919,-0.183,29763.0
-0.002,0.369,0.933,-0.366,29786.0
-0.007,0.366,0.924,-0.671,29805.0
0.001,0.365,0.928,-0.305,29824.0
0.005,0.368,0.928,-0.305,29845.0
0.003,0.368,0.934,-0.061,29863.0
0.003,0.364,0.919,-0.061,29881.0
-0.003,0.372,0.924,0.427,29899.0
-0.003,0.376,0.923,0.061,29919.0
-0.001,0.371,0.919,-0.305,29939.0
0.005,0.37,0.924,-0.061,29961.0
0.001,0.367,0.92,-0.244,29984.0
-0.001,0.372,0.924,-0.122,30004.0
-0.002,0.373,0.921,-0.305,30024.0
-0.003,0.373,0.922,-0.061,30046.0
0.001,0.371,0.927,0.0,30065.0
0.002,0.37,0.928,-0.122,30085.0
-0.002,0.373,0.918,-0.305,30104.0
-0.003,0.371,0.923,-0.122,30124.0
-0.001,0.37,0.925,-0.305,30144.0
-0.002,0.367,0.929,-0.122,30162.0
0.003,0.371,0.923,-0.244,30182.0
0.005,0.37,0.925,-0.183,30202.0
-0.001,0.369,0.924,-0.427,30225.0
-0.002,0.373,0.926,-0.061,30243.0
-0.006,0.371,0.921,-0.061,30263.0
-0.003,0.369,0.921,0.0,30281.0
-0.001,0.368,0.923,-0.244,30300.0
0.001,0.372,0.925,-0.061,30318.0
-0.0,0.368,0.925,-0.183,30338.0
0.0,0.368,0.923,-0.122,30356.0
-0.001,0.372,0.926,-0.061,30377.0
0.001,0.368,0.919,-0.244,30395.0
-0.001,0.372,0.923,-0.122,30414.0
0.0,0.372,0.926,-0.122,30433.0
-0.001,0.371,0.924,-0.183,30451.0
-0.006,0.369,0.926,-0.366,30476.0
-0.009,0.369,0.924,-0.244,30494.0
-0.01,0.362,0.922,-0.549,30513.0
0.0,0.367,0.93,-0.122,30533.0
-0.002,0.368,0.921,-0.244,30554.0
-0.004,0.377,0.93,-0.244,30574.0
0.003,0.371,0.93,0.122,30594.0
-0.001,0.366,0.922,-0.061,30613.0
-0.003,0.369,0.927,-0.122,30632.0
-0.0,0.373,0.928,-0.305,30650.0
-0.003,0.371,0.923,-0.183,30668.0
0.001,0.374,0.928,-0.244,30686.0
-0.003,0.371,0.922,-0.122,30704.0
-0.005,0.37,0.927,-0.183,30728.0
0.002,0.368,0.924,-0.061,30746.0
0.003,0.369,0.924,-0.183,30765.0
0.001,0.374,0.926,-0.305,30784.0
0.0,0.372,0.924,-0.244,30803.0
-0.003,0.371,0.921,-0.305,30823.0
-0.004,0.368,0.928,-0.122,30842.0
0.001,0.369,0.921,-0.244,30862.0
0.001,0.371,0.922,-0.305,30881.0
-0.0,0.375,0.921,-0.366,30901.0
-0.007,0.372,0.925,-0.183,30921.0
-0.004,0.369,0.926,-0.061,30941.0
-0.005,0.37,0.924,-0.183,30959.0
0.001,0.373,0.93,-0.061,30979.0
0.0,0.372,0.926,-0.122,30999.0
0.001,0.368,0.921,-0.305,31018.0
-0.001,0.37,0.927,-0.183,31038.0
-0.001,0.37,0.922,-0.122,31057.0
-0.002,0.371,0.923,0.061,31076.0
0.002,0.371,0.923,-0.061,31096.0
0.004,0.373,0.918,-0.244,31114.0
-0.002,0.374,0.923,-0.122,31137.0
-0.002,0.371,0.924,-0.366,31157.0
-0.005,0.37,0.923,-0.244,31180.0
0.0,0.37,0.926,-0.244,31198.0
0.002,0.373,0.923,-0.549,31218.0
-0.002,0.371,0.926,-0.183,31238.0
-0.001,0.369,0.92,-0.183,31257.0
-0.001,0.37,0.924,-0.122,31277.0
-0.005,0.37,0.927,-0.305,31296.0
-0.002,0.371,0.928,0.122,31316.0
-0.001,0.373,0.922,-0.183,31336.0
-0.004,0.372,0.921,-0.183,31354.0
-0.003,0.371,0.925,-0.122,31372.0
-0.003,0.372,0.921,-0.305,31392.0
-0.003,0.372,0.924,-0.183,31414.0
-0.001,0.366,0.925,-0.244,31435.0
0.001,0.369,0.926,-0.122,31455.0
-0.002,0.368,0.925,-0.183,31476.0
0.001,0.37,0.924,-0.122,31499.0
-0.003,0.37,0.925,-0.305,31520.0
-0.003,0.374,0.922,-0.122,31542.0
0.0,0.374,0.923,-0.061,31561.0
-0.001,0.375,0.925,-0.122,31579.0
-0.001,0.372,0.923,-0.183,31598.0
0.0,0.37,0.924,0.0,31616.0
-0.004,0.371,0.924,-0.244,31635.0
0.001,0.373,0.922,-0.122,31656.0
-0.001,0.371,0.924,-0.061,31674.0
0.0,0.373,0.922,-0.061,31694.0
-0.001,0.369,0.924,-0.244,31713.0
-0.007,0.37,0.924,-0.244,31733.0
-0.0,0.371,0.925,-0.244,31752.0
-0.001,0.371,0.922,0.0,31771.0
-0.001,0.372,0.926,-0.122,31793.0
-0.003,0.372,0.926,-0.183,31811.0
0.001,0.371,0.927,-0.244,31831.0
0.002,0.371,0.922,-0.244,31852.0
-0.0,0.37,0.921,0.061,31873.0
-0.003,0.372,0.92,-0.122,31896.0
0.001,0.371,0.924,-0.183,31916.0
-0.001,0.368,0.92,-0.244,31937.0
0.001,0.37,0.924,-0.244,31957.0
-0.0,0.374,0.925,-0.183,31976.0
-0.004,0.37,0.924,-0.244,31996.0
-0.001,0.372,0.925,-0.244,32018.0
-0.001,0.369,0.92,-0.305,32038.0
0.002,0.372,0.923,-0.244,32060.0
0.001,0.371,0.924,-0.366,32080.0
0.0,0.372,0.925,-0.122,32099.0
-0.004,0.371,0.923,-0.061,32119.0
0.0,0.37,0.929,-0.244,32137.0
-0.004,0.371,0.923,-0.244,32158.0
-0.002,0.372,0.928,-0.061,32177.0
-0.003,0.373,0.925,0.0,32196.0
-0.004,0.372,0.924,-0.061,32216.0
-0.003,0.373,0.923,-0.183,32233.0
-0.002,0.37,0.925,-0.122,32257.0
-0.001,0.368,0.925,-0.122,32275.0
-0.001,0.368,0.924,-0.244,32293.0
0.002,0.369,0.919,-0.061,32314.0
-0.003,0.371,0.919,0.061,32332.0
0.003,0.372,0.924,-0.366,32354.0
-0.003,0.37,0.926,-0.61,32375.0
-0.001,0.373,0.924,-0.427,32395.0
-0.003,0.373,0.925,-0.305,32418.0
-0.0,0.372,0.927,-0.244,32438.0
-0.002,0.373,0.927,-0.183,32460.0
-0.002,0.373,0.926,-0.366,32478.0
-0.0,0.375,0.929,-0.244,32500.0
-0.004,0.368,0.924,-0.366,32524.0
-0.002,0.367,0.927,-0.122,32542.0
0.0,0.37,0.93,0.0,32563.0
-0.0,0.367,0.931,-0.366,32581.0
-0.003,0.372,0.928,-0.427,32601.0
-0.001,0.373,0.924,-0.366,32621.0
0.0,0.375,0.924,-0.183,32640.0
-0.003,0.372,0.925,-0.122,32659.0
-0.002,0.372,0.924,-0.061,32681.0
0.0,0.365,0.923,-0.122,32702.0
-0.003,0.372,0.924,-0.183,32725.0
-0.001,0.376,0.922,-0.122,32744.0
-0.002,0.368,0.927,-0.183,32767.0
-0.0,0.37,0.927,-0.122,32787.0
-0.003,0.371,0.929,-0.488,32807.0
-0.003,0.373,0.924,-0.427,32825.0
-0.002,0.37,0.924,-0.244,32843.0
-0.003,0.374,0.921,-0.183,32861.0
0.001,0.369,0.921,-0.122,32881.0
-0.0,0.371,0.924,-0.122,32900.0
-0.004,0.373,0.925,-0.305,32918.0
-0.005,0.375,0.925,-0.305,32937.0
0.0,0.371,0.924,-0.244,32957.0
-0.001,0.371,0.925,-0.183,32975.0
0.0,0.365,0.926,-0.183,32995.0
-0.0,0.37,0.928,-0.183,33013.0
-0.001,0.372,0.925,-0.183,33031.0
-0.006,0.372,0.924,-0.122,33049.0
-0.001,0.371,0.92,-0.183,33072.0
-0.002,0.371,0.921,-0.305,33091.0
0.001,0.369,0.926,-0.183,33111.0
-0.006,0.37,0.926,-0.183,33130.0
-0.004,0.372,0.926,-0.183,33148.0
-0.003,0.371,0.923,-0.061,33168.0
-0.0,0.37,0.922,-0.122,33188.0
0.0,0.372,0.921,-0.244,33208.0
-0.0,0.37,0.923,-0.061,33227.0
-0.002,0.374,0.92,0.0,33247.0
-0.004,0.37,0.922,0.122,33266.0
-0.0,0.372,0.926,-0.244,33288.0
-0.001,0.371,0.927,-0.244,33311.0
-0.002,0.369,0.928,-0.122,33330.0
-0.004,0.373,0.922,-0.427,33351.0
-0.004,0.37,0.921,0.0,33372.0
-0.004,0.37,0.926,-0.183,33393.0
-0.004,0.375,0.922,-0.122,33415.0
-0.001,0.369,0.922,-0.122,33436.0
0.0,0.373,0.92,-0.061,33454.0
-0.001,0.376,0.925,-0.122,33476.0
-0.001,0.371,0.927,-0.183,33495.0
-0.001,0.372,0.921,-0.183,33515.0
0.0,0.369,0.922,-0.305,33533.0
-0.001,0.372,0.926,-0.244,33553.0
-0.002,0.372,0.922,-0.183,33572.0
-0.002,0.37,0.922,-0.122,33591.0
-0.003,0.374,0.924,0.0,33611.0
-0.001,0.37,0.922,-0.305,33632.0
-0.003,0.372,0.922,-0.122,33652.0
0.0,0.373,0.926,-0.183,33670.0
-0.001,0.37,0.926,-0.061,33688.0
-0.003,0.372,0.923,-0.305,33708.0
-0.002,0.369,0.924,-0.305,33728.0
-0.001,0.37,0.921,-0.061,33746.0
-0.004,0.37,0.923,-0.061,33764.0
-0.004,0.376,0.922,-0.183,33783.0
-0.003,0.375,0.92,-0.061,33801.0
-0.002,0.371,0.923,0.0,33821.0
-0.002,0.371,0.927,-0.244,33839.0
-0.005,0.371,0.923,-0.366,33857.0
0.001,0.373,0.926,-0.183,33877.0
-0.005,0.371,0.924,-0.183,33900.0
-0.003,0.371,0.924,-0.244,33918.0
0.0,0.368,0.922,-0.122,33937.0
-0.001,0.371,0.926,-0.122,33957.0
-0.003,0.37,0.922,-0.305,33975.0
-0.0,0.372,0.925,-0.061,33994.0
0.001,0.371,0.924,-0.366,34012.0
-0.003,0.372,0.925,-0.183,34032.0
-0.002,0.371,0.924,-0.183,34050.0
-0.003,0.371,0.926,-0.122,34068.0
-0.0,0.373,0.925,-0.122,34089.0
-0.002,0.371,0.923,-0.305,34108.0
-0.003,0.373,0.922,-0.305,34127.0
-0.006,0.368,0.923,-0.122,34148.0
0.001,0.372,0.926,-0.366,34167.0
0.0,0.369,0.926,-0.061,34185.0
-0.001,0.369,0.923,-0.061,34205.0
-0.001,0.372,0.924,-0.183,34223.0
-0.0,0.37,0.924,-0.183,34241.0
-0.003,0.372,0.926,-0.061,34260.0
-0.002,0.374,0.924,0.122,34278.0
-0.002,0.372,0.922,0.0,34296.0
-0.004,0.367,0.922,-0.183,34318.0
-0.001,0.369,0.923,-0.061,34337.0
0.0,0.375,0.926,-0.244,34361.0
-0.002,0.371,0.928,-0.122,34382.0
-0.004,0.371,0.922,-0.061,34403.0
-0.005,0.373,0.92,-0.122,34421.0
-0.003,0.373,0.923,-0.183,34441.0
-0.002,0.37,0.922,-0.427,34462.0
-0.006,0.369,0.923,-0.122,34486.0
-0.004,0.37,0.924,-0.183,34507.0
-0.006,0.373,0.924,-0.366,34527.0
0.0,0.372,0.928,-0.366,34546.0
-0.0,0.37,0.925,-0.061,34567.0
-0.002,0.373,0.924,-0.183,34586.0
0.0,0.371,0.922,-0.305,34605.0
-0.004,0.372,0.924,0.0,34625.0
0.001,0.37,0.923,-0.305,34643.0
-0.0,0.37,0.926,-0.122,34663.0
-0.0,0.368,0.924,-0.244,34681.0
-0.005,0.37,0.922,-0.244,34701.0
-0.0,0.37,0.921,-0.183,34723.0
-0.002,0.37,0.925,-0.305,34745.0
0.0,0.366,0.923,-0.305,34768.0
-0.002,0.372,0.922,-0.183,34788.0
-0.003,0.373,0.923,-0.183,34807.0
0.001,0.372,0.924,-0.183,34827.0
-0.003,0.371,0.922,-0.061,34846.0
-0.004,0.371,0.926,-0.366,34865.0
0.002,0.371,0.927,-0.122,34887.0
-0.002,0.372,0.928,-0.183,34905.0
-0.002,0.37,0.927,-0.122,34925.0
-0.004,0.368,0.922,-0.122,34944.0
-0.003,0.368,0.923,-0.305,34962.0
0.003,0.372,0.926,-0.244,34980.0
0.002,0.369,0.923,-0.061,34999.0
0.001,0.372,0.925,-0.122,35019.0
-0.001,0.37,0.929,-0.427,35038.0
-0.005,0.371,0.935,-0.061,35061.0
-0.003,0.37,0.921,-0.183,35081.0
-0.002,0.369,0.933,-0.122,35099.0
-0.003,0.37,0.923,-0.183,35121.0
-0.004,0.371,0.922,-0.366,35142.0
0.002,0.371,0.926,-0.244,35160.0
0.001,0.371,0.924,-0.122,35181.0
0.001,0.372,0.93,-0.183,35200.0
-0.003,0.372,0.926,-0.183,35222.0
-0.0,0.371,0.922,-0.244,35242.0
-0.0,0.37,0.928,-0.244,35261.0
-0.002,0.37,0.927,-0.122,35283.0
-0.003,0.371,0.927,-0.183,35302.0
-0.006,0.367,0.928,-0.183,35324.0
-0.001,0.37,0.925,-0.122,35343.0
0.0,0.371,0.923,-0.122,35365.0
-0.002,0.369,0.924,-0.061,35385.0
0.0,0.37,0.921,-0.061,35405.0
0.0,0.37,0.923,-0.183,35426.0
-0.002,0.37,0.924,-0.122,35446.0
-0.003,0.37,0.923,-0.122,35465.0
-0.004,0.369,0.927,-0.183,35486.0
-0.001,0.366,0.926,-0.183,35504.0
-0.003,0.37,0.925,-0.366,35523.0
0.0,0.373,0.924,-0.427,35542.0
-0.002,0.371,0.921,-0.305,35560.0
-0.005,0.37,0.923,-0.183,35579.0
-0.002,0.37,0.926,-0.061,35597.0
-0.007,0.37,0.924,0.0,35615.0
0.001,0.37,0.924,-0.305,35635.0
-0.002,0.373,0.922,-0.244,35653.0
-0.002,0.373,0.921,-0.244,35673.0
-0.003,0.374,0.923,-0.244,35693.0
-0.003,0.373,0.922,-0.122,35711.0
-0.0,0.372,0.927,-0.305,35729.0
0.001,0.372,0.923,-0.305,35748.0
0.0,0.368,0.922,-0.183,35767.0
-0.003,0.371,0.927,0.0,35787.0
-0.003,0.368,0.924,-0.305,35807.0
-0.002,0.369,0.925,-0.305,35828.0
-0.008,0.368,0.926,-0.366,35849.0
-0.002,0.369,0.927,-0.122,35868.0
-0.005,0.371,0.921,-0.122,35886.0
-0.003,0.373,0.922,-0.183,35905.0
-0.003,0.37,0.919,-0.061,35927.0
-0.001,0.374,0.924,0.122,35950.0
-0.003,0.374,0.923,-0.122,35970.0
0.003,0.371,0.925,-0.366,35991.0
-0.001,0.373,0.922,-0.122,36012.0
-0.004,0.373,0.921,0.061,36032.0
-0.004,0.37,0.921,-0.183,36054.0
-0.004,0.372,0.924,-0.061,36072.0
-0.001,0.372,0.925,0.0,36092.0
-0.001,0.371,0.926,-0.183,36111.0
0.0,0.37,0.922,-0.122,36131.0
-0.004,0.371,0.919,-0.122,36151.0
-0.001,0.369,0.923,-0.488,36169.0
-0.002,0.369,0.923,-0.183,36187.0
-0.003,0.372,0.922,-0.305,36205.0
-0.002,0.37,0.923,-0.061,36226.0
-0.005,0.372,0.925,-0.244,36246.0
-0.001,0.368,0.927,0.0,36266.0
-0.003,0.37,0.923,-0.305,36287.0
-0.0,0.371,0.923,-0.183,36305.0
-0.001,0.372,0.923,-0.122,36324.0
-0.005,0.369,0.924,-0.244,36344.0
-0.001,0.371,0.923,-0.305,36363.0
-0.003,0.37,0.924,-0.061,36384.0
0.002,0.371,0.924,0.061,36402.0
-0.006,0.372,0.923,-0.244,36422.0
-0.002,0.369,0.923,-0.183,36440.0
-0.005,0.375,0.925,-0.305,36460.0
-0.005,0.371,0.924,-0.122,36478.0
-0.003,0.372,0.923,-0.244,36497.0
-0.002,0.368,0.924,-0.366,36515.0
-0.004,0.371,0.927,-0.122,36533.0
-0.001,0.368,0.928,-0.305,36553.0
0.0,0.368,0.925,-0.061,36574.0
-0.001,0.369,0.923,-0.183,36593.0
-0.003,0.372,0.926,-0.122,36614.0
-0.003,0.373,0.92,-0.366,36635.0
-0.002,0.372,0.921,-0.183,36656.0
-0.001,0.374,0.925,-0.061,36677.0
-0.002,0.372,0.921,-0.183,36697.0
-0.005,0.372,0.922,0.0,36718.0
0.002,0.371,0.924,-0.366,36739.0
-0.004,0.37,0.924,-0.122,36759.0
-0.006,0.372,0.923,-0.122,36778.0
-0.005,0.371,0.922,-0.183,36796.0
-0.002,0.369,0.924,-0.305,36815.0
-0.001,0.371,0.922,-0.061,36834.0
-0.003,0.371,0.922,-0.305,36853.0
0.0,0.373,0.922,-0.061,36874.0
0.001,0.374,0.921,-0.122,36893.0
-0.002,0.373,0.923,-0.183,36912.0
-0.002,0.371,0.921,-0.183,36933.0
-0.0,0.373,0.923,-0.122,36951.0
-0.002,0.373,0.927,-0.183,36973.0
-0.003,0.37,0.924,-0.244,36994.0
-0.0,0.371,0.922,-0.183,37014.0
-0.0,0.372,0.923,-0.427,37033.0
0.0,0.371,0.921,-0.122,37053.0
-0.0,0.369,0.924,-0.122,37072.0
-0.0,0.376,0.925,-0.183,37090.0
-0.001,0.374,0.922,-0.244,37110.0
-0.002,0.37,0.92,0.0,37130.0
-0.003,0.374,0.927,0.0,37149.0
0.001,0.37,0.924,-0.061,37170.0
-0.0,0.37,0.925,-0.244,37188.0
-0.003,0.371,0.923,0.061,37206.0
-0.004,0.371,0.922,0.0,37226.0
-0.003,0.368,0.926,-0.183,37247.0
-0.004,0.371,0.923,-0.183,37268.0
0.001,0.37,0.922,0.0,37288.0
0.0,0.371,0.922,-0.183,37306.0
-0.003,0.37,0.925,-0.183,37328.0
-0.0,0.37,0.923,-0.183,37348.0
-0.0,0.37,0.927,-0.244,37367.0
-0.004,0.372,0.923,-0.061,37386.0
-0.0,0.372,0.923,-0.183,37407.0
-0.001,0.371,0.924,-0.122,37429.0
-0.004,0.371,0.924,-0.061,37449.0
-0.001,0.369,0.92,-0.183,37468.0
-0.003,0.373,0.927,-0.183,37487.0
-0.003,0.371,0.924,-0.183,37508.0
-0.002,0.371,0.924,-0.122,37527.0
-0.001,0.368,0.923,-0.427,37548.0
-0.004,0.37,0.925,-0.244,37569.0
-0.003,0.372,0.921,-0.183,37586.0
-0.0,0.371,0.921,-0.122,37606.0
-0.001,0.372,0.925,-0.183,37627.0
0.0,0.372,0.926,-0.244,37645.0
-0.003,0.371,0.922,-0.183,37665.0
-0.005,0.371,0.927,-0.305,37689.0
-0.003,0.373,0.924,-0.122,37710.0
-0.003,0.37,0.925,-0.061,37733.0
-0.003,0.369,0.923,-0.122,37752.0
-0.001,0.373,0.927,-0.183,37770.0
-0.004,0.369,0.922,-0.305,37790.0
-0.003,0.369,0.923,-0.122,37808.0
-0.003,0.369,0.922,-0.305,37828.0
0.0,0.371,0.922,-0.122,37847.0
-0.006,0.375,0.918,-0.122,37866.0
-0.002,0.373,0.928,-0.244,37886.0
0.0,0.37,0.925,-0.366,37904.0
-0.002,0.369,0.919,-0.122,37923.0
-0.003,0.37,0.924,-0.122,37944.0
-0.001,0.368,0.922,-0.061,37962.0
-0.002,0.375,0.922,-0.244,37984.0
-0.003,0.37,0.922,-0.305,38004.0
-0.003,0.371,0.921,-0.183,38022.0
0.0,0.37,0.922,-0.183,38041.0
-0.002,0.37,0.925,-0.183,38059.0
0.0,0.369,0.923,-0.244,38080.0
0.003,0.369,0.925,-0.183,38101.0
-0.004,0.372,0.923,-0.122,38122.0
-0.003,0.372,0.926,-0.244,38142.0
-0.003,0.371,0.926,-0.244,38162.0
0.0,0.37,0.925,-0.183,38180.0
0.001,0.373,0.928,-0.305,38199.0
-0.001,0.371,0.923,-0.061,38220.0
-0.003,0.371,0.923,-0.183,38238.0
0.001,0.37,0.923,-0.305,38258.0
0.0,0.37,0.922,-0.244,38278.0
-0.001,0.371,0.921,-0.183,38297.0
-0.003,0.37,0.922,-0.244,38316.0
-0.002,0.368,0.924,0.061,38334.0
-0.005,0.372,0.926,0.0,38354.0
-0.001,0.37,0.922,-0.122,38372.0
-0.002,0.372,0.923,-0.244,38393.0
0.0,0.371,0.922,-0.305,38412.0
-0.001,0.371,0.923,-0.122,38432.0
-0.005,0.373,0.924,-0.305,38450.0
-0.003,0.37,0.927,-0.305,38474.0
-0.002,0.372,0.925,-0.183,38499.0
-0.002,0.371,0.924,-0.183,38518.0
0.001,0.372,0.924,-0.122,38538.0
-0.003,0.37,0.925,-0.183,38562.0
-0.005,0.372,0.924,-0.366,38582.0
0.0,0.371,0.924,-0.183,38600.0
0.001,0.37,0.922,-0.305,38620.0
-0.003,0.371,0.926,-0.061,38640.0
-0.002,0.372,0.922,-0.244,38660.0
-0.0,0.368,0.924,-0.061,38680.0
-0.002,0.374,0.923,-0.305,38700.0
-0.004,0.373,0.923,-0.122,38720.0
-0.0,0.372,0.924,-0.244,38740.0
-0.001,0.373,0.927,-0.122,38759.0
-0.005,0.368,0.922,-0.244,38779.0
-0.003,0.372,0.925,-0.244,38798.0
0.0,0.37,0.924,-0.061,38819.0
-0.001,0.37,0.922,-0.122,38840.0
-0.003,0.369,0.926,-0.305,38861.0
0.0,0.37,0.922,-0.122,38880.0
-0.002,0.369,0.925,-0.183,38899.0
-0.003,0.373,0.924,-0.122,38923.0
0.001,0.371,0.927,0.061,38942.0
-0.001,0.372,0.92,-0.183,38961.0
-0.001,0.37,0.924,-0.305,38982.0
-0.005,0.368,0.921,-0.183,39000.0
-0.002,0.37,0.924,-0.183,39019.0
-0.001,0.371,0.921,-0.183,39038.0
-0.001,0.372,0.924,-0.122,39060.0
-0.0,0.369,0.923,-0.183,39082.0
-0.0,0.368,0.923,-0.366,39100.0
-0.0,0.371,0.925,-0.122,39121.0
-0.003,0.371,0.923,0.0,39140.0
-0.001,0.369,0.925,-0.244,39161.0
-0.001,0.373,0.924,-0.061,39180.0
-0.003,0.372,0.922,-0.183,39201.0
-0.001,0.37,0.921,-0.244,39224.0
-0.003,0.37,0.922,0.0,39243.0
-0.001,0.372,0.924,-0.244,39263.0
-0.004,0.371,0.923,-0.183,39282.0
-0.006,0.371,0.925,-0.122,39304.0
0.0,0.37,0.93,-0.183,39325.0
-0.003,0.373,0.925,-0.183,39343.0
-0.0,0.373,0.923,-0.122,39361.0
-0.003,0.373,0.922,-0.122,39379.0
-0.001,0.371,0.925,-0.122,39397.0
-0.002,0.37,0.92,-0.122,39416.0
-0.001,0.372,0.924,-0.183,39438.0
-0.002,0.37,0.924,-0.427,39459.0
0.002,0.37,0.923,-0.183,39478.0
-0.003,0.37,0.924,-0.244,39497.0
-0.003,0.372,0.924,-0.244,39516.0
-0.004,0.37,0.923,-0.305,39537.0
-0.003,0.37,0.922,-0.183,39558.0
-0.002,0.374,0.923,-0.244,39578.0
-0.005,0.373,0.924,-0.122,39597.0
-0.001,0.371,0.925,-0.366,39618.0
-0.001,0.373,0.925,-0.244,39638.0
-0.004,0.37,0.929,0.0,39658.0
-0.005,0.369,0.923,-0.122,39679.0
-0.001,0.367,0.923,-0.183,39701.0
0.0,0.369,0.926,0.0,39720.0
-0.003,0.369,0.922,-0.183,39743.0
0.0,0.372,0.925,-0.305,39761.0
-0.003,0.371,0.922,-0.244,39783.0
-0.002,0.371,0.925,-0.061,39802.0
0.0,0.372,0.927,-0.183,39822.0
-0.002,0.371,0.92,-0.183,39842.0
0.001,0.374,0.925,0.122,39862.0
-0.002,0.372,0.927,-0.244,39882.0
0.001,0.371,0.921,-0.366,39900.0
-0.003,0.371,0.924,-0.183,39920.0
-0.003,0.37,0.925,-0.183,39941.0
0.0,0.37,0.923,0.0,39959.0
-0.001,0.371,0.926,0.0,39979.0
-0.003,0.37,0.923,-0.183,39999.0
0.001,0.369,0.927,-0.122,40020.0
-0.0,0.372,0.925,-0.183,40040.0
-0.002,0.372,0.921,-0.122,40060.0
-0.002,0.373,0.921,-0.305,40078.0
-0.001,0.372,0.921,-0.122,40100.0
-0.001,0.37,0.927,-0.122,40119.0
-0.001,0.371,0.926,-0.183,40140.0
0.001,0.371,0.922,-0.427,40161.0
-0.0,0.371,0.922,-0.061,40180.0
-0.003,0.372,0.923,-0.122,40200.0
-0.001,0.368,0.923,-0.122,40218.0
-0.004,0.372,0.924,-0.061,40243.0
-0.005,0.367,0.924,-0.244,40262.0
-0.001,0.37,0.923,-0.061,40282.0
0.001,0.37,0.923,-0.366,40301.0
0.0,0.369,0.924,-0.061,40319.0
-0.004,0.375,0.92,-0.305,40338.0
-0.0,0.369,0.926,-0.061,40357.0
-0.002,0.37,0.922,0.0,40377.0
-0.0,0.372,0.922,-0.122,40396.0
0.0,0.373,0.927,-0.122,40416.0
-0.002,0.374,0.925,-0.244,40437.0
-0.004,0.373,0.924,-0.183,40456.0
-0.004,0.369,0.925,-0.183,40475.0
0.0,0.372,0.925,-0.244,40494.0
-0.003,0.37,0.925,-0.061,40512.0
-0.001,0.371,0.922,-0.244,40532.0
0.0,0.372,0.921,-0.183,40554.0
0.0,0.375,0.923,-0.122,40572.0
-0.003,0.372,0.924,-0.244,40595.0
-0.002,0.368,0.923,-0.122,40613.0
-0.004,0.368,0.927,-0.488,40631.0
-0.001,0.372,0.925,-0.061,40653.0
-0.0,0.371,0.924,-0.305,40674.0
-0.003,0.371,0.925,-0.183,40692.0
-0.001,0.367,0.922,-0.366,40711.0
-0.004,0.371,0.921,-0.183,40732.0
-0.004,0.372,0.924,-0.183,40752.0
-0.002,0.375,0.923,-0.183,40770.0
-0.001,0.374,0.923,0.061,40789.0
-0.002,0.373,0.922,0.122,40808.0
-0.002,0.371,0.923,-0.183,40826.0
-0.004,0.375,0.924,0.0,40846.0
-0.002,0.369,0.925,-0.183,40868.0
0.001,0.371,0.925,-0.183,40888.0
-0.002,0.371,0.926,-0.244,40910.0
0.002,0.373,0.924,-0.061,40928.0
-0.002,0.37,0.923,-0.244,40947.0
-0.0,0.372,0.922,-0.183,40968.0
-0.003,0.371,0.926,-0.305,40988.0
0.0,0.37,0.924,-0.244,41009.0
-0.001,0.368,0.923,-0.122,41029.0
-0.006,0.368,0.923,-0.366,41047.0
-0.003,0.371,0.921,0.0,41067.0
-0.002,0.37,0.922,-0.183,41086.0
-0.001,0.37,0.928,-0.122,41106.0
0.0,0.37,0.922,-0.122,41126.0
-0.001,0.371,0.921,-0.122,41146.0
-0.002,0.369,0.923,-0.305,41165.0
-0.002,0.371,0.923,0.0,41183.0
0.0,0.37,0.923,-0.305,41201.0
-0.003,0.372,0.923,-0.122,41225.0
-0.001,0.371,0.926,-0.061,41244.0
0.0,0.371,0.926,-0.244,41265.0
-0.005,0.37,0.922,-0.244,41284.0
-0.003,0.372,0.923,-0.183,41304.0
-0.004,0.371,0.925,-0.061,41325.0
-0.003,0.373,0.923,-0.244,41343.0
-0.003,0.371,0.924,-0.244,41364.0
-0.0,0.37,0.922,-0.305,41383.0
-0.003,0.37,0.926,0.0,41404.0
-0.001,0.37,0.923,-0.366,41426.0
-0.002,0.371,0.923,-0.488,41444.0
0.0,0.369,0.923,-0.061,41465.0
0.0,0.374,0.923,-0.305,41487.0
-0.006,0.372,0.924,-0.183,41508.0
0.002,0.37,0.915,-0.183,41528.0
-0.003,0.369,0.922,-0.122,41546.0
-0.003,0.373,0.923,-0.183,41569.0
-0.004,0.376,0.925,-0.122,41587.0
-0.005,0.373,0.928,-0.183,41607.0
-0.006,0.367,0.925,0.122,41625.0
0.001,0.372,0.924,0.183,41643.0
-0.001,0.368,0.928,0.122,41664.0
-0.002,0.369,0.924,-0.122,41685.0
-0.004,0.368,0.932,-0.244,41704.0
-0.005,0.368,0.938,-0.183,41726.0
-0.007,0.364,0.931,-0.488,41746.0
-0.005,0.366,0.939,-0.427,41766.0
-0.002,0.379,0.939,-0.305,41786.0
0.001,0.37,0.921,-0.61,41806.0
0.0,0.373,0.905,0.305,41827.0
-0.011,0.365,0.923,-0.488,41849.0
0.004,0.396,0.915,0.0,41869.0
0.004,0.381,0.916,1.465,41889.0
0.023,0.382,0.946,0.732,41908.0
0.01,0.367,0.957,-0.732,41928.0
0.011,0.385,0.935,0.305,41947.0
-0.003,0.378,0.91,0.183,41967.0
-0.008,0.36,0.912,-0.549,41990.0
-0.002,0.381,0.909,0.854,42010.0
0.001,0.381,0.916,0.732,42028.0
0.327,0.365,0.901,-358.337,42046.0
0.004,0.362,0.955,-106.14,42066.0
-0.355,-0.033,1.091,-98.877,42086.0
-0.366,0.215,0.627,-93.75,42107.0
-0.482,-0.036,0.818,-17.639,42128.0
-0.452,-0.03,0.884,99.426,42147.0
-0.286,0.082,0.825,200.134,42168.0
0.552,1.185,1.923,228.149,42188.0
0.116,0.322,0.749,57.556,42206.0
0.119,0.469,0.839,-86.121,42225.0
0.023,0.517,0.992,-11.475,42243.0
-0.011,0.344,0.926,-5.31,42261.0
0.003,0.352,0.934,1.038,42285.0
0.003,0.35,0.932,-0.122,42304.0
0.003,0.349,0.94,-0.183,42325.0
0.105,0.431,0.948,-4.028,42345.0
-0.019,0.369,0.848,-46.692,42365.0
0.039,0.395,0.924,-74.768,42383.0
0.009,0.339,0.908,-84.106,42401.0
-0.108,0.344,0.979,-70.374,42420.0
-0.124,0.319,0.93,-21.545,42441.0
-0.11,0.292,0.897,-31.982,42461.0
0.587,0.219,0.971,-87.524,42482.0
0.316,0.482,0.821,129.944,42502.0
-0.728,0.578,0.359,-77.209,42522.0
-0.001,0.573,0.877,-311.707,42542.0
1.379,1.166,1.882,-159.546,42562.0
0.116,0.307,0.641,253.601,42583.0
-0.052,0.727,0.137,286.621,42604.0
0.226,0.876,0.977,105.286,42623.0
-1.58,1.455,1.325,-245.422,42642.0
0.438,0.745,1.027,-251.343,42662.0
0.588,0.492,0.74,-137.512,42682.0
0.47,0.383,0.66,-10.437,42708.0
0.497,0.294,0.835,-28.931,42727.0
0.481,0.279,0.793,-4.333,42745.0
0.576,0.05,0.589,33.142,42767.0
0.642,-0.405,0.654,43.579,42787.0
0.301,0.22,0.817,149.963,42808.0
0.404,0.31,0.694,100.22,42826.0
0.312,0.237,0.585,203.125,42845.0
0.069,0.692,0.523,253.052,42865.0
0.19,0.868,0.662,152.1,42883.0
0.347,1.011,0.74,134.46,42902.0
0.322,1.125,0.611,92.102,42920.0
0.097,2.156,0.489,-81.238,42940.0
0.082,1.028,0.505,-63.293,42959.0
0.176,0.832,0.547,-257.69,42978.0
0.319,0.729,0.656,-417.114,42997.0
0.524,0.638,0.681,-406.494,43017.0
0.634,0.508,0.665,-324.646,43039.0
0.608,0.19,0.62,-198.364,43060.0
0.549,0.436,0.516,-109.009,43080.0
0.48,0.349,0.464,-20.142,43100.0
0.452,0.448,0.44,102.051,43120.0
0.353,0.632,0.419,226.257,43139.0
0.244,0.967,0.48,359.192,43158.0
0.136,1.242,0.568,394.592,43178.0
0.094,1.239,0.755,288.208,43200.0
0.145,1.076,0.874,138.123,43219.0
0.129,0.936,0.851,25.452,43238.0
0.145,1.03,0.622,-135.864,43259.0
0.15,1.051,0.487,-263.245,43278.0
0.212,1.001,0.4,-314.27,43298.0
0.213,0.837,0.314,-288.208,43317.0
0.217,0.828,0.297,-222.961,43336.0
0.287,0.707,0.334,-123.291,43358.0
0.317,0.685,0.457,-14.099,43378.0
0.325,0.814,0.533,115.356,43398.0
0.221,0.888,0.589,226.196,43421.0
-0.603,1.077,1.345,57.983,43441.0
0.108,0.617,0.554,-8.667,43460.0
0.097,0.795,0.286,-34.729,43481.0
-0.09,0.399,0.367,-110.229,43502.0
-0.054,0.643,0.605,79.224,43525.0
-0.05,0.668,0.713,75.867,43543.0
-0.002,0.703,0.783,80.078,43561.0
0.614,0.25,1.673,-12.085,43579.0
-0.284,0.605,1.247,128.845,43599.0
-0.144,0.244,0.756,-40.771,43620.0
-0.047,1.008,0.623,-140.076,43638.0
0.174,0.593,0.982,-112.244,43657.0
0.062,0.29,0.871,-57.983,43678.0
0.004,0.343,0.999,-56.152,43696.0
-0.048,0.246,1.004,-9.155,43715.0
0.003,0.349,0.962,24.78,43735.0
0.01,0.375,0.904,18.921,43754.0
0.016,0.386,0.904,-3.235,43775.0
0.003,0.366,0.923,-15.442,43793.0
-0.015,0.338,0.948,-6.836,43815.0
-0.004,0.358,0.925,6.226,43835.0
0.012,0.374,0.917,4.028,43853.0
-0.006,0.357,0.938,-0.977,43873.0
0.003,0.364,0.923,-0.488,43893.0
-0.003,0.358,0.926,-0.183,43914.0
0.005,0.363,0.933,-0.061,43933.0
0.001,0.358,0.93,-0.305,43951.0
-0.001,0.361,0.932,-0.305,43970.0
0.004,0.362,0.932,-0.122,43991.0
-0.005,0.363,0.933,-0.427,44011.0
-0.012,0.356,0.927,-0.488,44032.0
-0.002,0.36,0.926,-0.305,44051.0
0.001,0.357,0.926,0.122,44069.0
-0.0,0.357,0.925,-0.122,44089.0
-0.003,0.362,0.933,-0.305,44107.0
0.0,0.359,0.926,-0.122,44130.0
-0.003,0.358,0.922,-0.061,44150.0
-0.002,0.359,0.931,-0.366,44171.0
0.002,0.361,0.927,-0.427,44189.0
-0.0,0.361,0.929,-0.183,44208.0
-0.009,0.36,0.929,-0.427,44230.0
-0.008,0.358,0.928,-0.244,44250.0
-0.004,0.357,0.926,-0.244,44270.0
-0.001,0.358,0.923,-0.244,44288.0
0.002,0.359,0.931,-0.366,44306.0
-0.0,0.362,0.931,-0.549,44326.0
-0.002,0.36,0.931,-0.488,44346.0
-0.004,0.36,0.929,-0.183,44365.0
0.0,0.364,0.93,-0.305,44386.0
0.0,0.36,0.93,-0.183,44404.0
0.001,0.361,0.93,-0.244,44430.0
0.0,0.358,0.93,-0.244,44450.0
-0.001,0.359,0.926,-0.305,44468.0
0.0,0.36,0.928,-0.366,44491.0
-0.003,0.36,0.929,-0.244,44510.0
0.0,0.36,0.93,-0.305,44528.0
-0.001,0.359,0.931,-0.305,44549.0
-0.001,0.36,0.928,-0.244,44567.0
-0.002,0.361,0.932,-0.366,44587.0
-0.006,0.358,0.929,-0.366,44605.0
-0.006,0.358,0.93,-0.427,44623.0
-0.002,0.362,0.923,-0.793,44645.0
-0.002,0.363,0.924,0.61,44663.0
-0.005,0.365,0.925,-4.517,44683.0
-0.007,0.36,0.928,3.357,44704.0
0.0,0.363,0.929,-1.099,44722.0
-0.002,0.357,0.929,2.136,44743.0
0.007,0.362,0.926,-0.427,44762.0
-0.001,0.356,0.933,-0.122,44781.0
-0.001,0.356,0.927,-0.61,44800.0
-0.003,0.357,0.93,-0.366,44820.0
-0.006,0.362,0.928,-0.732,44840.0
-0.008,0.365,0.921,0.183,44863.0
-0.01,0.362,0.928,-0.61,44881.0
-0.007,0.365,0.928,0.0,44901.0
-0.004,0.365,0.928,0.061,44919.0
-0.004,0.363,0.927,1.038,44940.0
0.0,0.363,0.925,0.244,44961.0
-0.002,0.364,0.927,-0.305,44981.0
-0.001,0.36,0.93,-0.183,45003.0
-0.002,0.364,0.925,0.0,45023.0
-0.004,0.364,0.926,-0.244,45043.0
-0.005,0.368,0.927,-0.244,45064.0
-0.008,0.363,0.923,-0.305,45083.0
-0.007,0.363,0.927,-0.122,45105.0
-0.003,0.364,0.928,-0.305,45124.0
-0.005,0.366,0.925,-0.122,45142.0
-0.006,0.364,0.923,0.061,45164.0
0.0,0.365,0.929,0.0,45183.0
-0.004,0.362,0.927,-0.061,45204.0
-0.004,0.361,0.931,0.549,45222.0
-0.003,0.364,0.924,1.16,45242.0
-0.003,0.367,0.923,1.038,45260.0
-0.005,0.366,0.927,0.061,45284.0
-0.003,0.369,0.928,-0.488,45304.0
-0.004,0.365,0.928,-0.366,45323.0
-0.005,0.366,0.928,-0.183,45341.0
0.0,0.367,0.929,-0.244,45362.0
0.0,0.364,0.925,-0.183,45381.0
-0.001,0.367,0.929,0.0,45402.0
-0.004,0.365,0.923,-0.122,45422.0
-0.005,0.366,0.926,-0.183,45440.0
-0.007,0.367,0.917,-0.244,45462.0
-0.003,0.373,0.922,0.122,45481.0
-0.002,0.366,0.931,-0.183,45501.0
-0.005,0.365,0.925,-0.061,45519.0
-0.005,0.365,0.931,0.916,45540.0
-0.006,0.363,0.923,-0.793,45561.0
-0.002,0.367,0.923,0.244,45581.0
-0.003,0.367,0.926,-0.488,45602.0
-0.002,0.366,0.924,-0.244,45620.0
0.0,0.368,0.927,-0.183,45642.0
-0.002,0.367,0.923,-0.244,45660.0
-0.002,0.365,0.927,-0.366,45680.0
-0.005,0.368,0.93,-0.366,45702.0
-0.005,0.365,0.928,-0.366,45722.0
-0.003,0.365,0.926,-0.183,45740.0
-0.004,0.365,0.926,-0.244,45759.0
-0.006,0.367,0.924,-0.183,45780.0
-0.005,0.365,0.92,-0.061,45799.0
-0.001,0.366,0.929,-0.183,45820.0
0.002,0.371,0.925,-0.244,45843.0
0.001,0.364,0.924,-0.122,45864.0
-0.001,0.364,0.929,-0.061,45885.0
-0.004,0.365,0.922,-0.244,45904.0
-0.0,0.365,0.926,-0.366,45926.0
-0.004,0.368,0.928,-0.305,45946.0
-0.001,0.365,0.929,-0.488,45967.0
-0.005,0.367,0.926,-0.427,45988.0
-0.002,0.365,0.927,-0.122,46007.0
-0.003,0.366,0.927,-0.305,46026.0
-0.004,0.364,0.925,-0.305,46044.0
-0.003,0.366,0.926,-0.488,46064.0
-0.005,0.365,0.927,-0.366,46084.0
-0.001,0.365,0.924,-0.244,46105.0
-0.001,0.364,0.924,-0.488,46125.0
-0.002,0.364,0.928,-0.61,46144.0
-0.002,0.365,0.926,-0.916,46163.0
-0.001,0.365,0.926,-0.427,46182.0
-0.003,0.367,0.926,-0.366,46200.0
-0.005,0.366,0.925,-0.122,46221.0
-0.003,0.365,0.928,-0.427,46239.0
-0.0,0.365,0.926,-0.244,46258.0
-0.004,0.363,0.923,-0.549,46280.0
-0.004,0.366,0.928,-0.244,46301.0
-0.003,0.365,0.927,-0.122,46319.0
-0.003,0.365,0.923,-0.244,46339.0
-0.002,0.367,0.925,-0.183,46357.0
-0.004,0.366,0.924,-0.488,46377.0
-0.003,0.366,0.925,-0.427,46396.0
-0.001,0.367,0.928,-0.366,46414.0
-0.006,0.367,0.927,-0.183,46432.0
-0.002,0.363,0.926,-0.366,46452.0
-0.003,0.366,0.927,0.061,46470.0
-0.005,0.365,0.928,-0.061,46492.0
-0.003,0.365,0.926,-0.366,46513.0
-0.002,0.364,0.928,-0.244,46535.0
-0.006,0.363,0.927,-0.244,46556.0
-0.006,0.367,0.928,0.0,46575.0
-0.002,0.365,0.927,-0.061,46596.0
-0.003,0.364,0.928,-0.427,46615.0
-0.005,0.364,0.927,-0.244,46635.0
-0.003,0.364,0.928,-0.183,46653.0
-0.004,0.365,0.93,-0.061,46671.0
-0.003,0.365,0.92,-0.305,46692.0
-0.002,0.365,0.923,-0.305,46710.0
-0.004,0.363,0.932,-0.549,46730.0
-0.003,0.366,0.927,-0.366,46750.0
-0.009,0.365,0.925,-0.549,46769.0
-0.007,0.365,0.926,-0.183,46791.0
-0.003,0.366,0.924,-0.244,46810.0
-0.004,0.364,0.927,-0.122,46830.0
-0.003,0.366,0.924,-0.122,46848.0
-0.0,0.363,0.928,-0.183,46866.0
-0.004,0.365,0.93,-0.244,46886.0
-0.001,0.364,0.929,-0.244,46908.0
-0.004,0.362,0.924,-0.427,46927.0
-0.005,0.362,0.924,0.061,46946.0
-0.008,0.365,0.927,-0.305,46965.0
0.001,0.363,0.929,-0.183,46983.0
-0.001,0.367,0.927,-0.183,47003.0
-0.003,0.36,0.923,-0.122,47023.0
-0.002,0.364,0.927,-0.366,47043.0
-0.003,0.367,0.926,-0.183,47063.0
-0.002,0.365,0.927,-0.305,47081.0
-0.003,0.364,0.926,-0.244,47102.0
-0.007,0.366,0.928,-0.183,47120.0
-0.007,0.364,0.928,-0.244,47138.0
-0.002,0.367,0.927,-0.183,47158.0
-0.006,0.365,0.923,-0.244,47176.0
-0.006,0.365,0.929,-0.305,47199.0
-0.004,0.365,0.926,0.0,47219.0
-0.004,0.362,0.927,-0.183,47239.0
-0.003,0.365,0.928,-0.305,47257.0
-0.007,0.365,0.926,-0.305,47276.0
-0.003,0.363,0.927,-0.122,47297.0
-0.001,0.365,0.927,-0.061,47319.0
0.002,0.365,0.929,-0.183,47337.0
-0.004,0.365,0.925,-0.122,47357.0
-0.005,0.367,0.927,-0.244,47378.0
-0.002,0.365,0.931,-0.122,47397.0
-0.003,0.363,0.924,-0.427,47417.0
-0.004,0.364,0.928,-0.061,47437.0
-0.002,0.365,0.931,0.0,47456.0
-0.004,0.364,0.923,-0.244,47475.0
-0.004,0.366,0.927,0.0,47493.0
-0.001,0.364,0.925,-0.427,47512.0
-0.003,0.365,0.926,-0.122,47531.0
-0.003,0.363,0.926,-0.244,47550.0
-0.002,0.366,0.931,-0.244,47573.0
-0.004,0.361,0.926,-0.305,47591.0
-0.003,0.365,0.928,-0.122,47610.0
-0.002,0.363,0.926,-0.183,47631.0
-0.005,0.364,0.93,-0.122,47649.0
-0.003,0.365,0.927,-0.061,47669.0
-0.001,0.365,0.927,-0.244,47688.0
-0.002,0.365,0.923,-0.366,47709.0
-0.002,0.365,0.927,-0.244,47728.0
-0.004,0.367,0.926,-0.366,47746.0
-0.0,0.365,0.93,-0.244,47765.0
-0.009,0.363,0.926,-0.366,47783.0
-0.003,0.366,0.926,-0.183,47801.0
0.0,0.364,0.927,-0.244,47822.0
-0.004,0.361,0.928,-0.244,47842.0
-0.003,0.364,0.928,-0.427,47861.0
-0.002,0.364,0.926,-0.366,47880.0
-0.004,0.364,0.925,-0.427,47898.0
-0.004,0.366,0.928,-0.427,47917.0
-0.005,0.364,0.928,-0.488,47936.0
-0.006,0.363,0.926,-0.549,47955.0
-0.004,0.364,0.926,-0.305,47973.0
-0.004,0.364,0.926,-0.549,47991.0
-0.002,0.364,0.929,-0.366,48012.0
-0.003,0.361,0.929,-0.305,48036.0
-0.007,0.362,0.925,-0.427,48055.0
-0.003,0.364,0.928,-0.244,48073.0
-0.001,0.362,0.926,-0.305,48092.0
-0.003,0.364,0.927,-0.427,48110.0
-0.004,0.366,0.929,-0.366,48128.0
-0.004,0.362,0.926,-0.305,48146.0
-0.0,0.365,0.931,-0.244,48164.0
-0.004,0.362,0.926,-0.427,48186.0
-0.004,0.362,0.929,-0.244,48204.0
-0.003,0.363,0.926,-0.244,48223.0
-0.003,0.363,0.928,-0.427,48242.0
-0.002,0.364,0.924,-0.122,48263.0
-0.004,0.36,0.928,-0.122,48282.0
-0.001,0.361,0.927,-0.305,48300.0
-0.006,0.361,0.924,-0.244,48323.0
-0.005,0.363,0.925,-0.366,48343.0
-0.003,0.363,0.928,-0.244,48361.0
-0.004,0.364,0.927,-0.244,48381.0
-0.006,0.362,0.928,-0.183,48399.0
-0.005,0.363,0.925,-0.061,48419.0
-0.005,0.363,0.924,-0.244,48441.0
-0.006,0.362,0.928,-0.244,48461.0
-0.005,0.363,0.927,-0.122,48480.0
-0.003,0.363,0.929,-0.427,48499.0
-0.005,0.365,0.925,-0.305,48520.0
-0.002,0.363,0.929,-0.122,48544.0
-0.006,0.362,0.926,-0.122,48564.0
-0.004,0.36,0.928,-0.244,48584.0
-0.006,0.367,0.927,-0.183,48607.0
-0.002,0.365,0.926,-0.183,48626.0
-0.006,0.362,0.925,-0.366,48645.0
-0.002,0.363,0.931,-0.61,48664.0
-0.001,0.362,0.928,-0.732,48682.0
-0.0,0.362,0.932,-0.366,48700.0
-0.004,0.365,0.927,-0.488,48718.0
-0.004,0.365,0.929,-0.183,48741.0
-0.007,0.365,0.925,-0.488,48759.0
-0.003,0.364,0.932,-0.122,48778.0
-0.005,0.362,0.924,-0.427,48798.0
-0.006,0.365,0.925,-0.122,48819.0
-0.002,0.363,0.929,-0.183,48840.0
-0.003,0.363,0.927,-0.061,48861.0
-0.003,0.362,0.929,-0.061,48881.0
0.001,0.364,0.927,-0.061,48900.0
-0.005,0.365,0.927,-0.305,48919.0
-0.007,0.363,0.928,-0.305,48943.0
-0.005,0.364,0.928,-0.305,48964.0
-0.003,0.362,0.926,-0.183,48982.0
-0.006,0.36,0.932,-0.183,49004.0
-0.003,0.362,0.929,-0.122,49022.0
-0.004,0.361,0.926,-0.183,49041.0
-0.002,0.362,0.928,-0.183,49061.0
-0.002,0.362,0.928,-0.244,49080.0
-0.002,0.36,0.926,0.0,49098.0
-0.005,0.363,0.927,-0.183,49119.0
-0.007,0.363,0.928,-0.122,49137.0
-0.004,0.361,0.924,-0.305,49159.0
-0.002,0.362,0.93,-0.305,49178.0
-0.006,0.364,0.927,-0.122,49196.0
-0.007,0.363,0.926,-0.183,49215.0
-0.002,0.365,0.927,-0.305,49233.0
-0.005,0.362,0.922,-0.183,49253.0
-0.002,0.363,0.925,-0.122,49274.0
-0.001,0.364,0.927,0.0,49293.0
-0.002,0.361,0.927,-0.305,49314.0
-0.003,0.363,0.926,-0.183,49334.0
-0.005,0.361,0.929,-0.244,49353.0
-0.004,0.363,0.927,-0.244,49371.0
-0.005,0.366,0.926,-0.061,49391.0
-0.002,0.363,0.925,-0.183,49411.0
-0.004,0.365,0.93,-0.183,49432.0
-0.005,0.365,0.926,-0.183,49452.0
-0.0,0.366,0.933,-0.061,49473.0
-0.007,0.361,0.928,-0.488,49492.0
-0.006,0.364,0.933,0.0,49510.0
0.001,0.361,0.931,-0.122,49528.0
-0.004,0.363,0.927,-0.122,49546.0
-0.006,0.363,0.928,-0.061,49565.0
-0.003,0.361,0.929,-0.366,49585.0
-0.003,0.363,0.927,-0.122,49605.0
-0.004,0.366,0.927,-0.183,49622.0
-0.0,0.364,0.93,-0.427,49642.0
-0.005,0.364,0.927,-0.488,49663.0
-0.005,0.362,0.925,-0.122,49684.0
-0.004,0.361,0.928,-0.122,49703.0
-0.003,0.363,0.93,-0.244,49724.0
-0.003,0.364,0.926,-0.183,49743.0
-0.003,0.363,0.926,-0.122,49762.0
-0.002,0.364,0.927,-0.183,49783.0
-0.005,0.363,0.931,-0.305,49802.0
-0.005,0.362,0.928,0.0,49820.0
-0.006,0.365,0.935,-0.183,49841.0
-0.002,0.361,0.925,-0.305,49859.0
-0.005,0.363,0.923,-0.366,49877.0
-0.004,0.363,0.928,0.0,49897.0
-0.003,0.364,0.928,-0.183,49916.0
-0.004,0.364,0.927,-0.183,49936.0
-0.006,0.363,0.928,-0.183,49957.0
-0.005,0.364,0.926,-0.244,49979.0
-0.005,0.364,0.929,-0.305,49997.0
-0.003,0.362,0.926,0.061,50016.0
-0.005,0.363,0.928,-0.122,50036.0
-0.006,0.364,0.928,-0.122,50054.0
-0.005,0.362,0.93,-0.122,50074.0
-0.002,0.363,0.929,-0.061,50095.0
-0.004,0.363,0.93,-0.244,50115.0
-0.002,0.361,0.928,-0.244,50134.0
-0.0,0.365,0.926,-0.061,50153.0
-0.002,0.365,0.925,-0.305,50173.0
-0.006,0.364,0.93,-0.244,50192.0
-0.002,0.365,0.932,-0.061,50212.0
-0.004,0.364,0.929,-0.122,50235.0
-0.0,0.362,0.927,-0.183,50253.0
-0.004,0.36,0.929,-0.183,50272.0
-0.001,0.358,0.93,-0.305,50291.0
-0.003,0.36,0.925,0.061,50311.0
-0.003,0.362,0.929,-0.061,50331.0
-0.001,0.36,0.927,-0.244,50352.0
-0.005,0.36,0.929,-0.183,50374.0
-0.003,0.362,0.927,-0.183,50393.0
-0.003,0.362,0.925,-0.244,50413.0
-0.005,0.364,0.928,-0.183,50431.0
-0.001,0.364,0.928,-0.122,50449.0
-0.001,0.363,0.929,-0.244,50470.0
-0.003,0.36,0.929,0.0,50493.0
-0.004,0.361,0.93,-0.122,50511.0
-0.001,0.363,0.931,-0.061,50531.0
-0.002,0.366,0.926,-0.366,50550.0
-0.006,0.366,0.924,-0.244,50570.0
-0.002,0.364,0.924,-0.366,50590.0
-0.004,0.364,0.926,-0.366,50612.0
-0.006,0.36,0.929,-0.183,50632.0
-0.005,0.363,0.93,-0.305,50650.0
-0.007,0.363,0.926,-0.244,50671.0
-0.001,0.363,0.933,-0.244,50692.0
-0.003,0.364,0.93,-0.244,50712.0
-0.006,0.363,0.928,-0.244,50732.0
-0.002,0.364,0.924,-0.244,50752.0
-0.005,0.359,0.927,-0.183,50772.0
-0.005,0.366,0.931,-0.122,50794.0
-0.0,0.364,0.928,-0.366,50813.0
-0.001,0.366,0.932,-0.122,50837.0
-0.005,0.363,0.927,0.0,50855.0
-0.001,0.36,0.926,-0.366,50875.0
-0.006,0.36,0.926,-0.122,50895.0
-0.005,0.359,0.929,-0.183,50914.0
-0.007,0.364,0.927,-0.488,50934.0
-0.033,0.349,0.883,-2.808,50954.0
-0.002,0.346,0.958,-1.343,50974.0
0.004,0.35,0.951,1.77,50997.0
-0.001,0.349,0.939,-1.038,51015.0
-0.003,0.351,0.927,0.244,51034.0
-0.004,0.346,0.929,0.0,51052.0
-0.004,0.35,0.937,-0.305,51070.0
-0.001,0.351,0.926,0.061,51088.0
-0.005,0.348,0.928,-0.061,51107.0
-0.004,0.347,0.935,-0.244,51125.0
-0.004,0.346,0.931,-0.244,51145.0
-0.005,0.349,0.932,-0.366,51166.0
-0.003,0.353,0.937,-0.427,51185.0
-0.007,0.347,0.931,-0.488,51206.0
0.001,0.351,0.933,-0.244,51227.0
-0.005,0.348,0.937,-0.183,51245.0
-0.003,0.351,0.933,-0.183,51263.0
-0.001,0.352,0.931,-0.366,51284.0
-0.005,0.351,0.936,-0.122,51306.0
-0.003,0.351,0.934,0.061,51326.0
-0.006,0.347,0.933,0.122,51344.0
-0.003,0.348,0.931,-0.122,51362.0
-0.002,0.35,0.933,-0.305,51384.0
-0.004,0.349,0.931,-0.061,51403.0
-0.003,0.35,0.937,-0.244,51421.0
-0.006,0.348,0.931,-0.183,51442.0
-0.0,0.349,0.933,-0.061,51461.0
-0.003,0.35,0.935,-0.427,51482.0
0.0,0.353,0.932,-0.122,51505.0
-0.005,0.353,0.933,0.183,51525.0
0.005,0.353,0.932,0.305,51546.0
-0.003,0.349,0.934,-0.122,51568.0
-0.005,0.346,0.936,-0.183,51590.0
-0.006,0.35,0.938,-0.366,51611.0
-0.008,0.35,0.936,-0.305,51631.0
-0.003,0.348,0.934,-0.427,51650.0
-0.001,0.35,0.93,-0.183,51671.0
-0.005,0.351,0.933,-0.305,51691.0
-0.005,0.35,0.931,-0.244,51713.0
-0.006,0.347,0.931,-0.183,51732.0
-0.004,0.347,0.934,-0.244,51751.0
-0.003,0.347,0.934,0.0,51771.0
-0.001,0.349,0.931,-0.061,51791.0
-0.002,0.349,0.932,-0.061,51813.0
-0.005,0.352,0.931,-0.183,51832.0
-0.005,0.347,0.934,-0.427,51852.0
-0.005,0.349,0.93,-0.366,51871.0
0.0,0.349,0.932,-0.122,51889.0
-0.005,0.349,0.93,-0.183,51909.0
-0.003,0.35,0.931,-0.244,51930.0
-0.004,0.348,0.935,-0.183,51950.0
-0.004,0.35,0.934,-0.061,51969.0
-0.007,0.347,0.934,-0.061,51988.0
-0.006,0.347,0.932,-0.061,52006.0
-0.006,0.349,0.934,-0.244,52024.0
-0.002,0.35,0.93,-0.366,52047.0
-0.002,0.348,0.931,-0.366,52068.0
-0.002,0.352,0.934,0.0,52087.0
-0.005,0.353,0.939,-0.183,52105.0
-0.008,0.348,0.934,-0.122,52130.0
-0.004,0.349,0.935,-0.183,52150.0
-0.005,0.347,0.931,-0.183,52169.0
-0.002,0.345,0.935,-0.061,52189.0
-0.003,0.348,0.932,0.183,52208.0
-0.006,0.35,0.935,-0.183,52228.0
-0.004,0.352,0.935,-0.427,52248.0
-0.004,0.352,0.931,-0.305,52267.0
0.001,0.346,0.932,-0.183,52287.0
0.0,0.351,0.935,-0.183,52305.0
-0.003,0.349,0.934,-0.183,52326.0
-0.006,0.349,0.931,-0.244,52344.0
-0.007,0.346,0.956,1.343,52368.0
-0.001,0.353,0.931,2.686,52386.0
-0.006,0.348,0.936,-0.305,52404.0
-0.005,0.347,0.927,-0.793,52425.0
0.0,0.354,0.927,0.549,52445.0
-0.005,0.35,0.931,-0.244,52464.0
-0.006,0.35,0.933,-0.244,52485.0
-0.002,0.349,0.929,-0.244,52506.0
-0.005,0.35,0.93,-0.122,52527.0
-0.002,0.352,0.933,-0.305,52547.0
-0.002,0.352,0.934,0.0,52567.0
-0.007,0.352,0.927,-0.427,52586.0
-0.002,0.351,0.934,0.0,52604.0
-0.001,0.35,0.935,-0.305,52624.0
-0.004,0.352,0.931,-0.183,52644.0
0.0,0.353,0.933,-0.366,52665.0
-0.005,0.35,0.932,-0.366,52686.0
-0.004,0.347,0.935,-0.183,52707.0
-0.005,0.347,0.935,-0.061,52729.0
-0.003,0.35,0.933,-0.122,52752.0
-0.002,0.352,0.934,-0.061,52770.0
-0.005,0.354,0.931,-0.244,52788.0
-0.005,0.347,0.936,-0.305,52809.0
-0.005,0.349,0.931,-0.183,52829.0
-0.006,0.35,0.934,-0.305,52850.0
-0.002,0.351,0.934,-0.244,52868.0
-0.005,0.348,0.934,-0.305,52888.0
-0.0,0.351,0.933,-0.183,52906.0
-0.001,0.35,0.934,-0.183,52925.0
-0.004,0.349,0.932,-0.305,52945.0
-0.005,0.352,0.933,-0.488,52964.0
-0.003,0.352,0.938,0.061,52983.0
-0.003,0.351,0.932,-0.183,53004.0
-0.008,0.346,0.934,0.0,53022.0
-0.005,0.35,0.935,-0.183,53043.0
-0.003,0.35,0.933,-0.244,53062.0
-0.002,0.351,0.938,-0.122,53080.0
-0.003,0.35,0.931,-0.122,53098.0
-0.003,0.348,0.935,-0.244,53116.0
-0.003,0.349,0.932,-0.183,53136.0
-0.002,0.348,0.931,-0.305,53159.0
-0.005,0.352,0.933,-0.122,53180.0
-0.001,0.351,0.932,-0.366,53199.0
-0.004,0.353,0.933,-0.305,53217.0
-0.005,0.347,0.93,-0.305,53238.0
-0.003,0.347,0.933,0.0,53259.0
-0.003,0.352,0.932,0.0,53279.0
-0.002,0.352,0.931,-0.183,53297.0
-0.004,0.352,0.932,-0.183,53315.0
-0.004,0.349,0.935,-0.244,53333.0
-0.005,0.35,0.931,-0.061,53358.0
-0.002,0.35,0.932,-0.244,53378.0
0.001,0.352,0.932,-0.061,53397.0
-0.004,0.349,0.932,-0.183,53417.0
-0.005,0.35,0.933,-0.183,53437.0
-0.004,0.349,0.934,-0.061,53457.0
-0.005,0.349,0.934,-0.183,53477.0
-0.005,0.351,0.937,-0.183,53496.0
-0.007,0.351,0.936,-0.305,53514.0
-0.002,0.351,0.932,-0.061,53533.0
-0.002,0.349,0.931,0.0,53554.0
-0.001,0.35,0.933,-0.122,53571.0
-0.003,0.352,0.935,-0.183,53592.0
-0.002,0.35,0.934,0.0,53611.0
-0.001,0.35,0.932,-0.061,53633.0
0.0,0.348,0.933,-0.244,53656.0
-0.005,0.351,0.929,-0.244,53676.0
-0.003,0.349,0.933,-0.244,53694.0
-0.002,0.353,0.933,-0.366,53715.0
-0.003,0.35,0.934,-0.122,53733.0
-0.003,0.35,0.933,-0.061,53753.0
-0.003,0.35,0.934,-0.244,53771.0
-0.003,0.35,0.93,-0.244,53794.0
-0.004,0.348,0.936,-0.183,53813.0
-0.004,0.349,0.932,-0.305,53832.0
-0.004,0.349,0.932,-0.061,53851.0
-0.006,0.347,0.934,-0.183,53869.0
-0.002,0.348,0.935,-0.061,53887.0
-0.002,0.35,0.933,-0.061,53905.0
-0.004,0.352,0.931,-0.061,53925.0
-0.006,0.351,0.935,-0.122,53945.0
-0.004,0.352,0.929,-0.305,53965.0
-0.005,0.35,0.93,-0.305,53983.0
-0.003,0.348,0.936,-0.183,54002.0
-0.003,0.353,0.933,-0.122,54021.0
-0.002,0.352,0.934,-0.244,54039.0
-0.003,0.35,0.935,-0.183,54060.0
-0.004,0.352,0.929,-0.061,54079.0
-0.004,0.35,0.929,-0.061,54100.0
-0.004,0.346,0.933,0.0,54119.0
-0.004,0.351,0.931,-0.061,54138.0
-0.007,0.35,0.931,0.0,54156.0
-0.004,0.351,0.932,-0.122,54178.0
-0.001,0.352,0.93,-0.183,54197.0
0.0,0.353,0.936,0.0,54217.0
-0.003,0.348,0.934,-0.122,54238.0
-0.003,0.352,0.931,-0.366,54257.0
-0.0,0.351,0.93,-0.183,54280.0
-0.003,0.351,0.934,-0.305,54300.0
-0.001,0.349,0.932,-0.061,54319.0
-0.003,0.35,0.933,-0.183,54340.0
-0.003,0.352,0.932,-0.244,54359.0
-0.002,0.352,0.93,-0.122,54379.0
-0.005,0.349,0.935,0.122,54401.0
-0.003,0.353,0.93,-0.305,54420.0
-0.008,0.349,0.935,-0.061,54438.0
-0.003,0.353,0.936,-0.244,54456.0
-0.004,0.35,0.929,-0.122,54477.0
0.0,0.35,0.937,-0.183,54496.0
-0.0,0.35,0.933,-0.183,54515.0
-0.003,0.348,0.931,0.0,54534.0
-0.004,0.352,0.932,-0.122,54553.0
-0.001,0.348,0.937,-0.122,54573.0
-0.003,0.351,0.933,-0.183,54592.0
-0.004,0.35,0.934,-0.122,54612.0
-0.002,0.348,0.934,-0.183,54632.0
-0.002,0.351,0.934,-0.183,54652.0
-0.004,0.352,0.932,-0.122,54677.0
-0.006,0.349,0.932,0.061,54697.0
-0.006,0.35,0.933,-0.183,54719.0
-0.007,0.35,0.934,-0.305,54739.0
-0.004,0.351,0.936,-0.305,54759.0
-0.004,0.35,0.934,-0.183,54777.0
-0.0,0.352,0.929,0.0,54796.0
-0.006,0.353,0.931,-0.183,54815.0
-0.005,0.352,0.935,-0.183,54834.0
-0.004,0.35,0.933,-0.244,54852.0
-0.005,0.353,0.936,-0.061,54870.0
-0.004,0.348,0.932,-0.183,54892.0
-0.005,0.348,0.934,-0.061,54913.0
-0.005,0.348,0.934,-0.122,54933.0
-0.005,0.354,0.932,-0.244,54953.0
-0.006,0.348,0.931,-0.061,54974.0
-0.005,0.347,0.936,-0.366,54993.0
-0.005,0.349,0.933,-0.061,55013.0
-0.006,0.347,0.933,-0.122,55031.0
-0.003,0.352,0.931,0.0,55049.0
-0.002,0.349,0.932,-0.305,55071.0
-0.001,0.351,0.931,0.0,55092.0
-0.007,0.35,0.934,-0.061,55112.0
-0.005,0.35,0.93,-0.305,55133.0
-0.0,0.349,0.931,-0.183,55153.0
-0.002,0.348,0.927,-0.183,55171.0
-0.002,0.349,0.935,0.061,55191.0
-0.002,0.348,0.931,-0.305,55211.0
-0.006,0.346,0.937,-0.122,55231.0
-0.006,0.35,0.933,-0.366,55251.0
-0.001,0.351,0.937,0.122,55269.0
-0.004,0.347,0.932,-0.244,55290.0
-0.011,0.345,0.937,-0.61,55308.0
-0.004,0.351,0.935,-0.244,55327.0
-0.002,0.349,0.932,-0.183,55345.0
-0.003,0.353,0.932,-0.244,55363.0
-0.003,0.348,0.93,-0.061,55382.0
-0.005,0.349,0.933,-0.122,55401.0
-0.005,0.351,0.935,-0.427,55419.0
-0.005,0.351,0.931,-0.427,55439.0
-0.006,0.349,0.93,-0.122,55459.0
-0.002,0.35,0.932,0.0,55478.0
-0.002,0.35,0.933,-0.183,55499.0
-0.006,0.347,0.936,-0.061,55519.0
-0.004,0.347,0.931,-0.061,55539.0
-0.005,0.351,0.932,0.0,55558.0
-0.004,0.352,0.933,-0.305,55576.0
-0.005,0.351,0.935,-0.122,55594.0
-0.005,0.351,0.934,-0.244,55617.0
-0.002,0.349,0.931,-0.305,55637.0
-0.004,0.35,0.934,-0.122,55657.0
-0.007,0.349,0.931,0.0,55675.0
-0.005,0.349,0.937,-0.122,55694.0
-0.002,0.352,0.933,-0.244,55713.0
-0.002,0.348,0.932,-0.305,55731.0
-0.001,0.354,0.938,-0.183,55754.0
-0.003,0.35,0.931,-0.244,55772.0
-0.008,0.353,0.934,-0.244,55791.0
-0.002,0.352,0.928,-0.244,55809.0
-0.004,0.348,0.934,-0.427,55830.0
-0.005,0.353,0.936,-0.122,55852.0
-0.001,0.354,0.933,-0.122,55871.0
-0.002,0.353,0.932,0.061,55890.0
-0.005,0.346,0.933,0.0,55908.0
-0.004,0.347,0.933,-0.122,55927.0
-0.008,0.349,0.933,-0.244,55946.0
-0.001,0.354,0.93,0.0,55965.0
-0.004,0.349,0.933,-0.183,55985.0
-0.003,0.349,0.932,-0.244,56006.0
-0.003,0.348,0.94,-0.366,56027.0
-0.001,0.348,0.928,-0.061,56045.0
-0.001,0.349,0.934,0.0,56065.0
-0.006,0.349,0.934,-0.183,56084.0
-0.004,0.349,0.935,-0.122,56106.0
-0.004,0.346,0.934,-0.122,56126.0
-0.004,0.348,0.933,-0.244,56146.0
-0.005,0.35,0.929,-0.244,56166.0
-0.003,0.351,0.933,-0.183,56184.0
-0.006,0.351,0.934,-0.122,56205.0
-0.0,0.349,0.933,-0.244,56225.0
-0.004,0.35,0.932,-0.122,56244.0
-0.002,0.349,0.933,-0.305,56263.0
-0.003,0.347,0.935,-0.061,56281.0
-0.006,0.351,0.931,-0.061,56300.0
-0.007,0.349,0.936,0.0,56322.0
-0.003,0.349,0.933,-0.244,56341.0
-0.001,0.351,0.932,-0.183,56361.0
-0.004,0.349,0.935,-0.122,56382.0
-0.004,0.352,0.933,-0.061,56402.0
-0.004,0.35,0.933,-0.183,56423.0
-0.005,0.349,0.934,-0.244,56443.0
-0.006,0.349,0.933,-0.427,56463.0
-0.004,0.35,0.931,-0.305,56483.0
-0.003,0.351,0.933,-0.122,56506.0
-0.005,0.353,0.933,0.061,56527.0
-0.006,0.353,0.933,0.0,56546.0
-0.005,0.35,0.937,0.0,56564.0
-0.007,0.347,0.935,-0.305,56582.0
-0.001,0.346,0.931,0.0,56602.0
-0.0,0.351,0.933,-0.061,56622.0
-0.007,0.351,0.932,-0.244,56640.0
-0.007,0.347,0.932,-0.488,56661.0
-0.006,0.347,0.936,-0.305,56681.0
-0.002,0.348,0.937,-0.244,56701.0
0.0,0.348,0.93,-0.183,56721.0
-0.001,0.349,0.934,-0.427,56740.0
-0.005,0.354,0.935,0.0,56759.0
-0.01,0.348,0.93,-0.183,56777.0
-0.005,0.351,0.935,-0.183,56799.0
-0.004,0.351,0.932,-0.305,56818.0
-0.003,0.35,0.934,-0.122,56843.0
-0.003,0.35,0.935,-0.366,56861.0
-0.003,0.351,0.934,-0.305,56881.0
-0.003,0.348,0.935,-0.061,56899.0
-0.004,0.351,0.932,0.0,56917.0
-0.001,0.35,0.936,-0.122,56940.0
-0.001,0.352,0.931,-0.244,56960.0
-0.004,0.349,0.931,-0.183,56978.0
-0.004,0.35,0.931,0.061,56996.0
-0.004,0.349,0.933,-0.305,57014.0
-0.006,0.351,0.932,-0.061,57033.0
-0.003,0.35,0.932,-0.244,57054.0
-0.007,0.349,0.929,-0.244,57074.0
-0.008,0.352,0.936,-0.122,57093.0
-0.003,0.349,0.934,-0.244,57113.0
-0.002,0.349,0.933,-0.244,57135.0
-0.003,0.352,0.938,-0.427,57155.0
-0.001,0.352,0.934,-0.305,57175.0
-0.004,0.351,0.93,-0.122,57195.0
-0.005,0.35,0.936,-0.183,57213.0
-0.004,0.349,0.936,-0.183,57235.0
-0.001,0.35,0.93,-0.183,57253.0
0.002,0.352,0.932,0.061,57273.0
-0.0,0.348,0.932,-0.061,57291.0
-0.02,0.347,0.925,1.221,57311.0
0.0,0.357,0.921,8.85,57329.0
0.001,0.359,0.923,4.639,57349.0
0.007,0.365,0.927,-3.845,57369.0
-0.009,0.347,0.928,-5.188,57387.0
-0.015,0.352,0.939,-3.479,57407.0
-0.017,0.42,0.934,2.075,57425.0
0.031,0.298,0.956,-2.319,57443.0
0.004,0.366,0.942,0.0,57463.0
-0.002,0.361,0.928,0.122,57485.0
-0.003,0.362,0.924,-0.488,57506.0
-0.004,0.363,0.925,0.122,57525.0
-0.003,0.36,0.929,0.061,57545.0
-0.002,0.36,0.928,-0.061,57563.0
-0.002,0.36,0.93,0.122,57581.0
-0.003,0.362,0.931,-0.183,57601.0
-0.002,0.367,0.927,-0.061,57623.0
-0.003,0.359,0.925,-0.061,57641.0
-0.002,0.362,0.927,-0.305,57660.0
-0.003,0.365,0.926,-0.122,57681.0
-0.003,0.36,0.927,-0.183,57701.0
-0.004,0.361,0.924,-0.305,57721.0
-0.002,0.363,0.93,-0.183,57741.0
-0.003,0.36,0.928,-0.183,57760.0
-0.003,0.362,0.929,-0.183,57780.0
-0.003,0.359,0.927,-0.183,57799.0
-0.001,0.361,0.925,-0.122,57817.0
-0.004,0.363,0.926,-0.183,57838.0
-0.003,0.362,0.925,-0.366,57856.0
-0.003,0.359,0.924,-0.366,57876.0
0.0,0.361,0.927,-0.122,57896.0
-0.002,0.358,0.923,0.0,57915.0
0.0,0.36,0.927,-0.366,57933.0
-0.003,0.365,0.926,-0.244,57956.0
-0.005,0.361,0.927,-0.244,57978.0
-0.002,0.36,0.927,-0.488,57998.0
-0.004,0.361,0.926,-0.244,58016.0
-0.0,0.361,0.931,-0.122,58035.0
-0.002,0.362,0.927,-0.183,58055.0
-0.002,0.361,0.926,-0.366,58073.0
-0.002,0.36,0.931,0.0,58092.0
-0.005,0.361,0.929,-0.122,58115.0
-0.003,0.36,0.931,-0.122,58134.0
-0.004,0.358,0.928,0.0,58155.0
-0.003,0.359,0.927,-0.183,58175.0
0.001,0.361,0.929,-0.183,58194.0
-0.003,0.361,0.929,-0.122,58214.0
0.001,0.358,0.926,-0.305,58233.0
-0.002,0.362,0.929,-0.244,58254.0
-0.005,0.361,0.926,-0.305,58273.0
-0.001,0.36,0.928,-0.183,58291.0
-0.003,0.361,0.929,-0.183,58309.0
-0.006,0.359,0.925,-0.427,58327.0
-0.003,0.36,0.929,0.0,58346.0
-0.003,0.364,0.931,-0.183,58368.0
-0.001,0.361,0.929,-0.244,58388.0
-0.002,0.365,0.926,-0.244,58407.0
-0.001,0.358,0.93,-0.244,58425.0
-0.003,0.364,0.93,-0.305,58443.0
-0.004,0.362,0.927,-0.183,58463.0
-0.001,0.36,0.929,-0.122,58481.0
-0.002,0.362,0.926,-0.244,58499.0
-0.002,0.363,0.934,-0.183,58520.0
-0.005,0.362,0.927,-0.122,58539.0
-0.005,0.361,0.928,-0.366,58559.0
-0.004,0.361,0.928,-0.244,58579.0
-0.001,0.366,0.929,0.122,58599.0
0.001,0.361,0.924,-0.122,58618.0
-0.004,0.362,0.927,-0.183,58637.0
-0.002,0.363,0.929,-0.183,58658.0
0.0,0.362,0.929,-0.183,58680.0
-0.005,0.363,0.923,-0.366,58698.0
-0.006,0.363,0.929,-0.122,58719.0
-0.005,0.362,0.929,-0.183,58739.0
-0.002,0.362,0.926,0.0,58759.0
-0.002,0.363,0.928,-0.061,58780.0
-0.006,0.361,0.928,-0.305,58798.0
-0.004,0.362,0.93,-0.122,58816.0
-0.004,0.359,0.93,-0.183,58838.0
-0.004,0.358,0.93,-0.061,58858.0
-0.002,0.361,0.929,-0.183,58880.0
-0.002,0.362,0.927,-0.244,58898.0
-0.002,0.362,0.928,-0.244,58918.0
-0.002,0.363,0.926,-0.183,58937.0
-0.002,0.362,0.932,-0.183,58955.0
-0.003,0.362,0.929,-0.305,58975.0
-0.0,0.362,0.929,-0.183,58996.0
-0.006,0.359,0.931,-0.183,59015.0
-0.004,0.362,0.93,-0.122,59035.0
-0.004,0.36,0.926,-0.183,59055.0
-0.004,0.359,0.929,-0.244,59075.0
-0.005,0.359,0.929,-0.366,59095.0
-0.004,0.362,0.93,-0.244,59114.0
-0.006,0.362,0.927,-0.305,59134.0
-0.001,0.364,0.931,-0.305,59152.0
-0.006,0.36,0.928,-0.366,59171.0
-0.008,0.363,0.927,-0.305,59191.0
0.0,0.361,0.927,-0.061,59209.0
-0.003,0.361,0.93,-0.244,59229.0
0.001,0.359,0.929,-0.244,59247.0
-0.003,0.36,0.931,-0.122,59267.0
-0.006,0.363,0.93,-0.244,59287.0
-0.003,0.362,0.927,-0.305,59307.0
-0.004,0.363,0.925,-0.061,59327.0
-0.003,0.359,0.929,-0.305,59346.0
-0.001,0.361,0.929,-0.61,59366.0
-0.004,0.36,0.924,-0.366,59384.0
-0.005,0.361,0.929,-0.488,59404.0
-0.001,0.359,0.928,-0.916,59425.0
-0.007,0.358,0.927,-0.549,59447.0
-0.003,0.361,0.929,-0.122,59465.0
0.0,0.36,0.927,-0.366,59485.0
-0.0,0.362,0.927,-0.977,59505.0
-0.008,0.362,0.901,1.038,59524.0
-0.008,0.35,0.948,-3.174,59545.0
-0.002,0.356,0.936,0.183,59563.0
-0.004,0.357,0.932,0.488,59587.0
-0.002,0.355,0.934,-0.366,59609.0
-0.004,0.353,0.93,-0.122,59628.0
-0.002,0.355,0.93,0.0,59649.0
-0.001,0.354,0.929,-0.488,59668.0
-0.002,0.354,0.933,-0.122,59689.0
-0.004,0.353,0.932,-0.305,59707.0
-0.008,0.356,0.928,-0.183,59727.0
-0.006,0.354,0.93,-0.244,59745.0
-0.003,0.355,0.932,-0.183,59765.0
-0.005,0.353,0.932,-0.305,59784.0
-0.006,0.352,0.93,-0.183,59803.0
-0.005,0.354,0.932,-0.183,59824.0
-0.001,0.356,0.929,-0.183,59845.0
-0.002,0.351,0.929,-0.183,59865.0
-0.005,0.354,0.935,-0.122,59886.0
-0.004,0.357,0.933,-0.183,59907.0
-0.002,0.354,0.93,-0.183,59925.0
-0.002,0.354,0.935,-0.366,59944.0
-0.003,0.354,0.928,-0.122,59965.0
-0.004,0.352,0.93,-0.244,59983.0
-0.004,0.355,0.933,-0.061,60007.0
-0.004,0.352,0.927,-0.183,60027.0
-0.002,0.353,0.933,-0.366,60047.0
-0.004,0.357,0.933,-0.244,60066.0
-0.002,0.355,0.931,0.0,60088.0
-0.006,0.354,0.931,-0.122,60108.0
-0.001,0.352,0.933,-0.244,60128.0
-0.007,0.354,0.935,-0.183,60146.0
-0.006,0.353,0.934,-0.244,60166.0
-0.006,0.357,0.927,-0.244,60184.0
-0.003,0.352,0.934,-0.183,60204.0
-0.007,0.359,0.928,-0.488,60224.0
-0.005,0.353,0.932,-0.244,60243.0
-0.002,0.353,0.932,-0.244,60263.0
-0.003,0.354,0.93,-0.183,60281.0
-0.005,0.353,0.931,-0.061,60299.0
-0.0,0.349,0.928,-0.061,60319.0
-0.001,0.351,0.933,-0.427,60337.0
0.0,0.357,0.927,-0.183,60355.0
-0.004,0.355,0.93,0.0,60375.0
-0.007,0.353,0.936,-0.183,60395.0
-0.008,0.354,0.931,-0.305,60416.0
-0.003,0.355,0.932,-0.183,60433.0
-0.008,0.355,0.931,-0.061,60451.0
-0.001,0.355,0.936,-0.061,60471.0
0.0,0.355,0.936,-0.061,60491.0
-0.002,0.357,0.931,0.0,60511.0
-0.001,0.355,0.929,0.183,60531.0
-0.007,0.353,0.933,0.0,60549.0
-0.002,0.354,0.93,-0.183,60568.0
-0.011,0.349,0.919,0.183,60588.0
0.013,0.364,0.948,1.038,60612.0
0.004,0.358,0.931,0.244,60632.0
0.001,0.358,0.944,-0.122,60653.0
0.002,0.35,0.933,-0.488,60672.0
0.0,0.354,0.934,-0.427,60690.0
-0.002,0.354,0.929,-0.183,60713.0
-0.001,0.353,0.929,-0.122,60731.0
-0.001,0.356,0.93,-0.061,60751.0
0.003,0.357,0.935,0.061,60771.0
-0.002,0.354,0.931,-0.183,60789.0
-0.004,0.354,0.931,-0.305,60810.0
-0.006,0.355,0.929,-0.122,60830.0
0.0,0.353,0.928,-0.061,60852.0
-0.002,0.354,0.937,-0.305,60871.0
-0.006,0.354,0.938,-0.305,60890.0
0.002,0.358,0.926,0.061,60909.0
0.009,0.358,0.933,-0.061,60930.0
0.003,0.356,0.93,0.0,60950.0
0.0,0.355,0.931,-0.122,60968.0
-0.001,0.356,0.928,-0.61,60988.0
-0.001,0.354,0.931,-0.305,61008.0
-0.006,0.353,0.934,-0.244,61027.0
-0.003,0.353,0.933,-0.366,61047.0
-0.002,0.357,0.928,-0.488,61070.0
-0.003,0.36,0.947,-0.549,61090.0
0.0,0.354,0.927,-0.305,61109.0
-0.002,0.353,0.927,0.122,61133.0
-0.006,0.355,0.935,0.183,61153.0
0.0,0.352,0.937,-0.244,61171.0
0.001,0.354,0.927,-0.244,61190.0
0.006,0.355,0.925,0.0,61209.0
0.0,0.357,0.93,-0.061,61230.0
-0.008,0.354,0.929,-0.366,61250.0
-0.007,0.351,0.933,-0.549,61271.0
-0.006,0.353,0.932,-0.305,61296.0
0.004,0.352,0.933,0.061,61316.0
0.001,0.355,0.93,-0.122,61337.0
-0.002,0.352,0.931,0.0,61357.0
-0.003,0.351,0.932,-0.183,61375.0
-0.001,0.354,0.931,-0.122,61397.0
0.0,0.354,0.929,-0.244,61417.0
0.001,0.355,0.93,-0.183,61435.0
-0.001,0.353,0.931,-0.122,61453.0
-0.003,0.357,0.934,-0.488,61473.0
-0.004,0.357,0.933,-0.122,61492.0
-0.006,0.349,0.931,0.0,61511.0
-0.001,0.353,0.929,0.0,61534.0
0.001,0.352,0.934,-0.061,61553.0
0.003,0.354,0.927,-0.183,61574.0
0.003,0.356,0.932,-0.183,61595.0
-0.006,0.355,0.926,-0.305,61616.0
-0.005,0.351,0.937,0.305,61636.0
0.0,0.355,0.936,-0.366,61654.0
-0.001,0.356,0.927,-0.305,61674.0
-0.001,0.365,0.93,0.0,16475.0
-0.003,0.366,0.924,-0.122,16495.0
0.001,0.367,0.927,-0.183,16515.0
-0.004,0.367,0.927,-0.061,16535.0
-0.001,0.367,0.926,-0.183,16555.0
-0.004,0.363,0.924,-0.183,16575.0
-0.004,0.367,0.925,-0.366,16595.0
-0.002,0.363,0.921,-0.244,16617.0
-0.004,0.366,0.922,-0.305,16636.0
-0.004,0.366,0.93,-0.244,16654.0
-0.001,0.365,0.927,-0.183,16672.0
0.001,0.366,0.925,0.061,16691.0
-0.0,0.368,0.925,-0.183,16710.0
-0.002,0.365,0.93,-0.244,16729.0
-0.002,0.364,0.925,-0.244,16749.0
-0.008,0.363,0.925,-0.183,16769.0
-0.001,0.369,0.929,0.0,16788.0
-0.001,0.365,0.93,-0.061,16808.0
-0.005,0.365,0.927,-0.122,16826.0
-0.004,0.367,0.931,-0.183,16846.0
-0.002,0.365,0.922,-0.122,16864.0
0.0,0.365,0.92,-0.305,16886.0
-0.002,0.366,0.926,-0.183,16907.0
-0.005,0.365,0.927,-0.244,16928.0
-0.003,0.368,0.926,-0.366,16946.0
-0.005,0.366,0.925,-0.122,16967.0
-0.001,0.366,0.925,-0.366,16986.0
-0.005,0.363,0.92,-0.244,17007.0
-0.005,0.366,0.927,-0.305,17025.0
-0.005,0.367,0.925,-0.305,17043.0
-0.005,0.366,0.932,-0.305,17062.0
-0.005,0.365,0.925,-0.488,17082.0
-0.006,0.364,0.925,0.0,17102.0
-0.003,0.365,0.928,-0.305,17122.0
-0.004,0.368,0.925,-0.061,17143.0
-0.003,0.365,0.927,0.0,17162.0
-0.003,0.365,0.925,0.0,17184.0
-0.005,0.365,0.923,-0.183,17205.0
-0.004,0.367,0.928,0.0,17225.0
-0.006,0.365,0.923,-0.244,17243.0
-0.003,0.367,0.925,0.244,17261.0
-0.004,0.366,0.93,0.0,17279.0
-0.005,0.369,0.923,-0.366,17297.0
-0.001,0.366,0.926,-0.305,17321.0
-0.0,0.366,0.927,-0.061,17340.0
-0.004,0.367,0.924,-0.244,17361.0
-0.005,0.365,0.925,-0.183,17383.0
-0.002,0.364,0.923,-0.183,17404.0
-0.003,0.366,0.924,-0.183,17428.0
-0.005,0.365,0.927,0.0,17448.0
-0.006,0.365,0.924,-0.427,17469.0
-0.003,0.369,0.923,-0.305,17488.0
-0.005,0.367,0.927,-0.061,17509.0
-0.001,0.367,0.926,-0.244,17530.0
-0.003,0.37,0.929,-0.122,17551.0
-0.004,0.366,0.925,-0.061,17569.0
-0.003,0.366,0.927,-0.061,17588.0
-0.0,0.365,0.929,-0.183,17606.0
-0.002,0.364,0.924,-0.122,17627.0
0.0,0.364,0.927,-0.122,17646.0
-0.003,0.365,0.922,-0.122,17664.0
-0.003,0.366,0.926,-0.183,17682.0
-0.004,0.369,0.927,-0.305,17702.0
-0.005,0.368,0.927,-0.366,17721.0
-0.009,0.367,0.927,0.0,17743.0
-0.005,0.365,0.924,-0.061,17761.0
-0.001,0.363,0.923,-0.427,17779.0
-0.007,0.366,0.928,-0.183,17802.0
-0.005,0.368,0.923,-0.061,17822.0
-0.002,0.365,0.926,-0.244,17844.0
-0.001,0.365,0.927,-0.122,17864.0
-0.007,0.368,0.927,-0.183,17885.0
-0.003,0.369,0.925,-0.305,17906.0
-0.004,0.366,0.924,-0.305,17926.0
0.0,0.365,0.924,-0.183,17946.0
-0.0,0.367,0.925,-0.122,17964.0
-0.003,0.363,0.925,-0.061,17983.0
-0.001,0.366,0.925,-0.183,18004.0
-0.0,0.365,0.927,-0.244,18024.0
-0.004,0.365,0.926,-0.305,18043.0
-0.006,0.367,0.926,-0.122,18063.0
-0.004,0.362,0.92,0.0,18083.0
-0.002,0.366,0.929,-0.122,18106.0
-0.007,0.364,0.924,-0.122,18127.0
-0.004,0.366,0.926,0.305,18148.0
-0.002,0.369,0.93,-0.061,18169.0
-0.003,0.366,0.92,-0.427,18189.0
-0.0,0.366,0.927,-0.244,18210.0
-0.003,0.365,0.923,-0.183,18230.0
-0.003,0.364,0.93,0.122,18249.0
-0.001,0.363,0.924,-0.061,18271.0
-0.004,0.368,0.927,-0.122,18291.0
-0.002,0.367,0.924,-0.183,18312.0
-0.004,0.365,0.926,-0.183,18331.0
-0.003,0.366,0.928,-0.122,18353.0
-0.004,0.365,0.924,-0.244,18373.0
-0.003,0.364,0.924,-0.122,18392.0
-0.006,0.365,0.927,-0.244,18412.0
-0.003,0.367,0.927,-0.183,18435.0
-0.002,0.368,0.923,-0.244,18453.0
-0.001,0.366,0.927,-0.183,18473.0
-0.001,0.365,0.925,-0.061,18491.0
-0.002,0.364,0.924,-0.122,18512.0
-0.006,0.364,0.927,-0.061,18531.0
-0.004,0.363,0.928,-0.366,18551.0
-0.003,0.368,0.924,-0.366,18571.0
-0.003,0.367,0.923,-0.244,18592.0
-0.003,0.365,0.927,-0.305,18610.0
-0.004,0.365,0.929,0.0,18632.0
-0.004,0.365,0.925,-0.244,18654.0
-0.001,0.366,0.928,-0.183,18673.0
-0.002,0.363,0.927,-0.183,18692.0
-0.002,0.367,0.923,-1.221,18713.0
-0.002,0.367,0.928,-1.77,18731.0
-0.004,0.362,0.925,-0.305,18752.0
-0.0,0.364,0.925,-0.549,18771.0
-0.0,0.366,0.926,-0.183,18789.0
-0.005,0.363,0.929,0.0,18810.0
-0.003,0.365,0.929,-0.427,18830.0
-0.001,0.369,0.935,-0.61,18850.0
-0.006,0.365,0.928,-0.61,18870.0
-0.002,0.365,0.927,-0.061,18888.0
-0.003,0.365,0.925,-0.427,18906.0
-0.003,0.365,0.929,-0.305,18925.0
-0.005,0.367,0.926,-0.427,18948.0
-0.0,0.364,0.923,-0.061,18969.0
-0.003,0.366,0.927,-0.061,18987.0
-0.004,0.364,0.926,-0.366,19008.0
-0.005,0.361,0.922,-0.122,19029.0
-0.005,0.363,0.927,-0.366,19049.0
-0.004,0.365,0.927,-0.122,19073.0
-0.001,0.367,0.923,-0.305,19092.0
-0.0,0.365,0.928,0.061,19111.0
-0.001,0.362,0.927,-0.305,19130.0
0.0,0.367,0.928,-0.061,19148.0
-0.003,0.365,0.926,0.183,19166.0
-0.005,0.365,0.924,-0.244,19186.0
-0.003,0.364,0.927,-0.366,19206.0
-0.006,0.364,0.927,-0.244,19225.0
-0.007,0.364,0.925,-0.488,19246.0
-0.003,0.368,0.924,-0.427,19268.0
-0.005,0.362,0.928,0.244,19286.0
-0.008,0.362,0.923,-0.61,19306.0
0.0,0.368,0.927,0.061,19324.0
-0.002,0.369,0.93,0.122,19342.0
-0.005,0.365,0.922,-0.244,19363.0
-0.007,0.361,0.917,-0.366,19385.0
-0.005,0.364,0.922,-0.061,19403.0
-0.004,0.365,0.92,-0.061,19421.0
-0.002,0.363,0.933,-0.244,19440.0
-0.007,0.362,0.923,0.061,19461.0
-0.003,0.365,0.925,-0.244,19480.0
-0.003,0.363,0.93,-0.183,19498.0
-0.002,0.367,0.928,-0.183,19516.0
-0.006,0.364,0.93,-0.061,19534.0
-0.003,0.362,0.927,-0.061,19553.0
-0.003,0.363,0.923,-0.183,19572.0
-0.001,0.365,0.927,0.0,19591.0
-0.004,0.364,0.928,-0.183,19613.0
-0.007,0.364,0.922,0.122,19633.0
-0.002,0.364,0.929,-0.305,19653.0
-0.003,0.364,0.927,-0.244,19673.0
-0.002,0.366,0.926,-0.061,19691.0
-0.002,0.37,0.927,-0.122,19709.0
-0.001,0.365,0.929,-0.061,19727.0
-0.002,0.368,0.926,-0.183,19747.0
-0.001,0.364,0.929,-0.061,19768.0
-0.004,0.366,0.926,-0.244,19787.0
-0.006,0.362,0.923,-0.183,19808.0
-0.006,0.363,0.925,-0.122,19826.0
-0.004,0.365,0.928,-0.305,19844.0
-0.004,0.367,0.926,-0.061,19864.0
0.0,0.368,0.929,-0.427,19885.0
-0.005,0.363,0.93,-0.305,19905.0
-0.001,0.369,0.925,-0.305,19925.0
-0.007,0.364,0.927,-0.122,19944.0
-0.001,0.365,0.926,0.061,19963.0
-0.006,0.365,0.924,-0.488,19983.0
-0.004,0.366,0.926,-0.183,20004.0
-0.004,0.365,0.926,-0.122,20023.0
-0.002,0.365,0.927,-0.183,20043.0
-0.003,0.364,0.926,-0.122,20061.0
-0.001,0.367,0.929,-0.122,20082.0
-0.0,0.366,0.922,0.0,20100.0
0.001,0.366,0.926,0.061,20119.0
-0.004,0.362,0.931,-0.061,20140.0
-0.004,0.365,0.918,-0.305,20162.0
0.001,0.366,0.933,-0.122,20181.0
-0.0,0.367,0.924,-0.061,20201.0
0.001,0.368,0.927,-0.122,20221.0
0.0,0.364,0.927,0.122,20240.0
-0.002,0.363,0.924,-0.183,20261.0
-0.002,0.366,0.928,-0.122,20280.0
-0.004,0.363,0.927,0.0,20298.0
-0.003,0.364,0.927,-0.305,20316.0
-0.003,0.366,0.927,-0.305,20336.0
-0.009,0.365,0.923,-0.305,20356.0
-0.0,0.365,0.929,-0.244,20377.0
-0.003,0.364,0.927,-0.122,20397.0
-0.002,0.363,0.925,-0.061,20415.0
-0.001,0.366,0.929,-0.122,20439.0
-0.007,0.365,0.923,-0.183,20458.0
-0.004,0.366,0.924,-0.061,20476.0
-0.004,0.367,0.929,-0.183,20496.0
-0.002,0.366,0.928,-0.305,20515.0
-0.004,0.369,0.93,-0.183,20534.0
-0.001,0.365,0.926,-0.122,20554.0
-0.005,0.364,0.927,-0.244,20574.0
-0.003,0.364,0.923,-0.244,20593.0
0.001,0.366,0.927,-0.366,20612.0
-0.003,0.364,0.925,-0.183,20633.0
-0.003,0.366,0.923,-0.244,20652.0
-0.006,0.363,0.924,-0.122,20672.0
-0.002,0.364,0.928,-0.366,20691.0
-0.002,0.365,0.928,-0.305,20709.0
0.002,0.366,0.924,-0.183,20730.0
-0.003,0.364,0.926,-0.183,20748.0
-0.008,0.364,0.926,0.061,20768.0
0.001,0.365,0.93,0.0,20788.0
-0.003,0.365,0.931,-0.183,20807.0
-0.003,0.364,0.926,-0.427,20827.0
-0.001,0.365,0.926,-0.061,20846.0
-0.001,0.367,0.927,-0.244,20866.0
-0.003,0.364,0.929,-0.061,20888.0
-0.001,0.363,0.926,-0.061,20908.0
-0.003,0.366,0.927,-0.244,20929.0
-0.005,0.365,0.925,-0.122,20949.0
0.001,0.362,0.927,-0.183,20968.0
-0.006,0.366,0.926,0.061,20987.0
-0.002,0.364,0.925,-0.061,21007.0
-0.002,0.365,0.927,-0.061,21028.0
-0.004,0.365,0.926,-0.183,21047.0
-0.003,0.367,0.925,-0.244,21065.0
-0.006,0.365,0.927,0.122,21086.0
-0.004,0.365,0.929,-0.061,21105.0
-0.0,0.367,0.923,-0.183,21126.0
-0.002,0.367,0.93,0.122,21147.0
-0.006,0.366,0.928,-0.122,21166.0
-0.004,0.365,0.926,-0.122,21186.0
-0.003,0.365,0.927,-0.366,21204.0
-0.004,0.365,0.925,-0.305,21224.0
-0.002,0.366,0.927,-0.122,21244.0
-0.008,0.363,0.927,0.0,21264.0
-0.0,0.368,0.926,-0.244,21283.0
-0.003,0.367,0.924,0.0,21304.0
-0.002,0.363,0.926,-0.122,21325.0
-0.003,0.365,0.929,-0.122,21343.0
-0.007,0.365,0.927,-0.061,21363.0
-0.005,0.36,0.923,0.0,21383.0
-0.0,0.365,0.93,-0.244,21404.0
-0.004,0.364,0.925,0.122,21422.0
-0.005,0.365,0.925,-0.122,21444.0
-0.001,0.364,0.926,-0.183,21464.0
-0.002,0.365,0.928,-0.061,21484.0
-0.002,0.366,0.924,-0.244,21505.0
-0.002,0.364,0.926,-0.366,21524.0
-0.005,0.364,0.926,0.0,21546.0
-0.003,0.366,0.928,-0.122,21564.0
-0.003,0.367,0.926,-0.366,21582.0
-0.001,0.364,0.926,-0.122,21602.0
-0.001,0.364,0.927,-0.061,21626.0
-0.005,0.366,0.926,-0.183,21645.0
-0.004,0.365,0.927,-0.122,21664.0
-0.002,0.366,0.924,-0.244,21682.0
-0.0,0.367,0.928,-0.183,21700.0
-0.001,0.364,0.929,-0.305,21719.0
-0.005,0.365,0.927,0.061,21738.0
-0.002,0.366,0.926,-0.183,21756.0
-0.004,0.367,0.929,0.061,21776.0
-0.001,0.362,0.926,-0.183,21796.0
-0.001,0.361,0.929,-0.244,21815.0
-0.006,0.365,0.926,-0.244,21837.0
-0.006,0.367,0.925,-0.183,21857.0
-0.004,0.367,0.929,-0.122,21875.0
-0.003,0.365,0.926,-0.183,21896.0
-0.001,0.368,0.926,-0.305,21915.0
-0.003,0.365,0.926,-0.122,21933.0
-0.006,0.368,0.928,-0.183,21952.0
-0.003,0.367,0.925,-0.122,21972.0
-0.004,0.364,0.928,0.0,21992.0
-0.003,0.366,0.928,-0.183,22012.0
-0.004,0.365,0.928,-0.244,22032.0
-0.001,0.365,0.926,-0.122,22052.0
-0.0,0.362,0.928,-0.244,22071.0
-0.004,0.367,0.929,-0.122,22090.0
-0.004,0.363,0.927,-0.183,22109.0
-0.001,0.365,0.925,-0.122,22128.0
-0.003,0.362,0.928,-0.244,22147.0
-0.004,0.365,0.925,-0.244,22164.0
-0.005,0.366,0.931,-0.305,22185.0
-0.006,0.364,0.925,-0.122,22206.0
-0.006,0.361,0.929,-0.061,22226.0
-0.001,0.364,0.93,-0.366,22244.0
-0.002,0.365,0.923,-0.183,22266.0
-0.001,0.365,0.926,0.0,22286.0
-0.004,0.365,0.925,-0.244,22306.0
-0.003,0.365,0.925,-0.183,22328.0
-0.002,0.364,0.927,-0.122,22348.0
-0.005,0.365,0.927,-0.244,22367.0
-0.003,0.363,0.927,-0.305,22386.0
-0.007,0.363,0.927,-0.122,22405.0
-0.003,0.367,0.928,0.0,22426.0
-0.005,0.365,0.924,-0.061,22444.0
-0.003,0.366,0.923,-0.122,22464.0
-0.003,0.365,0.929,-0.122,22484.0
-0.002,0.366,0.928,-0.244,22503.0
-0.002,0.365,0.929,-0.244,22524.0
-0.002,0.362,0.925,0.122,22546.0
-0.006,0.364,0.932,-0.366,22564.0
-0.005,0.364,0.924,-0.122,22585.0
-0.006,0.363,0.924,-0.183,22604.0
-0.001,0.363,0.928,-0.305,22622.0
-0.002,0.362,0.928,-0.183,22644.0
-0.006,0.364,0.927,-0.061,22663.0
-0.003,0.366,0.927,-0.183,22681.0
-0.003,0.364,0.927,-0.122,22701.0
-0.002,0.363,0.926,-0.366,22722.0
-0.004,0.364,0.928,-0.427,22741.0
-0.001,0.364,0.928,-0.061,22759.0
-0.002,0.366,0.921,-0.244,22779.0
-0.006,0.365,0.927,0.122,22797.0
-0.003,0.366,0.928,-0.244,22816.0
-0.005,0.366,0.93,-0.061,22838.0
-0.003,0.365,0.929,-0.244,22860.0
-0.007,0.366,0.928,-0.305,22882.0
-0.003,0.365,0.927,-0.305,22900.0
-0.003,0.365,0.926,-0.244,22921.0
-0.001,0.365,0.928,-0.183,22943.0
-0.004,0.365,0.923,-0.061,22962.0
-0.003,0.363,0.93,-0.183,22986.0
-0.007,0.364,0.922,-0.305,23006.0
-0.004,0.364,0.923,-0.305,23027.0
-0.004,0.363,0.923,-0.122,23049.0
0.002,0.366,0.93,0.061,23068.0
-0.001,0.365,0.925,-0.305,23088.0
-0.001,0.365,0.924,-0.061,23108.0
-0.004,0.364,0.929,-0.183,23127.0
-0.006,0.364,0.925,-0.183,23146.0
-0.004,0.364,0.923,-0.366,23164.0
-0.006,0.363,0.927,0.122,23183.0
-0.004,0.366,0.932,-0.183,23201.0
-0.006,0.367,0.923,-0.061,23222.0
-0.002,0.366,0.924,-0.122,23242.0
-0.004,0.367,0.927,-0.244,23263.0
-0.006,0.365,0.926,-0.183,23282.0
-0.003,0.365,0.931,-0.061,23301.0
-0.004,0.364,0.928,-0.183,23321.0
0.001,0.363,0.924,-0.061,23341.0
-0.005,0.364,0.927,-0.122,23361.0
-0.003,0.364,0.927,-0.061,23383.0
-0.0,0.365,0.929,0.0,23404.0
-0.005,0.365,0.927,-0.183,23424.0
-0.003,0.363,0.924,-0.305,23445.0
-0.004,0.364,0.923,-0.122,23469.0
-0.006,0.365,0.928,-0.122,23490.0
-0.001,0.364,0.927,-0.183,23509.0
-0.005,0.364,0.925,-0.122,23527.0
0.001,0.365,0.927,-0.305,23546.0
-0.003,0.362,0.924,-0.183,23568.0
-0.007,0.361,0.925,-0.366,23587.0
0.003,0.367,0.928,0.061,23608.0
-0.004,0.365,0.923,-0.183,23626.0
-0.004,0.37,0.93,0.061,23646.0
-0.005,0.364,0.926,-0.061,23664.0
-0.002,0.365,0.925,-0.244,23684.0
-0.003,0.365,0.926,-0.183,23702.0
-0.004,0.363,0.926,-0.183,23723.0
-0.005,0.365,0.927,-0.305,23742.0
-0.003,0.365,0.926,-0.122,23763.0
-0.006,0.361,0.932,-0.061,23783.0
-0.003,0.365,0.928,-0.183,23803.0
-0.007,0.364,0.925,-0.244,23825.0
-0.004,0.367,0.928,-0.061,23843.0
-0.006,0.363,0.925,-0.122,23866.0
-0.001,0.364,0.928,-0.244,23888.0
-0.0,0.368,0.926,-0.244,23910.0
-0.004,0.366,0.925,0.0,23928.0
-0.003,0.366,0.928,-0.244,23946.0
-0.002,0.364,0.923,-0.244,23966.0
-0.003,0.364,0.928,-0.122,23985.0
-0.004,0.363,0.929,-0.183,24008.0
-0.006,0.364,0.929,-0.122,24027.0
-0.002,0.365,0.926,-0.244,24048.0
-0.002,0.37,0.927,-0.183,24070.0
-0.002,0.362,0.926,-0.244,24089.0
-0.005,0.363,0.928,-0.488,24108.0
-0.007,0.364,0.898,0.061,24129.0
0.0,0.362,0.897,-1.526,24147.0
-0.004,0.333,1.0,-7.996,24167.0
-0.007,0.338,0.964,6.226,24188.0
0.003,0.357,0.919,4.456,24208.0
-0.005,0.344,0.931,-1.282,24226.0
-0.001,0.345,0.93,-0.305,24248.0
-0.0,0.347,0.932,0.061,24271.0
-0.005,0.346,0.936,0.0,24291.0
-0.006,0.347,0.935,-0.366,24309.0
-0.005,0.346,0.935,-0.122,24330.0
-0.002,0.348,0.937,-0.427,24349.0
-0.001,0.347,0.935,-0.122,24367.0
-0.005,0.346,0.935,-0.244,24387.0
-0.004,0.345,0.934,-0.244,24406.0
-0.007,0.345,0.935,-0.122,24427.0
-0.006,0.344,0.935,-0.122,24449.0
-0.004,0.345,0.933,-0.183,24467.0
-0.006,0.346,0.939,-0.244,24486.0
-0.003,0.345,0.935,-0.305,24507.0
-0.006,0.347,0.935,-0.061,24529.0
-0.005,0.349,0.933,-0.122,24549.0
-0.005,0.347,0.933,0.0,24567.0
-0.004,0.344,0.932,-0.305,24586.0
-0.004,0.345,0.933,-0.366,24604.0
-0.002,0.344,0.924,-0.244,24624.0
-0.004,0.344,0.936,-0.244,24643.0
-0.005,0.348,0.938,-0.305,24663.0
-0.008,0.348,0.93,-0.122,24685.0
-0.002,0.346,0.936,0.122,24705.0
-0.002,0.345,0.933,-0.488,24723.0
-0.003,0.346,0.933,-0.366,24742.0
-0.003,0.349,0.936,-0.122,24760.0
-0.004,0.351,0.942,-0.183,24778.0
-0.004,0.347,0.933,0.061,24797.0
-0.009,0.345,0.935,-0.366,24817.0
-0.003,0.347,0.933,0.122,24835.0
-0.003,0.348,0.936,-0.122,24856.0
-0.0,0.345,0.933,0.0,24875.0
-0.001,0.344,0.934,-0.244,24895.0
-0.006,0.348,0.935,0.0,24913.0
-0.003,0.348,0.934,-0.305,24934.0
-0.002,0.347,0.93,-0.122,24952.0
-0.001,0.346,0.935,-0.183,24970.0
-0.005,0.348,0.933,-0.305,24990.0
-0.003,0.345,0.931,0.061,25009.0
-0.005,0.345,0.933,-0.183,25027.0
-0.006,0.345,0.934,0.0,25048.0
-0.003,0.346,0.934,-0.061,25068.0
-0.003,0.349,0.936,-0.122,25090.0
-0.004,0.346,0.932,-0.183,25111.0
-0.003,0.346,0.935,-0.122,25131.0
-0.006,0.348,0.933,-0.427,25152.0
-0.007,0.345,0.936,-0.183,25170.0
-0.002,0.348,0.934,-0.122,25191.0
-0.001,0.348,0.935,-0.183,25210.0
-0.007,0.345,0.936,-0.183,25233.0
-0.0,0.347,0.938,-0.244,25250.0
-0.004,0.345,0.933,-0.061,25270.0
-0.002,0.346,0.933,-0.244,25291.0
-0.004,0.347,0.934,-0.122,25308.0
-0.004,0.347,0.934,-0.122,25330.0
-0.005,0.347,0.935,0.0,25349.0
-0.007,0.344,0.934,-0.427,25367.0
-0.003,0.347,0.934,-0.183,25388.0
-0.002,0.348,0.934,-0.122,25408.0
-0.007,0.347,0.936,-0.061,25428.0
-0.002,0.346,0.936,0.122,25448.0
-0.001,0.345,0.934,-0.061,25467.0
-0.001,0.347,0.934,-0.122,25486.0
-0.008,0.348,0.933,-0.305,25505.0
-0.003,0.346,0.938,-0.305,25523.0
-0.002,0.344,0.929,0.061,25543.0
-0.004,0.345,0.937,0.0,25563.0
-0.006,0.347,0.933,-0.122,25583.0
-0.004,0.346,0.93,-0.061,25604.0
-0.005,0.345,0.933,-0.244,25623.0
-0.007,0.347,0.938,-0.305,25641.0
-0.004,0.346,0.937,-0.427,25662.0
-0.003,0.348,0.929,0.122,25684.0
-0.003,0.347,0.942,-0.122,25702.0
-0.007,0.344,0.932,-0.488,25725.0
-0.005,0.347,0.937,-0.549,25746.0
0.0,0.347,0.933,-0.427,25766.0
-0.001,0.347,0.93,-0.122,25784.0
0.003,0.35,0.935,0.0,25804.0
-0.003,0.346,0.934,-0.427,25823.0
0.0,0.346,0.936,-0.061,25843.0
-0.004,0.344,0.934,-0.183,25864.0
-0.011,0.344,0.934,-0.366,25883.0
-0.007,0.343,0.929,-0.305,25905.0
-0.007,0.344,0.933,-0.549,25923.0
-0.007,0.346,0.937,-0.305,25942.0
-0.005,0.346,0.931,-0.061,25963.0
-0.007,0.348,0.933,-0.183,25983.0
-0.006,0.344,0.937,0.0,26002.0
-0.004,0.346,0.936,-0.305,26023.0
-0.004,0.347,0.933,-0.305,26042.0
-0.005,0.346,0.938,-0.183,26061.0
-0.007,0.346,0.93,-0.061,26081.0
-0.007,0.348,0.926,-0.061,26106.0
-0.005,0.349,0.941,-0.122,26127.0
-0.004,0.347,0.934,-0.427,26146.0
-0.004,0.347,0.937,-0.305,26165.0
-0.007,0.346,0.936,-0.244,26185.0
-0.007,0.348,0.931,-0.122,26203.0
-0.007,0.345,0.934,0.183,26225.0
-0.007,0.346,0.946,-0.305,26243.0
-0.003,0.348,0.941,-0.793,26264.0
-0.001,0.351,0.923,0.427,26284.0
0.001,0.348,0.925,0.671,26304.0
-0.006,0.346,0.938,0.122,26326.0
-0.005,0.348,0.941,-0.61,26345.0
-0.001,0.351,0.932,0.0,26365.0
-0.009,0.345,0.927,0.427,26387.0
-0.007,0.349,0.951,-0.122,26405.0
-0.008,0.329,0.884,0.671,26426.0
-0.006,0.335,0.946,-1.953,26444.0
-0.004,0.333,0.909,-0.854,26464.0
-0.011,0.341,0.938,-0.61,26485.0
0.001,0.348,0.94,-0.488,26503.0
-0.007,0.347,0.941,0.244,26524.0
-0.001,0.353,0.945,0.305,26542.0
0.0,0.356,0.948,1.038,26560.0
-0.008,0.34,0.929,-0.793,26582.0
-0.009,0.344,0.906,0.732,26600.0
-0.003,0.346,0.934,0.549,26625.0
0.003,0.349,0.945,-0.366,26646.0
0.004,0.341,0.93,-0.488,26666.0
0.006,0.34,0.926,-0.305,26684.0
0.005,0.34,0.93,-0.488,26704.0
0.01,0.349,0.934,-0.122,26725.0
0.003,0.349,0.931,-0.183,26744.0
-0.003,0.344,0.935,-0.183,26763.0
-0.006,0.346,0.938,-0.488,26787.0
-0.002,0.347,0.934,-0.122,26805.0
-0.004,0.349,0.936,-0.122,26825.0
-0.003,0.346,0.937,-0.244,26845.0
-0.002,0.344,0.935,0.061,26866.0
0.001,0.346,0.935,0.122,26885.0
0.002,0.347,0.932,-0.061,26904.0
0.006,0.348,0.933,0.061,26922.0
0.007,0.345,0.936,-0.061,26943.0
0.004,0.344,0.937,-0.244,26961.0
-0.003,0.346,0.937,-0.61,26979.0
-0.003,0.345,0.932,-0.427,26999.0
-0.005,0.348,0.933,0.0,27019.0
-0.003,0.354,0.935,-0.122,27040.0
-0.001,0.348,0.94,-0.122,27061.0
0.001,0.346,0.937,-0.488,27083.0
0.0,0.343,0.933,0.061,27103.0
0.005,0.345,0.932,-0.061,27124.0
-0.0,0.346,0.936,-0.244,27144.0
0.003,0.348,0.934,-0.183,27162.0
0.001,0.347,0.933,-0.183,27180.0
-0.002,0.345,0.935,-0.122,27202.0
-0.0,0.344,0.936,-0.427,27221.0
-0.006,0.348,0.936,-0.122,27241.0
-0.006,0.349,0.935,0.0,27259.0
0.001,0.35,0.934,-0.122,27279.0
0.002,0.349,0.934,-0.183,27299.0
0.006,0.347,0.932,0.0,27319.0
0.007,0.344,0.933,-0.305,27341.0
0.006,0.345,0.936,-0.122,27362.0
0.002,0.344,0.936,-0.244,27382.0
0.002,0.349,0.931,-0.183,27403.0
-0.001,0.346,0.936,-0.244,27422.0
-0.005,0.346,0.932,-0.305,27443.0
-0.003,0.348,0.932,-0.305,27462.0
-0.001,0.349,0.931,-0.122,27484.0
-0.002,0.349,0.934,0.061,27502.0
0.0,0.345,0.932,-0.244,27521.0
0.004,0.345,0.934,-0.427,27539.0
0.006,0.35,0.931,-0.366,27559.0
0.007,0.346,0.931,0.0,27577.0
0.009,0.345,0.933,-0.305,27599.0
0.006,0.346,0.933,-0.122,27618.0
0.001,0.346,0.932,-0.366,27638.0
-0.003,0.35,0.935,-0.122,27659.0
-0.005,0.349,0.937,-0.122,27679.0
-0.006,0.349,0.933,-0.183,27697.0
-0.002,0.349,0.936,-0.122,27715.0
0.002,0.347,0.936,-0.061,27737.0
0.002,0.349,0.937,-0.061,27760.0
0.003,0.348,0.934,-0.061,27779.0
0.004,0.343,0.934,-0.122,27800.0
0.003,0.344,0.932,-0.183,27822.0
0.003,0.346,0.933,-0.183,27843.0
0.003,0.348,0.936,-0.183,27863.0
0.0,0.349,0.936,-0.183,27881.0
-0.001,0.346,0.933,0.0,27901.0
-0.003,0.347,0.934,-0.183,27919.0
-0.002,0.347,0.935,-0.183,27938.0
0.002,0.346,0.938,-0.366,27958.0
0.002,0.345,0.935,0.0,27977.0
0.006,0.346,0.933,-0.122,27997.0
0.004,0.348,0.934,-0.061,28017.0
0.0,0.345,0.933,-0.244,28037.0
0.003,0.347,0.935,-0.183,28055.0
0.0,0.35,0.939,-0.183,28074.0
-0.0,0.348,0.936,-0.183,28095.0
-0.004,0.348,0.935,-0.183,28114.0
0.0,0.348,0.933,-0.122,28136.0
-0.002,0.349,0.933,0.061,28154.0
0.0,0.345,0.935,-0.061,28174.0
-0.003,0.347,0.936,-0.183,28192.0
0.006,0.346,0.935,-0.122,28212.0
0.004,0.344,0.933,-0.061,28230.0
0.006,0.347,0.934,0.061,28250.0
0.004,0.345,0.935,-0.366,28271.0
0.001,0.345,0.932,-0.427,28290.0
0.001,0.346,0.934,-0.061,28308.0
-0.004,0.345,0.932,-0.183,28328.0
-0.001,0.346,0.941,0.183,28346.0
-0.004,0.35,0.932,-0.122,28367.0
-0.001,0.348,0.936,-0.061,28386.0
0.0,0.347,0.93,-0.183,28404.0
0.002,0.345,0.935,-0.305,28425.0
0.005,0.345,0.933,-0.366,28443.0
0.004,0.342,0.932,-0.061,28461.0
0.008,0.344,0.936,-0.122,28481.0
0.002,0.345,0.936,-0.305,28500.0
-0.001,0.345,0.933,-0.244,28520.0
0.001,0.344,0.937,-0.061,28539.0
-0.005,0.345,0.936,-0.122,28559.0
-0.003,0.348,0.936,-0.244,28581.0
-0.003,0.343,0.936,-0.305,28599.0
-0.003,0.344,0.936,0.122,28618.0
0.002,0.345,0.932,-0.122,28638.0
0.003,0.347,0.933,-0.061,28656.0
0.004,0.343,0.934,-0.244,28675.0
0.004,0.344,0.937,-0.183,28695.0
0.006,0.345,0.933,-0.366,28713.0
0.003,0.346,0.935,-0.122,28734.0
-0.001,0.349,0.938,-0.427,28753.0
0.003,0.347,0.934,0.0,28776.0
-0.001,0.344,0.934,-0.122,28796.0
0.001,0.348,0.934,0.0,28815.0
0.002,0.348,0.934,-0.061,28839.0
0.0,0.349,0.937,-0.122,28861.0
0.004,0.348,0.935,0.183,28882.0
0.003,0.345,0.937,-0.183,28901.0
0.001,0.344,0.935,-0.122,28922.0
0.002,0.344,0.935,-0.427,28944.0
0.002,0.347,0.931,-0.366,28962.0
-0.002,0.348,0.935,-0.244,28982.0
-0.003,0.345,0.937,-0.122,29000.0
-0.001,0.347,0.934,-0.183,29020.0
-0.003,0.346,0.933,-0.183,29042.0
0.001,0.346,0.933,-0.305,29062.0
0.003,0.345,0.934,-0.366,29085.0
0.003,0.344,0.937,-0.061,29102.0
0.008,0.348,0.933,-0.183,29121.0
0.004,0.345,0.931,-0.183,29138.0
0.001,0.345,0.936,-0.305,29158.0
-0.002,0.346,0.935,-0.183,29178.0
-0.002,0.344,0.934,-0.122,29199.0
-0.001,0.346,0.93,-0.244,29219.0
-0.004,0.348,0.935,-0.305,29238.0
-0.001,0.346,0.933,-0.061,29257.0
0.0,0.348,0.93,-0.061,29275.0
0.003,0.344,0.934,0.0,29294.0
-0.0,0.344,0.932,-0.244,29312.0
0.005,0.348,0.935,-0.122,29332.0
0.002,0.344,0.934,-0.366,29350.0
0.003,0.347,0.934,-0.122,29368.0
-0.001,0.349,0.938,-0.244,29388.0
-0.002,0.347,0.937,-0.244,29408.0
-0.0,0.346,0.936,-0.244,29429.0
-0.002,0.348,0.935,-0.183,29451.0
0.0,0.347,0.932,-0.183,29470.0
-0.001,0.347,0.938,-0.183,29491.0
0.003,0.344,0.933,-0.122,29511.0
0.004,0.344,0.934,-0.061,29530.0
0.005,0.344,0.934,-0.061,29549.0
0.003,0.347,0.934,-0.122,29568.0
0.0,0.348,0.934,-0.427,29588.0
-0.001,0.345,0.933,-0.061,29608.0
0.0,0.347,0.933,-0.305,29628.0
0.001,0.345,0.935,-0.122,29648.0
-0.0,0.349,0.936,-0.122,29668.0
0.0,0.345,0.938,-0.122,29686.0
0.001,0.344,0.933,0.061,29706.0
0.001,0.344,0.937,-0.122,29724.0
0.004,0.347,0.93,-0.244,29743.0
0.003,0.347,0.935,-0.122,29763.0
0.004,0.345,0.934,-0.061,29783.0
0.002,0.346,0.933,-0.183,29804.0
0.004,0.35,0.934,-0.488,29826.0
-0.002,0.346,0.935,-0.183,29845.0
-0.0,0.35,0.936,-0.305,29864.0
-0.001,0.348,0.936,-0.061,29882.0
0.002,0.346,0.935,-0.122,29902.0
0.002,0.346,0.93,-0.122,29923.0
-0.0,0.344,0.934,-0.244,29941.0
0.004,0.347,0.936,-0.061,29961.0
0.001,0.347,0.932,-0.244,29980.0
-0.0,0.349,0.935,-0.122,30000.0
0.002,0.344,0.934,-0.244,30018.0
0.002,0.345,0.931,-0.244,30036.0
0.002,0.347,0.936,-0.122,30054.0
0.002,0.348,0.934,-0.244,30074.0
0.002,0.346,0.934,-0.061,30092.0
-0.001,0.348,0.934,-0.183,30112.0
0.0,0.347,0.934,-0.122,30132.0
0.0,0.345,0.935,-0.061,30152.0
0.001,0.345,0.935,-0.061,30172.0
0.002,0.347,0.933,-0.122,30193.0
0.003,0.346,0.931,-0.061,30212.0
0.002,0.344,0.934,-0.244,30231.0
-0.003,0.349,0.935,-0.122,30250.0
0.0,0.346,0.934,-0.183,30269.0
0.001,0.346,0.935,-0.244,30291.0
0.001,0.349,0.935,-0.183,30312.0
-0.0,0.349,0.933,-0.305,30330.0
-0.002,0.346,0.936,-0.183,30350.0
-0.001,0.347,0.936,-0.061,30368.0
-0.001,0.346,0.938,-0.061,30387.0
0.001,0.346,0.934,-0.122,30406.0
0.001,0.345,0.933,-0.305,30426.0
0.001,0.347,0.932,-0.244,30444.0
-0.001,0.348,0.938,-0.122,30463.0
0.001,0.345,0.933,-0.244,30481.0
0.003,0.35,0.931,-0.061,30501.0
0.003,0.345,0.936,-0.244,30521.0
0.003,0.349,0.935,0.0,30541.0
-0.0,0.342,0.937,-0.244,30561.0
-0.001,0.346,0.935,-0.122,30580.0
-0.001,0.345,0.934,-0.305,30598.0
-0.0,0.347,0.933,-0.183,30619.0
0.003,0.344,0.932,-0.305,30639.0
0.003,0.343,0.935,-0.183,30658.0
0.001,0.345,0.935,-0.183,30676.0
0.002,0.348,0.936,-0.244,30695.0
0.003,0.345,0.938,-0.183,30714.0
0.0,0.35,0.932,-0.244,30733.0
0.0,0.344,0.936,-0.244,30753.0
0.0,0.345,0.935,0.061,30773.0
-0.002,0.345,0.937,-0.305,30793.0
0.0,0.347,0.937,-0.183,30813.0
0.006,0.349,0.934,-0.244,30835.0
-0.001,0.35,0.935,-0.244,30856.0
-0.001,0.348,0.933,-0.305,30874.0
0.002,0.346,0.933,-0.122,30894.0
0.004,0.349,0.935,-0.061,30912.0
-0.001,0.347,0.937,-0.305,30934.0
-0.0,0.345,0.934,0.0,30953.0
0.004,0.347,0.933,-0.122,30973.0
0.002,0.346,0.935,-0.122,30992.0
-0.0,0.346,0.936,-0.122,31011.0
0.001,0.346,0.935,-0.122,31036.0
0.002,0.347,0.931,-0.183,31054.0
0.003,0.345,0.934,-0.183,31073.0
0.0,0.349,0.936,-0.122,31094.0
-0.001,0.35,0.933,-0.305,31115.0
0.002,0.346,0.935,-0.122,31135.0
-0.001,0.345,0.933,0.0,31155.0
0.0,0.348,0.933,-0.244,31174.0
-0.001,0.344,0.934,-0.122,31198.0
-0.001,0.347,0.934,-0.061,31217.0
0.0,0.347,0.935,-0.122,31235.0
0.002,0.348,0.933,-0.183,31255.0
0.002,0.348,0.935,-0.244,31273.0
0.001,0.345,0.933,-0.183,31297.0
0.002,0.348,0.934,-0.061,31319.0
0.001,0.347,0.932,-0.305,31341.0
-0.002,0.348,0.934,-0.183,31363.0
-0.0,0.347,0.936,-0.183,31381.0
0.0,0.347,0.934,-0.244,31405.0
0.003,0.347,0.936,-0.183,31423.0
0.001,0.348,0.933,0.061,31444.0
-0.001,0.345,0.936,0.0,31463.0
0.003,0.347,0.935,-0.183,31481.0
0.004,0.347,0.931,-0.183,31499.0
0.002,0.345,0.936,-0.366,31517.0
0.003,0.347,0.932,-0.183,31537.0
0.001,0.347,0.934,-0.122,31558.0
0.004,0.347,0.933,-0.122,31578.0
0.003,0.345,0.935,-0.061,31597.0
-0.002,0.345,0.935,-0.122,31618.0
-0.001,0.348,0.933,-0.244,31640.0
0.002,0.346,0.937,-0.244,31660.0
-0.0,0.344,0.934,-0.061,31680.0
0.001,0.345,0.933,0.0,31698.0
0.0,0.345,0.933,-0.183,31716.0
0.002,0.344,0.937,-0.122,31736.0
0.0,0.347,0.936,-0.244,31757.0
0.002,0.344,0.933,-0.183,31776.0
0.001,0.347,0.934,-0.244,31798.0
-0.002,0.345,0.934,-0.183,31819.0
-0.001,0.346,0.935,-0.183,31840.0
-0.001,0.346,0.934,-0.122,31859.0
-0.0,0.344,0.936,-0.122,31877.0
0.003,0.344,0.934,-0.244,31898.0
0.001,0.346,0.932,-0.183,31921.0
0.004,0.346,0.932,-0.183,31941.0
0.0,0.348,0.935,-0.366,31961.0
0.0,0.348,0.937,-0.244,31982.0
0.004,0.347,0.935,-0.427,32005.0
0.001,0.347,0.935,-0.183,32025.0
0.0,0.344,0.933,-0.122,32045.0
0.002,0.345,0.936,-0.061,32067.0
-0.0,0.347,0.934,0.0,32088.0
0.004,0.346,0.934,0.061,32109.0
0.003,0.345,0.934,-0.183,32129.0
0.004,0.347,0.935,-0.122,32149.0
0.005,0.346,0.933,0.0,32170.0
0.0,0.345,0.935,-0.122,32188.0
0.001,0.344,0.937,-0.122,32209.0
-0.002,0.348,0.937,-0.244,32228.0
-0.003,0.343,0.933,-0.366,32249.0
0.001,0.346,0.932,-0.122,32269.0
-0.001,0.345,0.933,-0.061,32289.0
0.002,0.348,0.937,-0.366,32308.0
0.002,0.348,0.931,-0.244,32328.0
0.006,0.346,0.932,-0.183,32349.0
0.001,0.349,0.932,-0.427,32371.0
0.001,0.348,0.934,-0.061,32391.0
-0.003,0.347,0.935,-0.061,32409.0
-0.001,0.348,0.935,-0.244,32430.0
0.005,0.346,0.934,-0.244,32448.0
0.0,0.345,0.936,-0.122,32469.0
0.003,0.345,0.934,-0.244,32489.0
0.001,0.345,0.934,-0.183,32508.0
0.003,0.344,0.93,-0.488,32527.0
0.001,0.347,0.932,0.0,32546.0
0.002,0.345,0.933,-0.244,32567.0
0.003,0.344,0.931,-0.061,32585.0
0.001,0.346,0.935,-0.488,32603.0
0.0,0.346,0.935,-0.305,32625.0
0.0,0.346,0.937,0.0,32649.0
0.001,0.344,0.936,-0.122,32669.0
-0.0,0.347,0.937,-0.061,32689.0
-0.002,0.346,0.936,-0.183,32707.0
0.004,0.343,0.934,-0.122,32725.0
0.004,0.344,0.934,-0.244,32743.0
0.004,0.344,0.936,0.0,32769.0
-0.001,0.348,0.938,0.0,32789.0
0.001,0.346,0.934,-0.122,32809.0
0.001,0.347,0.935,-0.305,32829.0
0.002,0.347,0.932,-0.122,32847.0
0.002,0.346,0.933,-0.122,32869.0
0.001,0.345,0.937,-0.122,32887.0
0.001,0.347,0.934,-0.122,32907.0
0.0,0.345,0.936,-0.061,32927.0
0.005,0.347,0.934,-0.061,32946.0
0.001,0.346,0.933,-0.122,32965.0
0.001,0.347,0.936,-0.305,32984.0
0.001,0.344,0.932,-0.122,33004.0
0.003,0.348,0.932,-0.183,33025.0
-0.002,0.344,0.934,-0.244,33044.0
0.0,0.344,0.934,-0.122,33062.0
0.001,0.342,0.938,-0.061,33084.0
0.001,0.346,0.934,-0.183,33103.0
-0.001,0.345,0.935,-0.244,33123.0
0.004,0.344,0.932,0.0,33142.0
0.005,0.346,0.934,-0.427,33162.0
0.0,0.342,0.937,0.0,33182.0
-0.0,0.35,0.937,-0.122,33202.0
0.004,0.345,0.934,-0.183,33221.0
0.0,0.348,0.935,-0.244,33244.0
0.002,0.347,0.934,0.0,33262.0
0.001,0.348,0.935,-0.244,33282.0
0.0,0.351,0.933,-0.244,33303.0
0.002,0.346,0.934,-0.305,33323.0
-0.003,0.344,0.937,-0.244,33345.0
-0.001,0.347,0.933,-0.305,33363.0
0.003,0.347,0.935,-0.183,33383.0
0.003,0.347,0.932,-0.183,33403.0
0.001,0.346,0.935,-0.122,33421.0
-0.001,0.352,0.933,-0.183,33440.0
0.0,0.348,0.933,-0.061,33462.0
0.004,0.348,0.931,-0.244,33486.0
-0.001,0.346,0.937,-0.305,33505.0
-0.002,0.344,0.933,-0.183,33526.0
0.004,0.349,0.935,-0.305,33545.0
-0.002,0.347,0.933,0.061,33563.0
0.002,0.346,0.935,-0.183,33584.0
0.005,0.346,0.932,-0.122,33604.0
0.004,0.348,0.934,-0.122,33623.0
0.001,0.346,0.938,-0.305,33641.0
0.002,0.348,0.935,-0.427,33659.0
0.002,0.348,0.931,-0.183,33677.0
0.001,0.341,0.936,-0.122,33699.0
-0.002,0.347,0.934,-0.061,33719.0
0.002,0.347,0.932,-0.244,33738.0
0.003,0.345,0.936,-0.305,33758.0
-0.002,0.347,0.932,-0.244,33776.0
0.001,0.347,0.936,-0.305,33797.0
0.003,0.345,0.932,-0.183,33816.0
0.004,0.346,0.936,-0.183,33836.0
0.001,0.347,0.933,-0.244,33855.0
0.002,0.348,0.936,-0.061,33875.0
0.0,0.345,0.934,-0.244,33897.0
-0.0,0.346,0.932,-0.183,33915.0
-0.001,0.345,0.935,-0.122,33933.0
-0.001,0.347,0.935,-0.122,33953.0
0.002,0.35,0.933,-0.061,33972.0
0.001,0.348,0.938,-0.183,33992.0
0.002,0.344,0.934,-0.183,34012.0
0.001,0.346,0.93,-0.183,34030.0
0.002,0.349,0.932,-0.305,34049.0
-0.001,0.345,0.937,-0.061,34067.0
0.004,0.346,0.934,-0.305,34087.0
0.0,0.347,0.934,-0.061,34106.0
-0.0,0.346,0.933,-0.061,34126.0
0.0,0.348,0.937,-0.488,34145.0
-0.0,0.344,0.934,-0.122,34163.0
0.001,0.345,0.929,-0.122,34181.0
0.004,0.347,0.935,0.0,34202.0
0.003,0.343,0.934,-0.183,34222.0
0.003,0.347,0.934,-0.061,34241.0
0.002,0.345,0.931,-0.244,34262.0
0.004,0.345,0.933,-0.183,34282.0
-0.001,0.347,0.938,-0.244,34302.0
0.001,0.347,0.935,-0.122,34320.0
0.001,0.346,0.938,-0.427,34341.0
0.001,0.344,0.935,-0.427,34361.0
-0.0,0.348,0.935,-0.305,34379.0
0.002,0.349,0.932,-0.183,34400.0
0.002,0.344,0.936,-0.122,34419.0
0.001,0.347,0.932,-0.366,34437.0
-0.0,0.346,0.934,-0.305,34455.0
0.001,0.346,0.932,0.061,34474.0
0.003,0.347,0.934,0.0,34492.0
0.001,0.346,0.937,-0.305,34514.0
0.0,0.347,0.933,-0.427,34532.0
0.003,0.347,0.936,0.0,34552.0
0.001,0.349,0.936,-0.305,34573.0
0.001,0.343,0.933,-0.183,34591.0
0.003,0.348,0.935,-0.244,34611.0
0.002,0.347,0.934,-0.122,34633.0
0.0,0.346,0.933,-0.122,34652.0
0.002,0.347,0.934,-0.244,34672.0
0.002,0.347,0.937,-0.244,34690.0
0.0,0.344,0.935,-0.183,34714.0
0.005,0.349,0.934,-0.061,34734.0
-0.002,0.347,0.938,-0.061,34753.0
0.002,0.347,0.937,-0.183,34774.0
0.001,0.344,0.933,-0.244,34792.0
-0.0,0.346,0.934,-0.244,34815.0
-0.001,0.345,0.933,-0.061,34836.0
0.0,0.347,0.939,-0.061,34857.0
0.003,0.347,0.933,-0.244,34876.0
-0.001,0.348,0.934,-0.122,34895.0
-0.0,0.348,0.935,-0.061,34918.0
0.003,0.345,0.937,-0.244,34937.0
0.003,0.345,0.935,-0.061,34955.0
0.003,0.347,0.933,-0.122,34975.0
0.002,0.347,0.935,-0.244,34993.0
0.002,0.35,0.935,-0.183,35014.0
0.003,0.349,0.933,-0.305,35035.0
0.002,0.347,0.933,-0.122,35055.0
0.0,0.345,0.934,-0.122,35076.0
0.003,0.345,0.931,0.061,35096.0
0.001,0.349,0.931,-0.122,35115.0
0.003,0.345,0.936,-0.183,35134.0
0.001,0.345,0.934,-0.122,35154.0
0.001,0.345,0.934,-0.183,35174.0
0.0,0.346,0.935,-0.244,35192.0
0.003,0.345,0.931,-0.244,35211.0
-0.001,0.346,0.933,-0.061,35230.0
0.002,0.346,0.932,-0.183,35250.0
0.003,0.346,0.934,-0.244,35269.0
0.002,0.345,0.938,-0.122,35291.0
0.0,0.348,0.936,-0.244,35309.0
0.002,0.349,0.938,-0.122,35330.0
0.0,0.344,0.936,-0.183,35350.0
0.0,0.344,0.932,-0.061,35370.0
0.002,0.345,0.932,-0.305,35390.0
0.003,0.344,0.934,-0.122,35411.0
-0.001,0.348,0.936,0.0,35431.0
0.003,0.345,0.936,-0.305,35450.0
-0.0,0.35,0.936,-0.183,35472.0
0.002,0.347,0.932,-0.122,35493.0
0.004,0.347,0.933,-0.305,35512.0
0.003,0.347,0.935,-0.122,35531.0
0.005,0.347,0.935,-0.061,35551.0
0.002,0.347,0.933,-0.061,35569.0
0.0,0.347,0.931,-0.183,35589.0
-0.001,0.345,0.934,-0.061,35607.0
0.002,0.346,0.931,-0.244,35628.0
0.0,0.347,0.932,-0.183,35647.0
0.004,0.344,0.934,-0.244,35667.0
0.001,0.347,0.933,-0.183,35685.0
0.002,0.345,0.932,-0.122,35703.0
0.002,0.347,0.931,0.0,35722.0
-0.002,0.348,0.934,-0.122,35741.0
0.0,0.345,0.933,-0.183,35761.0
0.0,0.347,0.931,-0.061,35779.0
-0.0,0.348,0.936,-0.183,35799.0
0.002,0.344,0.935,-0.244,35817.0
-0.001,0.347,0.935,-0.244,35835.0
-0.001,0.346,0.933,-0.305,35857.0
-0.002,0.346,0.934,-0.244,35877.0
0.001,0.346,0.933,-0.122,35896.0
0.001,0.346,0.934,-0.183,35920.0
0.002,0.345,0.934,-0.183,35941.0
0.004,0.346,0.936,-0.122,35961.0
-0.0,0.344,0.934,-0.122,35982.0
0.002,0.345,0.935,-0.122,36001.0
0.003,0.35,0.934,-0.122,36021.0
0.0,0.347,0.934,-0.305,36040.0
-0.001,0.346,0.935,-0.122,36062.0
-0.0,0.347,0.937,-0.305,36080.0
0.001,0.344,0.935,-0.061,36100.0
0.003,0.346,0.935,-0.183,36118.0
-0.001,0.347,0.935,-0.183,36136.0
0.0,0.348,0.936,-0.305,36158.0
0.002,0.346,0.937,-0.244,36177.0
0.001,0.344,0.933,-0.061,36196.0
0.0,0.346,0.936,-0.244,36214.0
-0.003,0.347,0.936,-0.183,36232.0
0.004,0.347,0.937,0.0,36252.0
0.0,0.345,0.935,-0.244,36270.0
-0.001,0.345,0.933,-0.427,36289.0
0.0,0.345,0.931,-0.244,36310.0
0.0,0.348,0.936,-0.122,36330.0
0.002,0.344,0.934,-0.122,36350.0
0.0,0.349,0.929,-0.122,36369.0
-0.003,0.348,0.935,-0.061,36387.0
-0.001,0.347,0.935,-0.061,36408.0
0.002,0.347,0.934,-0.183,36426.0
0.001,0.348,0.934,-0.244,36446.0
0.001,0.345,0.934,-0.244,36467.0
0.002,0.346,0.934,-0.122,36485.0
0.0,0.344,0.933,-0.061,36506.0
0.001,0.347,0.934,-0.183,36526.0
0.0,0.347,0.934,-0.183,36546.0
0.002,0.347,0.938,-0.183,36567.0
0.0,0.343,0.934,-0.183,36586.0
0.002,0.344,0.937,-0.122,36605.0
-0.0,0.344,0.931,-0.427,36625.0
-0.002,0.346,0.935,-0.244,36643.0
-0.0,0.345,0.936,-0.366,36664.0
0.003,0.343,0.932,-0.122,36684.0
0.002,0.345,0.933,-0.122,36704.0
-0.0,0.346,0.933,-0.305,36724.0
-0.001,0.348,0.933,-0.061,36744.0
0.001,0.348,0.936,0.0,36764.0
0.003,0.349,0.933,-0.122,36784.0
-0.001,0.348,0.933,-0.366,36805.0
0.004,0.346,0.937,-0.305,36826.0
0.001,0.345,0.932,-0.183,36847.0
-0.001,0.345,0.934,-0.122,36868.0
0.003,0.347,0.934,-0.305,36888.0
0.003,0.349,0.935,-0.122,36907.0
-0.0,0.347,0.936,-0.122,36928.0
0.001,0.347,0.934,0.0,36947.0
0.001,0.347,0.935,0.0,36968.0
-0.001,0.346,0.937,-0.244,36987.0
0.002,0.35,0.934,-0.183,37005.0
0.0,0.343,0.933,-0.244,37025.0
-0.001,0.346,0.934,-0.122,37043.0
-0.0,0.348,0.932,-0.183,37064.0
0.0,0.343,0.936,-0.244,37085.0
0.003,0.347,0.933,-0.183,37103.0
0.0,0.347,0.934,-0.183,37126.0
0.0,0.348,0.933,-0.244,37144.0
-0.0,0.345,0.934,-0.183,37165.0
0.003,0.346,0.934,-0.183,37183.0
0.002,0.348,0.934,-0.061,37201.0
-0.001,0.347,0.931,-0.122,37222.0
0.0,0.349,0.934,-0.183,37244.0
-0.001,0.35,0.937,-0.122,37263.0
0.002,0.346,0.935,0.061,37282.0
-0.001,0.349,0.936,-0.183,37301.0
-0.001,0.345,0.933,-0.183,37321.0
-0.0,0.344,0.933,-0.183,37340.0
0.0,0.347,0.936,0.0,37358.0
-0.001,0.345,0.934,-0.305,37377.0
0.001,0.346,0.933,-0.244,37395.0
0.0,0.345,0.936,-0.183,37417.0
0.002,0.349,0.935,-0.183,37436.0
0.002,0.348,0.934,-0.061,37455.0
0.001,0.347,0.935,-0.122,37478.0
0.003,0.344,0.933,-0.305,37498.0
0.002,0.345,0.932,-0.366,37517.0
0.001,0.346,0.935,0.061,37537.0
-0.002,0.348,0.933,0.0,37557.0
0.001,0.345,0.933,-0.183,37580.0
0.006,0.347,0.934,-0.183,37599.0
0.001,0.347,0.933,-0.061,37619.0
0.002,0.347,0.933,-0.061,37640.0
0.002,0.348,0.93,-0.244,37660.0
-0.001,0.345,0.935,-0.244,37682.0
0.004,0.346,0.935,-0.061,37701.0
-0.001,0.346,0.935,-0.183,37720.0
0.0,0.346,0.933,-0.061,37743.0
-0.002,0.349,0.933,-0.183,37762.0
0.003,0.347,0.937,-0.183,37786.0
0.0,0.345,0.933,-0.183,37805.0
0.0,0.348,0.936,-0.366,37824.0
0.002,0.346,0.934,-0.122,37844.0
0.003,0.347,0.934,-0.244,37863.0
0.003,0.345,0.933,-0.244,37886.0
0.0,0.345,0.933,-0.183,37905.0
-0.001,0.345,0.931,-0.122,37924.0
0.001,0.344,0.932,-0.061,37947.0
-0.001,0.348,0.937,-0.244,37966.0
0.0,0.348,0.935,-0.244,37989.0
0.0,0.347,0.934,-0.183,38009.0
-0.002,0.348,0.935,-0.366,38027.0
-0.001,0.345,0.933,-0.244,38047.0
-0.001,0.346,0.937,-0.244,38065.0
-0.002,0.343,0.935,0.0,38084.0
-0.001,0.344,0.938,-0.122,38104.0
0.002,0.347,0.933,-0.183,38124.0
0.001,0.344,0.935,-0.305,38144.0
0.001,0.345,0.935,-0.305,38163.0
0.0,0.346,0.934,0.122,38182.0
0.0,0.347,0.936,-0.305,38204.0
0.003,0.346,0.936,-0.244,38223.0
0.002,0.347,0.933,-0.183,38242.0
0.0,0.346,0.932,-0.305,38266.0
0.002,0.346,0.934,-0.244,38284.0
0.001,0.348,0.936,0.0,38307.0
-0.004,0.347,0.936,-0.183,38326.0
-0.004,0.346,0.937,-0.183,38345.0
-0.001,0.345,0.933,-0.183,38365.0
0.001,0.346,0.935,-0.183,38383.0
0.002,0.347,0.936,-0.244,38404.0
0.0,0.348,0.932,-0.244,38424.0
0.0,0.347,0.931,0.0,38442.0
-0.0,0.347,0.936,-0.183,38465.0
0.001,0.348,0.936,-0.183,38483.0
-0.0,0.345,0.934,-0.183,38503.0
0.001,0.344,0.937,-0.061,38522.0
0.003,0.349,0.934,-0.122,38542.0
0.0,0.347,0.935,-0.244,38563.0
0.0,0.345,0.934,-0.183,38582.0
0.002,0.347,0.934,-0.305,38603.0
0.002,0.348,0.933,-0.122,38624.0
-0.001,0.349,0.931,-0.305,38645.0
-0.001,0.348,0.937,-0.122,38664.0
0.003,0.348,0.935,-0.183,38682.0
-0.002,0.348,0.934,-0.244,38705.0
0.001,0.348,0.933,-0.061,38725.0
-0.001,0.346,0.932,-0.061,38744.0
0.003,0.344,0.937,-0.183,38764.0
-0.0,0.347,0.934,-0.244,38782.0
0.001,0.345,0.933,-0.122,38802.0
0.003,0.343,0.932,-0.183,38821.0
-0.0,0.346,0.933,-0.183,38843.0
0.005,0.347,0.935,-0.122,38864.0
-0.0,0.346,0.933,-0.244,38883.0
-0.008,0.336,0.92,-0.244,38903.0
-0.003,0.341,0.943,-0.366,38923.0
0.009,0.354,0.938,-0.549,38941.0
0.006,0.347,0.925,-0.488,38965.0
0.002,0.344,0.93,0.427,38984.0
-0.007,0.344,0.94,-0.244,39004.0
-0.004,0.343,0.939,-0.854,39022.0
0.007,0.347,0.932,0.0,39040.0
0.004,0.343,0.933,0.0,39061.0
-0.001,0.348,0.938,-0.488,39081.0
-0.005,0.347,0.935,-0.244,39101.0
-0.004,0.344,0.935,-0.183,39125.0
0.001,0.349,0.937,0.061,39143.0
0.007,0.347,0.936,-0.061,39163.0
0.004,0.343,0.929,-0.183,39183.0
0.001,0.345,0.932,-0.305,39201.0
-0.003,0.345,0.937,-0.183,39221.0
-0.001,0.346,0.931,-0.366,39241.0
0.001,0.343,0.93,-0.244,39264.0
0.006,0.344,0.927,-0.549,39285.0
0.0,0.351,0.948,-0.916,39304.0
-0.004,0.349,0.947,-0.061,39324.0
0.011,0.346,0.927,-0.427,39342.0
0.012,0.351,0.932,-0.427,39362.0
-0.0,0.343,0.931,0.122,39382.0
-0.003,0.342,0.937,-0.488,39400.0
-0.003,0.346,0.933,-0.366,39420.0
-0.002,0.35,0.935,-0.305,39439.0
-0.004,0.35,0.933,-0.122,39460.0
-0.004,0.346,0.937,-0.183,39480.0
-0.007,0.343,0.939,-0.366,39498.0
-0.011,0.347,0.933,-0.366,39518.0
-0.007,0.344,0.933,-0.183,39538.0
-0.006,0.343,0.93,-0.183,39558.0
0.002,0.347,0.935,-0.183,39578.0
0.006,0.345,0.933,-0.366,39597.0
0.003,0.345,0.936,-0.183,39617.0
-0.002,0.348,0.933,-0.61,39638.0
-0.004,0.348,0.935,-0.427,39659.0
-0.002,0.349,0.934,-0.305,39681.0
-0.002,0.348,0.935,0.0,39699.0
-0.007,0.347,0.936,-0.305,39717.0
-0.001,0.345,0.931,-0.183,39740.0
-0.002,0.347,0.932,-0.122,39758.0
-0.002,0.347,0.93,0.0,39776.0
-0.004,0.346,0.939,-0.366,39798.0
0.003,0.346,0.933,-0.183,39819.0
0.005,0.344,0.931,-0.244,39839.0
0.002,0.346,0.937,-0.122,39858.0
-0.001,0.346,0.933,-0.366,39877.0
-0.003,0.345,0.932,-0.305,39899.0
0.0,0.342,0.924,-0.427,39918.0
-0.001,0.346,0.924,-0.366,39938.0
0.005,0.355,0.943,-0.732,39956.0
-0.003,0.354,0.938,-0.488,39975.0
-0.008,0.343,0.937,-0.488,39994.0
-0.007,0.337,0.931,-0.305,40013.0
-0.004,0.344,0.94,-0.366,40034.0
0.0,0.348,0.933,0.061,40052.0
0.004,0.349,0.933,0.244,40072.0
-0.004,0.349,0.929,-0.549,40090.0
-0.008,0.352,0.946,-0.61,40110.0
-0.008,0.347,0.937,-0.366,40129.0
-0.006,0.344,0.928,0.488,40149.0
-0.001,0.352,0.933,0.305,40170.0
-0.003,0.348,0.938,0.0,40189.0
-0.001,0.349,0.935,-0.366,40207.0
0.003,0.348,0.931,-0.122,40227.0
0.001,0.347,0.927,0.305,40247.0
-0.003,0.346,0.939,0.122,40267.0
-0.005,0.346,0.934,0.122,40285.0
-0.001,0.344,0.936,-0.122,40306.0
0.003,0.345,0.931,-0.244,40324.0
-0.003,0.349,0.936,-0.183,40347.0
-0.0,0.349,0.937,0.183,40368.0
-0.003,0.343,0.93,-0.061,40387.0
-0.005,0.345,0.934,0.183,40406.0
-0.003,0.344,0.938,-0.061,40426.0
-0.001,0.344,0.935,-0.366,40448.0
-0.002,0.346,0.932,-0.549,40468.0
0.0,0.351,0.927,-0.427,40490.0
-0.001,0.348,0.923,-0.549,40511.0
-0.002,0.347,0.931,-0.793,40529.0
-0.0,0.354,0.945,-1.038,40549.0
0.003,0.36,0.946,-1.953,40568.0
-0.038,0.329,0.928,5.188,40587.0
0.006,0.357,0.955,-2.686,40605.0
-0.041,0.346,0.903,4.089,40623.0
0.005,0.366,0.912,5.737,40641.0
-0.004,0.359,0.935,0.61,40661.0
-0.004,0.359,0.923,-0.793,40681.0
-0.005,0.359,0.931,-0.61,40702.0
-0.007,0.357,0.927,-0.793,40720.0
-0.003,0.372,0.864,2.075,40738.0
0.014,0.372,0.902,-5.066,40757.0
0.012,0.345,1.031,-18.494,40775.0
-0.056,0.301,0.898,15.137,40795.0
0.035,0.388,0.937,9.338,40816.0
0.002,0.364,0.951,-9.155,40834.0
-0.021,0.327,0.936,-4.639,40851.0
-0.002,0.347,0.943,-0.122,40874.0
-0.01,0.346,0.936,4.15,40895.0
0.014,0.349,0.939,0.0,40916.0
-0.009,0.337,0.92,-0.793,40935.0
0.007,0.351,0.925,0.427,40956.0
0.0,0.35,0.935,0.0,40976.0
0.001,0.348,0.934,0.0,40994.0
-0.001,0.344,0.932,-0.427,41016.0
-0.004,0.346,0.939,-0.183,41034.0
-0.001,0.351,0.937,-0.122,41052.0
-0.002,0.353,0.933,-0.183,41073.0
-0.0,0.349,0.936,0.061,41091.0
0.002,0.349,0.933,-0.244,41110.0
-0.003,0.344,0.932,-0.061,41128.0
-0.001,0.343,0.935,-0.122,41148.0
0.004,0.346,0.937,-0.061,41168.0
0.001,0.347,0.937,-0.122,41187.0
0.005,0.346,0.934,-0.244,41207.0
0.007,0.346,0.933,-0.183,41229.0
-0.001,0.347,0.934,0.061,41247.0
-0.004,0.345,0.938,-0.244,41268.0
-0.004,0.349,0.936,-0.122,41289.0
-0.002,0.349,0.934,0.0,41307.0
0.003,0.344,0.934,0.122,41329.0
0.005,0.348,0.935,-0.122,41347.0
0.006,0.337,0.923,-0.061,41368.0
-0.004,0.338,0.915,0.977,41389.0
0.0,0.346,0.963,-0.671,41408.0
-0.008,0.343,0.926,-0.916,41430.0
0.003,0.348,0.937,0.122,41449.0
-0.0,0.349,0.93,0.122,41472.0
-0.003,0.348,0.932,-0.061,41492.0
-0.022,0.333,0.912,-1.16,41512.0
-0.042,0.33,0.83,-0.854,41533.0
-0.105,0.664,0.836,-24.231,41551.0
-0.121,0.617,0.817,-109.924,41572.0
-0.082,0.699,0.832,-109.863,41592.0
-0.074,0.636,0.852,-144.836,41611.0
-0.178,0.68,0.657,2.991,41630.0
-0.059,0.717,0.991,-30.151,41652.0
-0.129,0.652,0.814,-0.793,41672.0
-0.051,0.521,0.812,31.128,41695.0
-0.074,0.508,0.89,36.865,41715.0
0.234,0.092,0.965,-77.698,41733.0
0.106,0.289,0.992,-91.553,41753.0
0.296,0.01,1.171,-197.021,41771.0
0.194,0.004,1.055,-24.902,41791.0
0.064,-0.202,1.275,-70.984,41810.0
-0.153,-0.169,0.916,2.808,41829.0
-0.425,-0.277,0.645,-43.701,41848.0
-0.439,-0.157,0.867,140.137,41868.0
-0.46,-0.23,0.855,137.085,41891.0
-0.484,-0.246,0.877,69.397,41909.0
-0.634,-0.151,0.875,-13.733,41929.0
-0.516,-0.25,0.806,74.341,41947.0
-0.646,-0.08,0.767,32.959,41966.0
-0.509,0.01,0.805,30.884,41988.0
-0.441,0.046,0.915,24.048,42009.0
-0.413,0.06,0.971,36.072,42027.0
-0.399,0.09,0.918,49.133,42048.0
-0.368,0.15,0.875,20.386,42068.0
-0.353,0.138,0.912,17.334,42088.0
-0.34,0.146,0.942,6.47,42107.0
-0.344,0.157,0.946,-6.714,42126.0
-0.367,0.128,0.918,-9.949,42146.0
-0.381,0.122,0.894,-17.822,42165.0
-0.407,0.088,0.91,-15.503,42187.0
-0.413,0.072,0.917,-10.01,42207.0
-0.417,0.068,0.92,-2.319,42226.0
-0.418,0.073,0.905,7.751,42246.0
-0.406,0.086,0.896,10.132,42264.0
-0.39,0.099,0.914,11.78,42283.0
-0.374,0.122,0.925,9.338,42302.0
-0.366,0.127,0.928,4.944,42321.0
-0.371,0.129,0.916,-0.61,42342.0
-0.377,0.122,0.91,-6.165,42361.0
-0.382,0.109,0.916,-9.216,42379.0
-0.394,0.095,0.918,-9.827,42400.0
-0.402,0.092,0.917,-6.897,42418.0
-0.401,0.082,0.909,-1.343,42436.0
-0.402,0.087,0.901,3.784,42456.0
-0.331,0.148,0.865,-37.354,42475.0
-0.42,0.017,0.945,-45.715,42496.0
-0.525,-0.097,0.944,-19.958,42516.0
-0.483,-0.009,0.88,19.287,42534.0
-0.435,0.063,0.831,9.216,42553.0
-0.435,0.034,0.903,-17.578,42573.0
-0.47,-0.03,0.95,-17.822,42591.0
-0.467,-0.014,0.907,3.784,42611.0
-0.458,0.005,0.887,2.38,42631.0
-0.455,0.017,0.826,-1.831,42650.0
-0.407,-0.083,0.707,10.437,42670.0
-0.437,0.123,1.078,-0.671,42691.0
-0.344,-0.126,0.993,6.775,42712.0
-0.352,0.002,0.911,13.733,42730.0
-0.377,0.013,0.91,2.502,42748.0
-0.394,0.038,0.947,-0.549,42766.0
-0.386,-0.02,0.936,2.686,42784.0
-0.392,-0.043,0.898,2.441,42804.0
-0.389,0.01,0.908,-0.305,42823.0
-0.384,0.013,0.927,-2.563,42843.0
-0.374,-0.026,0.955,-1.221,42862.0
-0.38,0.008,0.926,-0.671,42880.0
-0.36,-0.007,0.961,-0.366,42902.0
-0.37,-0.01,0.913,-0.061,42923.0
-0.366,-0.012,0.929,-0.244,42943.0
-0.366,-0.01,0.927,-0.549,42962.0
-0.359,-0.007,0.927,-0.366,42982.0
-0.346,-0.009,0.979,-0.244,43004.0
-0.361,-0.013,0.92,-0.061,43022.0
-0.363,-0.001,0.932,1.404,43042.0
-0.355,-0.012,0.943,0.366,43060.0
-0.354,-0.01,0.934,1.343,43078.0
-0.355,0.012,0.936,0.183,43096.0
-0.346,-0.013,0.932,-0.427,43116.0
-0.337,-0.011,0.955,-0.305,43135.0
-0.336,-0.014,0.942,-0.061,43155.0
-0.332,-0.008,0.939,-0.183,43173.0
-0.328,-0.005,0.946,-0.366,43192.0
-0.333,-0.009,0.938,-0.122,43213.0
-0.329,-0.008,0.951,-0.427,43233.0
-0.322,-0.008,0.951,-0.244,43255.0
-0.323,-0.008,0.94,-0.366,43276.0
-0.316,-0.01,0.958,-0.916,43297.0
