Acc_X,Acc_Y,Acc_Z,Rot_Z,Millis
-0.298,-0.008,-0.958,-0.183,113779
-0.298,-0.008,-0.958,0.0,113783
-0.3,-0.008,-0.959,-0.122,113787
-0.3,-0.008,-0.959,-0.122,113791
-0.3,-0.008,-0.959,-0.183,113795
-0.299,-0.009,-0.958,-0.244,113799
-0.299,-0.009,-0.958,-0.244,113803
-0.299,-0.008,-0.958,-0.122,113807
-0.299,-0.008,-0.958,-0.244,113811
-0.299,-0.008,-0.958,-0.244,113815
-0.298,-0.008,-0.958,-0.183,113819
-0.298,-0.008,-0.958,-0.122,113823
-0.297,-0.01,-0.958,-0.183,113827
-0.297,-0.01,-0.958,-0.305,113831
-0.297,-0.01,-0.958,-0.305,113835
-0.296,-0.008,-0.958,-0.366,113839
-0.296,-0.008,-0.958,-0.183,113843
-0.298,-0.008,-0.959,-0.183,113847
-0.298,-0.008,-0.959,-0.305,113851
-0.298,-0.008,-0.959,-0.305,113856
-0.296,-0.009,-0.96,-0.183,113860
-0.296,-0.009,-0.96,-0.244,113864
-0.298,-0.007,-0.959,-0.122,113868
-0.298,-0.007,-0.959,-0.122,113872
-0.298,-0.006,-0.958,-0.183,113876
-0.298,-0.006,-0.958,-0.183,113880
-0.298,-0.006,-0.958,-0.122,113884
-0.297,-0.007,-0.958,-0.183,113888
-0.297,-0.007,-0.958,-0.183,113892
-0.296,-0.006,-0.959,-0.122,113896
-0.296,-0.006,-0.959,-0.122,113900
-0.296,-0.006,-0.959,-0.122,113904
-0.297,-0.006,-0.959,-0.061,113908
-0.297,-0.006,-0.959,-0.183,113912
-0.298,-0.006,-0.96,-0.183,113916
-0.298,-0.006,-0.96,-0.183,113920
-0.298,-0.006,-0.96,-0.244,113924
-0.299,-0.009,-0.961,-0.305,113928
-0.299,-0.009,-0.961,-0.183,113932
-0.298,-0.008,-0.959,-0.183,113936
-0.298,-0.008,-0.959,-0.183,113940
-0.298,-0.008,-0.959,-0.183,113944
-0.298,-0.005,-0.959,-0.122,113948
-0.298,-0.005,-0.959,-0.061,113952
-0.299,-0.007,-0.958,-0.244,113956
-0.299,-0.007,-0.958,-0.244,113960
-0.299,-0.007,-0.958,-0.244,113964
-0.299,-0.007,-0.958,-0.183,113968
-0.299,-0.007,-0.958,-0.183,113973
-0.3,-0.007,-0.956,-0.122,113977
-0.3,-0.007,-0.956,-0.305,113981
-0.3,-0.007,-0.955,-0.244,113985
-0.3,-0.007,-0.955,-0.244,113989
-0.3,-0.007,-0.955,-0.183,113993
-0.298,-0.007,-0.957,-0.244,113997
-0.298,-0.007,-0.957,-0.183,114001
-0.299,-0.007,-0.957,-0.183,114005
-0.299,-0.007,-0.957,-0.183,114009
-0.299,-0.007,-0.957,-0.366,114013
-0.3,-0.007,-0.958,-0.122,114017
-0.3,-0.007,-0.958,-0.122,114021
-0.3,-0.008,-0.958,-0.305,114025
-0.3,-0.008,-0.958,-0.305,114029
-0.3,-0.008,-0.958,-0.122,114033
-0.301,-0.009,-0.958,-0.305,114037
-0.301,-0.009,-0.958,-0.305,114041
-0.299,-0.008,-0.957,-0.122,114045
-0.299,-0.008,-0.957,-0.366,114049
-0.299,-0.008,-0.957,-0.366,114053
-0.298,-0.009,-0.956,-0.244,114057
-0.298,-0.009,-0.956,-0.183,114061
-0.298,-0.009,-0.958,-0.244,114065
-0.298,-0.009,-0.958,-0.183,114069
-0.298,-0.009,-0.958,-0.183,114073
-0.299,-0.008,-0.957,-0.305,114077
-0.299,-0.008,-0.957,-0.244,114081
-0.298,-0.006,-0.958,-0.183,114085
-0.298,-0.006,-0.958,-0.183,114089
-0.298,-0.006,-0.958,-0.183,114094
-0.299,-0.007,-0.958,-0.183,114098
-0.299,-0.007,-0.958,-0.061,114102
-0.298,-0.007,-0.957,-0.183,114106
-0.298,-0.007,-0.957,-0.183,114110
-0.297,-0.007,-0.959,-0.122,114114
-0.297,-0.007,-0.959,-0.122,114118
-0.297,-0.007,-0.959,-0.244,114122
-0.297,-0.007,-0.96,-0.183,114126
-0.297,-0.007,-0.96,-0.122,114130
-0.297,-0.006,-0.957,-0.122,114134
-0.297,-0.006,-0.957,-0.122,114138
-0.297,-0.006,-0.957,-0.244,114142
-0.297,-0.008,-0.96,-0.183,114146
-0.297,-0.008,-0.96,-0.183,114150
-0.299,-0.006,-0.958,-0.244,114154
-0.299,-0.006,-0.958,-0.244,114158
-0.299,-0.006,-0.958,-0.244,114162
-0.298,-0.006,-0.957,-0.183,114166
-0.298,-0.006,-0.957,-0.244,114170
-0.298,-0.007,-0.959,-0.244,114174
-0.298,-0.007,-0.959,-0.305,114178
-0.298,-0.007,-0.959,-0.305,114182
-0.298,-0.006,-0.958,-0.122,114186
-0.298,-0.006,-0.958,-0.122,114190
-0.298,-0.008,-0.959,-0.244,114194
-0.298,-0.008,-0.959,-0.183,114198
-0.298,-0.008,-0.959,-0.183,114202
-0.3,-0.007,-0.958,-0.061,114207
-0.3,-0.007,-0.958,-0.244,114211
-0.297,-0.007,-0.958,-0.122,114215
-0.297,-0.007,-0.958,-0.122,114219
-0.297,-0.007,-0.958,-0.122,114223
-0.297,-0.007,-0.959,-0.183,114227
-0.297,-0.007,-0.959,-0.183,114231
-0.297,-0.008,-0.959,-0.244,114235
-0.297,-0.008,-0.959,-0.305,114239
-0.298,-0.007,-0.958,-0.183,114243
-0.298,-0.007,-0.958,-0.183,114247
-0.298,-0.007,-0.958,-0.061,114251
-0.296,-0.007,-0.958,-0.122,114255
-0.296,-0.007,-0.958,-0.122,114259
-0.297,-0.007,-0.956,-0.183,114263
-0.297,-0.007,-0.956,-0.183,114267
-0.297,-0.007,-0.956,-0.366,114271
-0.298,-0.006,-0.958,-0.305,114275
-0.298,-0.006,-0.958,-0.122,114279
-0.299,-0.008,-0.959,-0.244,114283
-0.299,-0.008,-0.959,-0.305,114287
-0.299,-0.008,-0.959,-0.305,114291
-0.298,-0.009,-0.958,-0.122,114295
-0.298,-0.009,-0.958,-0.244,114299
-0.297,-0.009,-0.957,-0.244,114303
-0.297,-0.009,-0.957,-0.061,114307
-0.297,-0.009,-0.957,-0.061,114311
-0.297,-0.007,-0.958,-0.122,114315
-0.297,-0.007,-0.958,-0.122,114319
-0.298,-0.008,-0.958,-0.122,114324
-0.298,-0.008,-0.958,-0.305,114328
-0.298,-0.008,-0.958,-0.305,114332
-0.299,-0.009,-0.958,-0.427,114336
-0.299,-0.009,-0.958,-0.244,114340
-0.297,-0.009,-0.958,-0.244,114344
-0.297,-0.009,-0.958,-0.244,114348
-0.299,-0.009,-0.957,-0.305,114352
-0.299,-0.009,-0.957,-0.305,114356
-0.299,-0.009,-0.957,-0.122,114360
-0.299,-0.008,-0.959,-0.244,114364
-0.299,-0.008,-0.959,-0.305,114368
-0.298,-0.009,-0.957,-0.244,114372
-0.298,-0.009,-0.957,-0.244,114376
-0.298,-0.009,-0.957,-0.183,114380
-0.3,-0.007,-0.959,-0.122,114384
-0.3,-0.007,-0.959,-0.305,114388
-0.3,-0.007,-0.958,-0.244,114392
-0.3,-0.007,-0.958,-0.244,114396
-0.3,-0.007,-0.958,-0.122,114400
-0.298,-0.007,-0.959,-0.122,114404
-0.298,-0.007,-0.959,-0.122,114408
-0.298,-0.006,-0.958,-0.061,114412
-0.298,-0.006,-0.958,-0.183,114416
-0.298,-0.006,-0.958,-0.183,114420
-0.299,-0.008,-0.957,-0.061,114424
-0.299,-0.008,-0.957,-0.122,114428
-0.3,-0.007,-0.957,-0.305,114432
-0.3,-0.007,-0.957,-0.061,114436
-0.3,-0.007,-0.957,-0.061,114440
-0.299,-0.007,-0.956,-0.183,114444
-0.299,-0.007,-0.956,-0.183,114449
-0.298,-0.006,-0.959,-0.061,114453
-0.298,-0.006,-0.959,-0.183,114457
-0.298,-0.006,-0.959,-0.183,114461
-0.298,-0.006,-0.959,-0.244,114465
-0.298,-0.006,-0.959,-0.244,114469
-0.298,-0.007,-0.958,-0.183,114473
-0.298,-0.007,-0.958,-0.122,114477
-0.297,-0.008,-0.958,-0.183,114481
-0.297,-0.008,-0.958,-0.183,114485
-0.297,-0.008,-0.958,-0.305,114489
-0.297,-0.008,-0.957,-0.183,114493
-0.297,-0.008,-0.957,-0.183,114497
-0.298,-0.007,-0.959,-0.305,114501
-0.298,-0.007,-0.959,-0.305,114505
-0.298,-0.007,-0.959,-0.244,114509
-0.297,-0.007,-0.959,-0.305,114513
-0.297,-0.007,-0.959,-0.305,114517
-0.296,-0.008,-0.959,-0.305,114521
-0.296,-0.008,-0.959,-0.305,114525
-0.296,-0.008,-0.959,-0.244,114529
-0.297,-0.007,-0.96,-0.244,114533
-0.297,-0.007,-0.96,-0.244,114537
-0.297,-0.008,-0.958,-0.244,114541
-0.297,-0.008,-0.958,-0.183,114545
-0.297,-0.008,-0.958,-0.183,114549
-0.295,-0.008,-0.96,-0.183,114553
-0.295,-0.008,-0.96,-0.122,114557
-0.296,-0.005,-0.959,-0.183,114561
-0.296,-0.005,-0.959,-0.244,114565
-0.296,-0.005,-0.959,-0.244,114569
-0.297,-0.005,-0.96,-0.122,114574
-0.297,-0.005,-0.96,-0.122,114578
-0.297,-0.006,-0.959,-0.122,114582
-0.297,-0.006,-0.959,-0.244,114586
-0.297,-0.006,-0.959,-0.244,114590
-0.296,-0.005,-0.96,-0.122,114594
-0.296,-0.005,-0.96,-0.244,114598
-0.295,-0.005,-0.959,-0.244,114602
-0.295,-0.005,-0.959,-0.244,114606
-0.296,-0.005,-0.96,-0.366,114610
-0.296,-0.005,-0.96,-0.366,114614
-0.296,-0.005,-0.96,-0.244,114618
-0.297,-0.005,-0.96,-0.244,114622
-0.297,-0.005,-0.96,-0.366,114626
-0.297,-0.007,-0.958,-0.183,114630
-0.297,-0.007,-0.958,-0.183,114634
-0.297,-0.007,-0.958,-0.305,114638
-0.297,-0.008,-0.958,-0.305,114642
-0.297,-0.008,-0.958,-0.305,114646
-0.297,-0.007,-0.959,-0.366,114650
-0.297,-0.007,-0.959,-0.244,114654
-0.297,-0.007,-0.959,-0.244,114658
-0.299,-0.008,-0.958,-0.244,114662
-0.299,-0.008,-0.958,-0.183,114666
-0.3,-0.01,-0.958,-0.244,114670
-0.3,-0.01,-0.958,-0.122,114674
-0.3,-0.01,-0.958,-0.122,114678
-0.299,-0.009,-0.957,-0.183,114682
-0.299,-0.009,-0.957,-0.244,114687
-0.298,-0.008,-0.958,-0.183,114691
-0.298,-0.008,-0.958,-0.183,114695
-0.298,-0.008,-0.958,-0.183,114699
-0.301,-0.008,-0.959,-0.061,114703
-0.301,-0.008,-0.959,-0.183,114707
-0.3,-0.009,-0.96,-0.244,114711
-0.3,-0.009,-0.96,-0.183,114715
-0.299,-0.009,-0.958,-0.305,114719
-0.299,-0.009,-0.958,-0.305,114723
-0.299,-0.009,-0.958,-0.183,114727
-0.3,-0.009,-0.957,-0.183,114731
-0.3,-0.009,-0.957,-0.183,114735
-0.3,-0.008,-0.957,-0.183,114739
-0.3,-0.008,-0.957,-0.183,114743
-0.3,-0.008,-0.957,-0.122,114747
-0.3,-0.007,-0.957,-0.122,114751
-0.3,-0.007,-0.957,-0.244,114755
-0.298,-0.009,-0.956,-0.122,114759
-0.298,-0.009,-0.956,-0.122,114763
-0.298,-0.009,-0.956,-0.183,114767
-0.299,-0.01,-0.959,-0.122,114771
-0.299,-0.01,-0.959,-0.244,114775
-0.3,-0.009,-0.958,-0.122,114779
-0.3,-0.009,-0.958,-0.183,114783
-0.3,-0.009,-0.958,-0.183,114787
-0.3,-0.01,-0.956,-0.305,114791
-0.3,-0.01,-0.956,-0.122,114795
-0.299,-0.007,-0.956,-0.183,114799
-0.299,-0.007,-0.956,-0.122,114804
-0.299,-0.007,-0.956,-0.122,114808
-0.296,-0.006,-0.959,-0.244,114812
-0.296,-0.006,-0.959,-0.305,114816
-0.298,-0.006,-0.959,-0.244,114820
-0.298,-0.006,-0.959,-0.122,114824
-0.298,-0.006,-0.959,-0.122,114828
-0.299,-0.007,-0.958,-0.305,114832
-0.299,-0.007,-0.958,-0.305,114836
-0.299,-0.004,-0.959,-0.244,114840
-0.299,-0.004,-0.959,-0.122,114844
-0.298,-0.005,-0.959,-0.183,114848
-0.298,-0.005,-0.959,-0.183,114852
-0.298,-0.005,-0.959,-0.366,114856
-0.296,-0.006,-0.959,-0.244,114860
-0.296,-0.006,-0.959,-0.122,114864
-0.295,-0.004,-0.959,-0.183,114868
-0.295,-0.004,-0.959,-0.183,114872
-0.295,-0.004,-0.959,-0.244,114876
-0.297,-0.004,-0.958,-0.183,114880
-0.297,-0.004,-0.958,-0.183,114884
-0.297,-0.005,-0.958,-0.183,114888
-0.297,-0.005,-0.958,-0.183,114892
-0.297,-0.005,-0.958,-0.244,114896
-0.296,-0.007,-0.959,-0.183,114900
-0.296,-0.007,-0.959,-0.122,114904
-0.297,-0.007,-0.958,-0.244,114908
-0.297,-0.007,-0.958,-0.244,114912
-0.297,-0.007,-0.958,-0.244,114916
-0.297,-0.008,-0.958,-0.183,114920
-0.297,-0.008,-0.958,-0.244,114924
-0.297,-0.006,-0.959,-0.122,114929
-0.297,-0.006,-0.959,-0.122,114933
-0.297,-0.006,-0.959,-0.122,114937
-0.298,-0.008,-0.958,-0.183,114941
-0.298,-0.008,-0.958,-0.183,114945
-0.298,-0.009,-0.958,-0.183,114949
-0.298,-0.009,-0.958,-0.122,114953
-0.298,-0.007,-0.959,-0.244,114957
-0.298,-0.007,-0.959,-0.244,114961
-0.298,-0.007,-0.959,-0.183,114965
-0.298,-0.008,-0.957,-0.244,114969
-0.298,-0.008,-0.957,-0.183,114973
-0.298,-0.008,-0.958,-0.244,114977
-0.298,-0.008,-0.958,-0.244,114981
-0.298,-0.008,-0.958,-0.305,114985
-0.299,-0.01,-0.959,-0.305,114989
-0.299,-0.01,-0.959,-0.366,114993
-0.299,-0.01,-0.957,-0.183,114997
-0.299,-0.01,-0.957,-0.183,115001
-0.299,-0.01,-0.957,-0.244,115005
-0.298,-0.008,-0.958,-0.061,115009
-0.298,-0.008,-0.958,-0.122,115013
-0.298,-0.01,-0.958,-0.183,115017
-0.298,-0.01,-0.958,-0.244,115021
-0.298,-0.01,-0.958,-0.244,115025
-0.298,-0.009,-0.958,-0.183,115029
-0.298,-0.009,-0.958,-0.183,115033
-0.299,-0.009,-0.958,-0.122,115037
-0.299,-0.009,-0.958,-0.244,115042
-0.299,-0.009,-0.958,-0.244,115046
-0.299,-0.008,-0.957,-0.244,115050
-0.299,-0.008,-0.957,-0.244,115054
-0.297,-0.007,-0.957,-0.122,115058
-0.297,-0.007,-0.957,-0.122,115062
-0.297,-0.007,-0.957,-0.122,115066
-0.3,-0.006,-0.959,-0.244,115070
-0.3,-0.006,-0.959,-0.244,115074
-0.299,-0.006,-0.959,-0.183,115078
-0.299,-0.006,-0.959,-0.183,115082
-0.298,-0.005,-0.959,-0.244,115086
-0.298,-0.005,-0.959,-0.244,115090
-0.298,-0.005,-0.959,-0.244,115094
-0.297,-0.004,-0.958,-0.183,115098
-0.297,-0.004,-0.958,-0.183,115102
-0.298,-0.005,-0.959,-0.244,115106
-0.298,-0.005,-0.959,-0.244,115110
-0.298,-0.005,-0.959,-0.305,115114
-0.298,-0.005,-0.96,-0.183,115118
-0.298,-0.005,-0.96,-0.061,115122
-0.297,-0.004,-0.961,-0.122,115126
-0.297,-0.004,-0.961,-0.122,115130
-0.297,-0.004,-0.961,-0.244,115134
-0.298,-0.004,-0.959,-0.122,115138
-0.298,-0.004,-0.959,-0.183,115142
-0.297,-0.004,-0.96,-0.183,115146
-0.297,-0.004,-0.96,-0.183,115150
-0.297,-0.004,-0.96,-0.183,115155
-0.295,-0.003,-0.96,-0.122,115159
-0.295,-0.003,-0.96,-0.244,115163
-0.296,-0.004,-0.959,-0.244,115167
-0.296,-0.004,-0.959,-0.244,115171
-0.296,-0.004,-0.959,-0.244,115175
-0.298,-0.004,-0.959,-0.244,115179
-0.298,-0.004,-0.959,-0.244,115183
-0.296,-0.005,-0.959,-0.183,115187
-0.296,-0.005,-0.959,-0.122,115191
-0.296,-0.005,-0.959,-0.244,115195
-0.296,-0.005,-0.959,-0.244,115199
-0.296,-0.005,-0.959,-0.183,115203
-0.297,-0.007,-0.959,-0.366,115207
-0.297,-0.007,-0.959,-0.427,115211
-0.297,-0.007,-0.958,-0.244,115215
-0.297,-0.007,-0.958,-0.244,115219
-0.297,-0.007,-0.958,-0.122,115223
-0.296,-0.008,-0.96,-0.183,115227
-0.296,-0.008,-0.96,-0.244,115231
-0.296,-0.008,-0.958,-0.183,115235
-0.296,-0.008,-0.958,-0.183,115239
-0.296,-0.008,-0.958,-0.061,115243
-0.295,-0.01,-0.959,-0.183,115247
-0.295,-0.01,-0.959,-0.122,115251
-0.297,-0.01,-0.959,-0.183,115255
-0.297,-0.01,-0.959,-0.244,115259
-0.297,-0.01,-0.959,-0.244,115263
-0.296,-0.009,-0.958,-0.244,115268
-0.296,-0.009,-0.958,-0.183,115272
-0.295,-0.008,-0.96,-0.305,115276
-0.295,-0.008,-0.96,-0.366,115280
-0.295,-0.008,-0.96,-0.366,115284
-0.297,-0.007,-0.959,-0.244,115288
-0.297,-0.007,-0.959,-0.183,115292
-0.297,-0.008,-0.959,-0.122,115296
-0.297,-0.008,-0.959,-0.061,115300
-0.297,-0.008,-0.959,-0.061,115304
-0.297,-0.007,-0.959,-0.061,115308
-0.297,-0.007,-0.959,-0.183,115312
-0.297,-0.007,-0.959,-0.183,115316
-0.297,-0.007,-0.959,-0.183,115320
-0.297,-0.008,-0.959,-0.183,115324
-0.297,-0.008,-0.959,-0.183,115328
-0.297,-0.008,-0.959,-0.183,115332
-0.298,-0.006,-0.956,-0.366,115336
-0.298,-0.006,-0.956,-0.244,115340
-0.3,-0.006,-0.958,-0.244,115344
-0.3,-0.006,-0.958,-0.244,115348
-0.3,-0.006,-0.958,-0.305,115352
-0.301,-0.008,-0.958,-0.122,115356
-0.301,-0.008,-0.958,-0.122,115360
-0.3,-0.006,-0.958,-0.244,115364
-0.3,-0.006,-0.958,-0.244,115368
-0.3,-0.006,-0.958,-0.122,115372
-0.299,-0.007,-0.957,-0.305,115376
-0.299,-0.007,-0.957,-0.244,115380
-0.3,-0.007,-0.96,-0.244,115385
-0.3,-0.007,-0.96,0.0,115389
-0.3,-0.007,-0.96,0.0,115392
-0.3,-0.006,-0.958,-0.061,115396
-0.3,-0.006,-0.958,-0.122,115401
-0.299,-0.005,-0.959,-0.244,115405
-0.299,-0.005,-0.959,-0.183,115409
-0.299,-0.005,-0.959,-0.183,115413
-0.299,-0.007,-0.958,-0.244,115417
-0.299,-0.007,-0.958,-0.183,115421
-0.297,-0.007,-0.958,-0.061,115425
-0.297,-0.007,-0.958,-0.061,115429
-0.297,-0.007,-0.958,-0.061,115433
-0.297,-0.006,-0.958,0.0,115437
-0.297,-0.006,-0.958,-0.061,115441
-0.297,-0.007,-0.958,-0.244,115445
-0.297,-0.007,-0.958,-0.122,115449
-0.298,-0.007,-0.959,-0.244,115453
-0.298,-0.007,-0.959,-0.244,115457
-0.298,-0.007,-0.959,-0.122,115461
-0.297,-0.006,-0.958,-0.183,115465
-0.297,-0.006,-0.958,-0.122,115469
-0.298,-0.007,-0.957,-0.183,115473
-0.298,-0.007,-0.957,-0.183,115477
-0.298,-0.007,-0.957,-0.183,115481
-0.299,-0.008,-0.959,-0.244,115485
-0.299,-0.008,-0.959,-0.244,115489
-0.296,-0.007,-0.958,-0.183,115493
-0.296,-0.007,-0.958,-0.183,115497
-0.296,-0.007,-0.958,-0.244,115501
-0.297,-0.007,-0.959,-0.122,115505
-0.297,-0.007,-0.959,-0.244,115509
-0.298,-0.008,-0.958,-0.122,115513
-0.298,-0.008,-0.958,-0.122,115517
-0.298,-0.008,-0.958,-0.122,115521
-0.299,-0.008,-0.957,-0.122,115526
-0.299,-0.008,-0.957,-0.183,115530
-0.3,-0.01,-0.957,-0.244,115534
-0.3,-0.01,-0.957,-0.305,115538
-0.3,-0.01,-0.957,-0.305,115542
-0.3,-0.008,-0.958,-0.183,115546
-0.3,-0.008,-0.958,-0.244,115550
-0.302,-0.009,-0.96,-0.305,115554
-0.302,-0.009,-0.96,-0.305,115558
-0.302,-0.009,-0.96,-0.305,115562
-0.302,-0.009,-0.956,-0.244,115566
-0.302,-0.009,-0.956,-0.183,115570
-0.301,-0.011,-0.956,-0.244,115574
-0.301,-0.011,-0.956,-0.183,115578
-0.303,-0.011,-0.954,-0.183,115582
-0.303,-0.011,-0.954,-0.183,115586
-0.303,-0.011,-0.954,-0.305,115590
-0.303,-0.009,-0.955,-0.305,115594
-0.303,-0.009,-0.955,-0.244,115598
-0.304,-0.008,-0.955,-0.061,115602
-0.304,-0.008,-0.955,-0.061,115606
-0.304,-0.008,-0.955,-0.061,115610
-0.303,-0.009,-0.955,-0.122,115614
-0.303,-0.009,-0.955,-0.244,115618
-0.302,-0.009,-0.954,-0.183,115622
-0.302,-0.009,-0.954,-0.183,115626
-0.302,-0.009,-0.954,-0.183,115630
-0.303,-0.007,-0.955,-0.244,115634
-0.303,-0.007,-0.955,-0.305,115638
-0.305,-0.009,-0.958,-0.183,115642
-0.305,-0.009,-0.958,-0.183,115646
-0.305,-0.009,-0.958,-0.183,115650
-0.303,-0.007,-0.957,-0.183,115655
-0.303,-0.007,-0.957,-0.122,115659
-0.301,-0.007,-0.956,-0.244,115663
-0.301,-0.007,-0.956,-0.244,115667
-0.301,-0.007,-0.956,-0.244,115671
-0.302,-0.009,-0.956,-0.183,115675
-0.302,-0.009,-0.956,-0.183,115679
-0.301,-0.009,-0.956,-0.244,115683
-0.301,-0.009,-0.956,-0.305,115687
-0.302,-0.009,-0.957,-0.244,115691
-0.302,-0.009,-0.957,-0.244,115695
-0.302,-0.009,-0.957,-0.183,115699
-0.301,-0.01,-0.958,-0.122,115703
-0.301,-0.01,-0.958,-0.122,115707
-0.3,-0.01,-0.958,-0.183,115711
-0.3,-0.01,-0.958,-0.183,115715
-0.3,-0.01,-0.958,-0.244,115719
-0.3,-0.01,-0.957,-0.244,115723
-0.3,-0.01,-0.957,-0.183,115727
-0.298,-0.011,-0.958,-0.183,115731
-0.298,-0.011,-0.958,-0.183,115735
-0.298,-0.011,-0.958,-0.183,115739
-0.297,-0.01,-0.959,-0.183,115743
-0.297,-0.01,-0.959,-0.305,115747
-0.297,-0.011,-0.958,-0.244,115751
-0.297,-0.011,-0.958,-0.183,115755
-0.297,-0.011,-0.958,-0.183,115759
-0.298,-0.011,-0.958,-0.061,115764
-0.298,-0.011,-0.958,-0.183,115768
-0.297,-0.009,-0.957,-0.183,115772
-0.297,-0.009,-0.957,-0.122,115776
-0.297,-0.009,-0.957,-0.122,115780
-0.298,-0.007,-0.958,-0.061,115784
-0.298,-0.007,-0.958,-0.122,115788
-0.297,-0.008,-0.958,-0.122,115792
-0.297,-0.008,-0.958,-0.122,115796
-0.297,-0.008,-0.958,-0.122,115800
-0.296,-0.007,-0.96,-0.183,115804
-0.296,-0.007,-0.96,-0.183,115808
-0.297,-0.006,-0.958,-0.122,115812
-0.297,-0.006,-0.958,-0.244,115816
-0.298,-0.003,-0.957,-0.305,115820
-0.298,-0.003,-0.957,-0.305,115824
-0.298,-0.003,-0.957,-0.305,115828
-0.297,-0.005,-0.958,-0.305,115832
-0.297,-0.005,-0.958,-0.305,115836
-0.3,-0.004,-0.958,-0.244,115840
-0.3,-0.004,-0.958,-0.244,115844
-0.3,-0.004,-0.958,-0.183,115848
-0.298,-0.005,-0.959,-0.122,115852
-0.298,-0.005,-0.959,-0.183,115856
-0.299,-0.004,-0.958,-0.183,115860
-0.299,-0.004,-0.958,-0.183,115864
-0.299,-0.004,-0.958,-0.122,115868
-0.3,-0.004,-0.958,-0.305,115872
-0.3,-0.004,-0.958,-0.244,115877
-0.3,-0.005,-0.958,-0.183,115881
-0.3,-0.005,-0.958,-0.061,115885
-0.3,-0.005,-0.958,-0.061,115889
-0.3,-0.007,-0.957,-0.183,115893
-0.3,-0.007,-0.957,-0.183,115897
-0.301,-0.007,-0.958,-0.122,115901
-0.301,-0.007,-0.958,-0.122,115905
-0.301,-0.007,-0.958,-0.122,115909
-0.299,-0.006,-0.957,-0.244,115913
-0.299,-0.006,-0.957,-0.244,115917
-0.299,-0.005,-0.958,-0.183,115921
-0.299,-0.005,-0.958,-0.244,115925
-0.3,-0.007,-0.959,-0.244,115929
-0.3,-0.007,-0.959,-0.244,115933
-0.3,-0.007,-0.959,-0.305,115937
-0.299,-0.007,-0.957,-0.305,115941
-0.299,-0.007,-0.957,-0.244,115945
-0.298,-0.01,-0.959,-0.427,115949
-0.298,-0.01,-0.959,-0.427,115953
-0.298,-0.01,-0.959,-0.183,115957
-0.299,-0.009,-0.958,-0.183,115961
-0.299,-0.009,-0.958,-0.305,115965
-0.298,-0.009,-0.958,-0.305,115969
-0.298,-0.009,-0.958,-0.305,115973
-0.298,-0.009,-0.958,-0.183,115977
-0.299,-0.008,-0.959,-0.122,115981
-0.299,-0.008,-0.959,-0.183,115985
-0.299,-0.01,-0.96,-0.122,115989
-0.299,-0.01,-0.96,-0.183,115993
-0.299,-0.01,-0.96,-0.183,115998
-0.297,-0.009,-0.957,-0.122,116002
-0.297,-0.009,-0.957,-0.183,116006
-0.299,-0.008,-0.959,-0.244,116010
-0.299,-0.008,-0.959,-0.305,116014
-0.299,-0.008,-0.959,-0.305,116018
-0.298,-0.009,-0.959,-0.366,116022
-0.298,-0.009,-0.959,-0.244,116026
-0.298,-0.011,-0.959,-0.305,116030
-0.298,-0.011,-0.959,-0.244,116034
-0.298,-0.011,-0.959,-0.244,116038
-0.3,-0.01,-0.958,-0.183,116042
-0.3,-0.01,-0.958,-0.366,116046
-0.299,-0.009,-0.959,-0.366,116050
-0.299,-0.009,-0.959,-0.183,116054
-0.3,-0.009,-0.958,-0.183,116058
-0.3,-0.009,-0.958,-0.183,116062
-0.3,-0.009,-0.958,-0.183,116066
-0.299,-0.009,-0.958,-0.244,116070
-0.299,-0.009,-0.958,-0.183,116074
-0.299,-0.008,-0.957,-0.305,116078
-0.299,-0.008,-0.957,-0.305,116082
-0.299,-0.008,-0.957,-0.244,116086
-0.299,-0.006,-0.958,-0.305,116090
-0.299,-0.006,-0.958,-0.244,116094
-0.3,-0.006,-0.958,-0.244,116098
-0.3,-0.006,-0.958,-0.244,116102
-0.3,-0.006,-0.958,-0.244,116106
-0.3,-0.005,-0.957,-0.244,116111
-0.3,-0.005,-0.957,-0.122,116115
-0.299,-0.003,-0.958,-0.183,116119
-0.299,-0.003,-0.958,-0.305,116123
-0.299,-0.003,-0.958,-0.305,116127
-0.298,-0.002,-0.957,-0.122,116131
-0.298,-0.002,-0.957,0.0,116135
-0.297,-0.005,-0.958,-0.244,116139
-0.297,-0.005,-0.958,-0.305,116143
-0.297,-0.005,-0.958,-0.305,116147
-0.298,-0.005,-0.958,-0.183,116151
-0.298,-0.005,-0.958,-0.183,116155
-0.298,-0.004,-0.957,-0.183,116159
-0.298,-0.004,-0.957,-0.244,116163
-0.298,-0.004,-0.957,-0.244,116167
-0.297,-0.004,-0.959,-0.122,116171
-0.297,-0.004,-0.959,-0.122,116175
-0.297,-0.006,-0.959,-0.244,116179
-0.297,-0.006,-0.959,-0.244,116183
-0.297,-0.006,-0.959,-0.305,116187
-0.297,-0.006,-0.959,-0.305,116191
-0.297,-0.006,-0.959,-0.305,116195
-0.299,-0.006,-0.959,-0.183,116199
-0.299,-0.006,-0.959,-0.244,116203
-0.298,-0.007,-0.959,-0.427,116207
-0.298,-0.007,-0.959,-0.427,116211
-0.298,-0.007,-0.959,-0.305,116215
-0.299,-0.01,-0.957,-0.244,116219
-0.299,-0.01,-0.957,-0.305,116223
-0.298,-0.01,-0.959,-0.183,116227
-0.298,-0.01,-0.959,-0.427,116231
-0.298,-0.01,-0.959,-0.427,116236
-0.298,-0.009,-0.958,-0.305,116240
-0.298,-0.009,-0.958,-0.244,116244
-0.297,-0.011,-0.957,-0.305,116248
-0.297,-0.011,-0.957,-0.244,116252
-0.297,-0.011,-0.957,-0.244,116256
-0.299,-0.009,-0.959,-0.183,116260
-0.299,-0.009,-0.959,-0.305,116264
-0.299,-0.009,-0.958,-0.305,116268
-0.299,-0.009,-0.958,-0.183,116272
-0.299,-0.009,-0.958,-0.183,116276
-0.299,-0.008,-0.956,-0.244,116280
-0.299,-0.008,-0.956,-0.305,116284
-0.299,-0.008,-0.958,-0.244,116288
-0.299,-0.008,-0.958,-0.061,116292
-0.301,-0.01,-0.957,0.061,116296
-0.301,-0.01,-0.957,0.061,116300
-0.301,-0.01,-0.957,-0.122,116304
-0.3,-0.01,-0.957,-0.244,116308
-0.3,-0.01,-0.957,-0.122,116312
-0.3,-0.009,-0.957,-0.244,116316
-0.3,-0.009,-0.957,-0.244,116320
-0.3,-0.009,-0.957,-0.305,116324
-0.299,-0.009,-0.956,-0.488,116328
-0.299,-0.009,-0.956,-0.244,116332
-0.301,-0.009,-0.957,-0.122,116336
-0.301,-0.009,-0.957,-0.122,116340
-0.301,-0.009,-0.957,-0.183,116344
-0.301,-0.008,-0.956,-0.366,116348
-0.301,-0.008,-0.956,-0.305,116352
-0.299,-0.008,-0.957,0.0,116356
-0.299,-0.008,-0.957,-0.305,116360
-0.299,-0.008,-0.957,-0.305,116364
-0.299,-0.008,-0.957,-0.305,116368
-0.299,-0.008,-0.957,-0.183,116373
-0.299,-0.007,-0.958,-0.183,116377
-0.299,-0.007,-0.958,-0.244,116381
-0.299,-0.007,-0.958,-0.244,116385
-0.3,-0.006,-0.957,-0.122,116389
-0.3,-0.006,-0.957,-0.122,116393
-0.3,-0.006,-0.958,-0.122,116397
-0.3,-0.006,-0.958,-0.183,116401
-0.3,-0.006,-0.958,-0.183,116405
-0.3,-0.006,-0.958,-0.061,116409
-0.3,-0.006,-0.958,-0.183,116413
-0.298,-0.005,-0.958,-0.244,116417
-0.298,-0.005,-0.958,-0.183,116421
-0.297,-0.006,-0.959,-0.183,116425
-0.297,-0.006,-0.959,-0.183,116429
-0.297,-0.006,-0.959,-0.305,116433
-0.299,-0.005,-0.959,-0.244,116437
-0.299,-0.005,-0.959,-0.183,116441
-0.297,-0.007,-0.959,-0.183,116445
-0.297,-0.007,-0.959,-0.183,116449
-0.297,-0.007,-0.959,-0.366,116453
-0.297,-0.008,-0.959,-0.244,116457
-0.297,-0.008,-0.959,-0.183,116461
-0.296,-0.008,-0.959,-0.183,116465
-0.296,-0.008,-0.959,-0.183,116469
-0.296,-0.008,-0.959,-0.305,116473
-0.296,-0.008,-0.959,-0.244,116477
-0.296,-0.008,-0.959,-0.183,116481
-0.298,-0.009,-0.959,-0.061,116485
-0.298,-0.009,-0.959,-0.183,116490
-0.298,-0.009,-0.959,-0.183,116494
-0.297,-0.008,-0.958,-0.305,116498
-0.297,-0.008,-0.958,-0.366,116502
-0.298,-0.008,-0.96,-0.244,116506
-0.298,-0.008,-0.96,-0.122,116510
-0.298,-0.008,-0.96,-0.122,116514
-0.297,-0.007,-0.96,-0.305,116518
-0.297,-0.007,-0.96,-0.366,116522
-0.298,-0.007,-0.958,-0.122,116526
-0.298,-0.007,-0.958,-0.244,116530
-0.298,-0.007,-0.958,-0.244,116534
-0.298,-0.009,-0.958,-0.305,116538
-0.298,-0.009,-0.958,-0.244,116542
-0.299,-0.009,-0.958,-0.183,116546
-0.299,-0.009,-0.958,-0.183,116550
-0.3,-0.008,-0.958,-0.244,116554
-0.3,-0.008,-0.958,-0.244,116558
-0.3,-0.008,-0.958,-0.244,116562
-0.299,-0.007,-0.956,-0.244,116566
-0.299,-0.007,-0.956,-0.244,116570
-0.301,-0.01,-0.957,-0.305,116574
-0.301,-0.01,-0.957,-0.305,116578
-0.301,-0.01,-0.957,-0.183,116582
-0.3,-0.008,-0.956,-0.305,116586
-0.3,-0.008,-0.956,-0.366,116590
-0.3,-0.008,-0.957,-0.244,116594
-0.3,-0.008,-0.957,-0.244,116598
-0.3,-0.008,-0.957,-0.122,116602
-0.301,-0.008,-0.957,-0.061,116606
-0.301,-0.008,-0.957,-0.366,116610
-0.301,-0.009,-0.957,-0.305,116615
-0.301,-0.009,-0.957,-0.061,116619
-0.301,-0.009,-0.957,-0.061,116623
-0.3,-0.008,-0.957,-0.122,116627
-0.3,-0.008,-0.957,-0.122,116631
-0.3,-0.007,-0.958,-0.183,116635
-0.3,-0.007,-0.958,-0.183,116639
-0.3,-0.007,-0.958,-0.183,116643
-0.301,-0.006,-0.957,-0.183,116647
-0.301,-0.006,-0.957,-0.244,116651
-0.299,-0.006,-0.958,-0.244,116655
-0.299,-0.006,-0.958,-0.122,116659
-0.299,-0.006,-0.958,-0.122,116663
-0.298,-0.006,-0.957,-0.183,116667
-0.298,-0.006,-0.957,-0.183,116671
-0.299,-0.006,-0.958,-0.122,116675
-0.299,-0.006,-0.958,-0.305,116679
-0.299,-0.007,-0.958,-0.305,116683
-0.299,-0.007,-0.958,-0.305,116687
-0.299,-0.007,-0.958,-0.122,116691
-0.297,-0.007,-0.959,-0.122,116695
-0.297,-0.007,-0.959,-0.061,116699
-0.298,-0.006,-0.959,-0.122,116703
-0.298,-0.006,-0.959,-0.122,116707
-0.298,-0.006,-0.959,-0.183,116711
-0.297,-0.007,-0.959,-0.183,116715
-0.297,-0.007,-0.959,-0.366,116719
-0.297,-0.008,-0.958,-0.122,116723
-0.297,-0.008,-0.958,-0.061,116727
-0.297,-0.008,-0.958,-0.061,116731
-0.295,-0.008,-0.958,-0.183,116735
-0.295,-0.008,-0.958,-0.244,116740
-0.296,-0.008,-0.96,-0.183,116744
-0.296,-0.008,-0.96,-0.122,116748
-0.296,-0.008,-0.96,-0.122,116752
-0.297,-0.008,-0.96,-0.122,116756
-0.297,-0.008,-0.96,-0.305,116760
-0.297,-0.008,-0.959,-0.305,116764
-0.297,-0.008,-0.959,-0.305,116768
-0.297,-0.008,-0.959,-0.305,116772
-0.297,-0.007,-0.958,-0.244,116776
-0.297,-0.007,-0.958,-0.122,116780
-0.296,-0.006,-0.96,-0.183,116784
-0.296,-0.006,-0.96,-0.366,116788
-0.297,-0.006,-0.96,-0.305,116792
-0.297,-0.006,-0.96,-0.305,116796
-0.297,-0.006,-0.96,-0.183,116800
-0.295,-0.007,-0.958,-0.244,116804
-0.295,-0.007,-0.958,-0.366,116808
-0.297,-0.006,-0.958,-0.366,116812
-0.297,-0.006,-0.958,-0.366,116816
-0.297,-0.006,-0.958,-0.244,116820
-0.298,-0.006,-0.958,-0.305,116824
-0.298,-0.006,-0.958,-0.183,116828
-0.297,-0.007,-0.958,-0.122,116832
-0.297,-0.007,-0.958,-0.122,116836
-0.297,-0.007,-0.958,-0.244,116840
-0.299,-0.007,-0.96,-0.183,116844
-0.299,-0.007,-0.96,-0.244,116848
-0.3,-0.006,-0.96,-0.305,116852
-0.3,-0.006,-0.96,-0.244,116857
-0.3,-0.006,-0.96,-0.244,116861
-0.298,-0.008,-0.957,-0.305,116865
-0.298,-0.008,-0.957,-0.244,116869
-0.299,-0.008,-0.956,-0.122,116873
-0.299,-0.008,-0.956,-0.183,116877
-0.299,-0.008,-0.956,-0.183,116881
-0.299,-0.007,-0.958,-0.305,116885
-0.299,-0.007,-0.958,-0.244,116889
-0.299,-0.008,-0.957,-0.183,116893
-0.299,-0.008,-0.957,-0.244,116897
-0.299,-0.008,-0.957,-0.244,116901
-0.299,-0.007,-0.957,-0.122,116905
-0.299,-0.007,-0.957,-0.183,116909
-0.297,-0.007,-0.956,-0.366,116913
-0.297,-0.007,-0.956,-0.183,116917
-0.298,-0.01,-0.958,-0.183,116921
-0.298,-0.01,-0.958,-0.183,116925
-0.298,-0.01,-0.958,-0.244,116929
-0.3,-0.01,-0.958,-0.061,116933
-0.3,-0.01,-0.958,-0.183,116937
-0.3,-0.008,-0.956,-0.244,116941
-0.3,-0.008,-0.956,-0.244,116945
-0.3,-0.008,-0.956,-0.183,116949
-0.3,-0.008,-0.957,-0.183,116953
-0.3,-0.008,-0.957,-0.244,116957
-0.299,-0.008,-0.958,-0.244,116961
-0.299,-0.008,-0.958,-0.244,116965
-0.299,-0.008,-0.958,-0.244,116969
-0.3,-0.008,-0.956,-0.061,116973
-0.3,-0.008,-0.956,-0.183,116978
-0.298,-0.01,-0.958,-0.122,116982
-0.298,-0.01,-0.958,-0.122,116986
-0.298,-0.01,-0.958,-0.122,116990
-0.298,-0.009,-0.958,-0.244,116994
-0.298,-0.009,-0.958,-0.061,116998
-0.297,-0.009,-0.96,-0.183,117002
-0.297,-0.009,-0.96,-0.366,117006
-0.297,-0.009,-0.96,-0.366,117010
-0.299,-0.008,-0.959,-0.183,117014
-0.299,-0.008,-0.959,-0.122,117018
-0.297,-0.008,-0.959,-0.305,117022
-0.297,-0.008,-0.959,-0.183,117026
-0.297,-0.009,-0.958,-0.183,117030
-0.297,-0.009,-0.958,-0.183,117034
-0.297,-0.009,-0.958,-0.122,117038
-0.297,-0.008,-0.959,-0.122,117042
-0.297,-0.008,-0.959,-0.244,117046
-0.297,-0.009,-0.958,-0.305,117050
-0.297,-0.009,-0.958,-0.305,117054
-0.297,-0.009,-0.958,-0.366,117058
-0.297,-0.009,-0.959,-0.244,117062
-0.297,-0.009,-0.959,-0.305,117066
-0.299,-0.009,-0.958,-0.244,117070
-0.299,-0.009,-0.958,-0.244,117074
-0.299,-0.009,-0.958,-0.061,117078
-0.3,-0.007,-0.958,-0.183,117082
-0.3,-0.007,-0.958,-0.183,117087
-0.299,-0.008,-0.958,-0.183,117091
-0.299,-0.008,-0.958,-0.305,117095
-0.299,-0.008,-0.958,-0.305,117099
-0.298,-0.008,-0.957,-0.122,117103
-0.298,-0.008,-0.957,-0.061,117107
-0.301,-0.009,-0.957,-0.244,117111
-0.301,-0.009,-0.957,-0.244,117115
-0.301,-0.009,-0.957,-0.244,117119
-0.3,-0.009,-0.96,0.0,117123
-0.3,-0.009,-0.96,-0.122,117127
-0.3,-0.008,-0.958,-0.244,117131
-0.3,-0.008,-0.958,-0.244,117135
-0.3,-0.008,-0.958,-0.244,117139
-0.3,-0.008,-0.958,-0.183,117143
-0.3,-0.008,-0.958,-0.061,117147
-0.299,-0.007,-0.958,-0.061,117151
-0.299,-0.007,-0.958,-0.183,117155
-0.3,-0.008,-0.958,-0.244,117159
-0.3,-0.008,-0.958,-0.244,117163
-0.3,-0.008,-0.958,-0.244,117167
-0.298,-0.007,-0.958,-0.061,117171
-0.298,-0.007,-0.958,-0.183,117175
-0.299,-0.006,-0.958,-0.183,117179
-0.299,-0.006,-0.958,-0.183,117183
-0.299,-0.006,-0.958,-0.183,117187
-0.299,-0.007,-0.958,-0.183,117191
-0.299,-0.007,-0.958,0.0,117195
-0.299,-0.006,-0.959,0.0,117199
-0.299,-0.006,-0.959,0.0,117203
-0.299,-0.006,-0.959,-0.122,117207
-0.297,-0.006,-0.958,-0.305,117211
-0.297,-0.006,-0.958,-0.244,117215
-0.298,-0.007,-0.956,-0.244,117219
-0.298,-0.007,-0.956,-0.244,117223
-0.298,-0.007,-0.956,-0.183,117227
-0.299,-0.006,-0.959,-0.244,117231
-0.299,-0.006,-0.959,-0.244,117236
-0.297,-0.007,-0.958,-0.183,117240
-0.297,-0.007,-0.958,-0.183,117244
-0.297,-0.007,-0.958,-0.183,117248
-0.296,-0.005,-0.958,-0.122,117252
-0.296,-0.005,-0.958,-0.183,117256
-0.296,-0.006,-0.959,-0.244,117260
-0.296,-0.006,-0.959,-0.366,117264
-0.296,-0.006,-0.959,-0.366,117268
-0.295,-0.007,-0.959,-0.244,117272
-0.295,-0.007,-0.959,-0.244,117276
-0.296,-0.008,-0.959,-0.244,117280
-0.296,-0.008,-0.959,0.0,117284
-0.297,-0.008,-0.958,-0.305,117288
-0.297,-0.008,-0.958,-0.305,117292
-0.297,-0.008,-0.958,-0.183,117296
-0.296,-0.007,-0.958,-0.183,117300
-0.296,-0.007,-0.958,-0.244,117304
-0.297,-0.007,-0.96,-0.305,117308
-0.297,-0.007,-0.96,-0.305,117312
-0.297,-0.007,-0.96,-0.305,117316
-0.297,-0.007,-0.959,-0.244,117320
-0.297,-0.007,-0.959,-0.244,117324
-0.299,-0.011,-0.958,-0.122,117328
-0.299,-0.011,-0.958,-0.122,117332
-0.299,-0.011,-0.958,-0.183,117336
-0.299,-0.01,-0.959,-0.183,117340
-0.299,-0.01,-0.959,-0.244,117344
-0.299,-0.009,-0.958,-0.244,117348
-0.299,-0.009,-0.958,-0.305,117352
-0.299,-0.009,-0.958,-0.305,117356
-0.299,-0.009,-0.958,-0.305,117360
-0.299,-0.009,-0.958,-0.122,117364
-0.298,-0.012,-0.958,-0.122,117369
-0.298,-0.012,-0.958,-0.366,117373
-0.298,-0.012,-0.958,-0.366,117377
-0.297,-0.01,-0.957,-0.244,117381
-0.297,-0.01,-0.957,0.061,117385
-0.299,-0.009,-0.958,0.0,117389
-0.299,-0.009,-0.958,-0.244,117393
-0.299,-0.009,-0.958,-0.244,117397
-0.299,-0.007,-0.959,-0.183,117401
-0.299,-0.007,-0.959,-0.122,117405
-0.301,-0.008,-0.958,-0.183,117409
-0.301,-0.008,-0.958,-0.122,117413
-0.299,-0.007,-0.957,-0.183,117417
-0.299,-0.007,-0.957,-0.183,117421
-0.299,-0.007,-0.957,-0.061,117425
-0.3,-0.007,-0.957,-0.122,117429
-0.3,-0.007,-0.957,-0.244,117433
-0.3,-0.008,-0.956,-0.183,117437
-0.3,-0.008,-0.956,-0.183,117441
-0.3,-0.008,-0.956,-0.122,117445
-0.299,-0.007,-0.957,-0.183,117449
-0.299,-0.007,-0.957,-0.244,117453
-0.297,-0.006,-0.959,-0.183,117457
-0.297,-0.006,-0.959,-0.183,117461
-0.297,-0.006,-0.959,-0.244,117465
-0.3,-0.006,-0.959,-0.244,117469
-0.3,-0.006,-0.959,-0.244,117473
-0.3,-0.005,-0.957,-0.183,117477
-0.3,-0.005,-0.957,-0.122,117481
-0.3,-0.005,-0.957,-0.122,117485
-0.299,-0.005,-0.956,-0.183,117490
-0.299,-0.005,-0.956,-0.244,117494
-0.301,-0.007,-0.959,-0.122,117498
-0.301,-0.007,-0.959,-0.183,117502
-0.301,-0.007,-0.959,-0.183,117506
-0.301,-0.005,-0.957,-0.244,117510
-0.301,-0.005,-0.957,-0.183,117514
-0.297,-0.007,-0.958,-0.244,117518
-0.297,-0.007,-0.958,-0.183,117522
-0.297,-0.007,-0.958,-0.183,117526
-0.297,-0.008,-0.958,-0.244,117530
-0.297,-0.008,-0.958,-0.183,117534
-0.298,-0.007,-0.957,-0.183,117538
-0.298,-0.007,-0.957,-0.183,117542
-0.297,-0.007,-0.959,-0.183,117546
-0.297,-0.007,-0.959,-0.183,117550
-0.297,-0.007,-0.959,-0.244,117554
-0.298,-0.006,-0.959,-0.122,117558
-0.298,-0.006,-0.959,-0.183,117562
-0.298,-0.006,-0.957,-0.122,117566
-0.298,-0.006,-0.957,-0.122,117570
-0.298,-0.006,-0.957,-0.183,117574
-0.297,-0.008,-0.959,-0.366,117578
-0.297,-0.008,-0.959,-0.061,117582
-0.298,-0.009,-0.96,-0.061,117586
-0.298,-0.009,-0.96,-0.061,117590
-0.298,-0.009,-0.96,-0.122,117594
-0.299,-0.009,-0.959,-0.244,117598
-0.299,-0.009,-0.959,-0.305,117602
-0.298,-0.009,-0.958,-0.122,117606
-0.298,-0.009,-0.958,-0.183,117611
-0.298,-0.009,-0.958,-0.183,117615
-0.297,-0.009,-0.958,-0.305,117619
-0.297,-0.009,-0.958,-0.305,117623
-0.297,-0.009,-0.957,-0.244,117627
-0.297,-0.009,-0.957,-0.305,117631
-0.297,-0.009,-0.957,-0.305,117635
-0.297,-0.01,-0.959,-0.244,117639
-0.297,-0.01,-0.959,-0.427,117643
-0.296,-0.01,-0.958,-0.244,117647
-0.296,-0.01,-0.958,-0.244,117651
-0.296,-0.01,-0.958,-0.244,117655
-0.296,-0.009,-0.958,-0.366,117659
-0.296,-0.009,-0.958,-0.305,117663
-0.297,-0.008,-0.958,-0.244,117667
-0.297,-0.008,-0.958,-0.244,117671
-0.298,-0.008,-0.958,0.0,117675
-0.298,-0.008,-0.958,0.0,117679
-0.298,-0.008,-0.958,-0.122,117683
-0.298,-0.008,-0.959,-0.244,117687
-0.298,-0.008,-0.959,-0.122,117691
-0.299,-0.006,-0.958,-0.061,117695
-0.299,-0.006,-0.958,-0.061,117699
-0.299,-0.006,-0.958,-0.183,117703
-0.3,-0.005,-0.958,-0.244,117707
-0.3,-0.005,-0.958,-0.183,117711
-0.299,-0.004,-0.959,-0.183,117715
-0.299,-0.004,-0.959,-0.183,117719
-0.299,-0.004,-0.959,-0.305,117723
-0.299,-0.004,-0.958,-0.305,117727
-0.299,-0.004,-0.958,-0.427,117731
-0.3,-0.004,-0.956,-0.366,117735
-0.3,-0.004,-0.956,-0.244,117739
-0.3,-0.004,-0.956,-0.244,117744
-0.3,-0.003,-0.956,-0.305,117748
-0.3,-0.003,-0.956,-0.183,117752
-0.3,-0.005,-0.956,-0.244,117756
-0.3,-0.005,-0.956,-0.244,117760
-0.3,-0.005,-0.956,-0.244,117764
-0.299,-0.004,-0.956,-0.305,117768
-0.299,-0.004,-0.956,-0.244,117772
-0.3,-0.004,-0.957,-0.366,117776
-0.3,-0.004,-0.957,-0.122,117780
-0.3,-0.005,-0.957,-0.244,117784
-0.3,-0.005,-0.957,-0.244,117788
-0.3,-0.005,-0.957,-0.305,117792
-0.3,-0.007,-0.958,-0.366,117796
-0.3,-0.007,-0.958,-0.244,117800
-0.3,-0.008,-0.958,-0.305,117804
-0.3,-0.008,-0.958,-0.305,117808
-0.3,-0.008,-0.958,-0.305,117812
-0.3,-0.007,-0.957,-0.244,117816
-0.3,-0.007,-0.957,-0.183,117820
-0.299,-0.008,-0.958,-0.183,117824
-0.299,-0.008,-0.958,-0.183,117828
-0.299,-0.008,-0.958,-0.244,117832
-0.298,-0.01,-0.957,-0.244,117836
-0.298,-0.01,-0.957,-0.305,117840
-0.299,-0.01,-0.958,-0.244,117844
-0.299,-0.01,-0.958,-0.061,117848
-0.299,-0.01,-0.958,-0.061,117852
-0.297,-0.008,-0.958,-0.061,117857
-0.297,-0.008,-0.958,-0.183,117861
-0.296,-0.011,-0.958,-0.061,117865
-0.296,-0.011,-0.958,-0.061,117869
-0.296,-0.011,-0.958,-0.061,117873
-0.296,-0.01,-0.959,-0.183,117877
-0.296,-0.01,-0.959,-0.122,117881
-0.296,-0.009,-0.958,-0.122,117885
-0.296,-0.009,-0.958,-0.183,117889
-0.296,-0.009,-0.958,-0.183,117893
-0.296,-0.009,-0.96,-0.183,117897
-0.296,-0.009,-0.96,-0.122,117901
-0.295,-0.007,-0.959,-0.244,117905
-0.295,-0.007,-0.959,-0.244,117909
-0.295,-0.007,-0.96,-0.183,117913
-0.295,-0.007,-0.96,-0.183,117917
-0.295,-0.007,-0.96,-0.244,117921
-0.295,-0.006,-0.96,-0.244,117925
-0.295,-0.006,-0.96,-0.244,117929
-0.297,-0.007,-0.959,-0.305,117933
-0.297,-0.007,-0.959,-0.305,117937
-0.297,-0.007,-0.959,-0.305,117941
-0.297,-0.007,-0.961,-0.366,117945
-0.297,-0.007,-0.961,-0.244,117949
-0.295,-0.007,-0.96,-0.244,117953
-0.295,-0.007,-0.96,-0.244,117957
-0.295,-0.007,-0.96,-0.244,117961
-0.296,-0.008,-0.96,-0.244,117966
-0.296,-0.008,-0.96,-0.183,117970
-0.298,-0.007,-0.961,-0.244,117974
-0.298,-0.007,-0.961,-0.183,117978
-0.298,-0.007,-0.961,-0.183,117982
-0.298,-0.004,-0.961,-0.183,117986
-0.298,-0.004,-0.961,-0.244,117990
-0.299,-0.005,-0.958,-0.244,117994
-0.299,-0.005,-0.958,-0.183,117998
-0.299,-0.005,-0.958,-0.183,118002
-0.299,-0.007,-0.958,-0.122,118006
-0.299,-0.007,-0.958,-0.122,118010
-0.299,-0.007,-0.958,-0.183,118014
-0.299,-0.007,-0.958,-0.122,118018
-0.297,-0.007,-0.955,-0.183,118022
-0.297,-0.007,-0.955,-0.183,118026
-0.297,-0.007,-0.955,-0.183,118030
-0.298,-0.007,-0.96,-0.183,118034
-0.298,-0.007,-0.96,-0.244,118038
-0.299,-0.009,-0.957,-0.183,118042
-0.299,-0.009,-0.957,-0.183,118046
-0.299,-0.009,-0.957,-0.305,118050
-0.301,-0.009,-0.959,-0.244,118054
-0.301,-0.009,-0.959,-0.183,118058
-0.298,-0.007,-0.958,-0.305,118062
-0.298,-0.007,-0.958,-0.305,118066
-0.298,-0.007,-0.958,-0.183,118070
-0.3,-0.008,-0.957,-0.244,118074
-0.3,-0.008,-0.957,-0.305,118078
-0.301,-0.008,-0.957,-0.183,118082
-0.301,-0.008,-0.957,-0.183,118087
-0.301,-0.008,-0.957,-0.183,118091
-0.302,-0.008,-0.955,-0.122,118095
-0.302,-0.008,-0.955,-0.183,118099
-0.302,-0.009,-0.956,-0.122,118103
-0.302,-0.009,-0.956,-0.183,118107
-0.302,-0.009,-0.956,-0.183,118111
-0.3,-0.01,-0.956,-0.183,118115
-0.3,-0.01,-0.956,-0.244,118119
-0.301,-0.008,-0.956,-0.183,118123
-0.301,-0.008,-0.956,-0.183,118127
-0.301,-0.008,-0.956,-0.183,118131
-0.303,-0.008,-0.959,-0.122,118135
-0.303,-0.008,-0.959,-0.305,118139
-0.303,-0.008,-0.957,-0.183,118143
-0.303,-0.008,-0.957,-0.244,118147
-0.302,-0.008,-0.953,-0.183,118151
-0.302,-0.008,-0.953,-0.183,118155
-0.302,-0.008,-0.953,-0.122,118159
-0.302,-0.008,-0.957,-0.122,118163
-0.302,-0.008,-0.957,-0.183,118167
-0.302,-0.008,-0.958,-0.122,118171
-0.302,-0.008,-0.958,-0.122,118175
-0.302,-0.008,-0.958,-0.244,118179
-0.301,-0.01,-0.957,-0.183,118183
-0.301,-0.01,-0.957,-0.122,118187
-0.3,-0.008,-0.957,-0.122,118191
-0.3,-0.008,-0.957,-0.122,118195
-0.3,-0.008,-0.957,-0.183,118199
-0.299,-0.008,-0.956,-0.061,118203
-0.299,-0.008,-0.956,-0.061,118207
-0.3,-0.008,-0.958,-0.183,118212
-0.3,-0.008,-0.958,-0.122,118216
-0.3,-0.008,-0.958,-0.122,118220
-0.3,-0.008,-0.96,-0.244,118224
-0.3,-0.008,-0.96,-0.305,118228
-0.299,-0.008,-0.958,-0.244,118232
-0.299,-0.008,-0.958,-0.244,118236
-0.299,-0.008,-0.958,-0.244,118240
-0.297,-0.007,-0.958,-0.183,118244
-0.297,-0.007,-0.958,-0.183,118248
-0.296,-0.008,-0.96,-0.122,118252
-0.296,-0.008,-0.96,-0.061,118256
-0.296,-0.008,-0.96,-0.061,118260
-0.296,-0.008,-0.96,-0.122,118264
-0.296,-0.008,-0.96,-0.122,118268
-0.294,-0.007,-0.959,-0.122,118272
-0.294,-0.007,-0.959,-0.061,118276
-0.295,-0.008,-0.958,-0.061,118280
-0.295,-0.008,-0.958,-0.061,118284
-0.295,-0.008,-0.958,-0.122,118288
-0.297,-0.008,-0.961,-0.244,118292
-0.297,-0.008,-0.961,-0.061,118296
-0.296,-0.006,-0.96,-0.061,118300
-0.296,-0.006,-0.96,-0.061,118304
-0.296,-0.006,-0.96,-0.183,118308
-0.298,-0.006,-0.961,-0.183,118312
-0.298,-0.006,-0.961,-0.122,118316
-0.298,-0.008,-0.96,-0.305,118320
-0.298,-0.008,-0.96,-0.305,118324
-0.298,-0.008,-0.96,-0.305,118328
-0.296,-0.007,-0.959,-0.305,118333
-0.296,-0.007,-0.959,-0.244,118337
-0.299,-0.006,-0.959,-0.305,118341
-0.299,-0.006,-0.959,-0.305,118345
-0.299,-0.006,-0.959,-0.305,118349
-0.298,-0.008,-0.959,-0.366,118353
-0.298,-0.008,-0.959,-0.244,118357
-0.299,-0.007,-0.958,-0.244,118361
-0.299,-0.007,-0.958,-0.244,118365
-0.299,-0.007,-0.958,-0.244,118369
-0.3,-0.006,-0.958,-0.183,118373
-0.3,-0.006,-0.958,-0.122,118377
-0.297,-0.006,-0.958,-0.061,118381
-0.297,-0.006,-0.958,-0.244,118385
-0.297,-0.006,-0.958,-0.244,118389
-0.299,-0.006,-0.957,-0.183,118393
-0.299,-0.006,-0.957,-0.183,118397
-0.302,-0.006,-0.957,-0.244,118401
-0.302,-0.006,-0.957,-0.244,118405
-0.301,-0.006,-0.958,-0.183,118409
-0.301,-0.006,-0.958,-0.183,118413
-0.301,-0.006,-0.958,-0.244,118417
-0.302,-0.007,-0.955,-0.244,118421
-0.302,-0.007,-0.955,-0.183,118425
-0.303,-0.007,-0.955,-0.366,118429
-0.303,-0.007,-0.955,-0.366,118433
-0.303,-0.007,-0.955,-0.244,118437
-0.301,-0.008,-0.956,-0.122,118441
-0.301,-0.008,-0.956,-0.183,118445
-0.302,-0.01,-0.957,-0.122,118449
-0.302,-0.01,-0.957,-0.183,118453
-0.302,-0.01,-0.957,-0.183,118458
-0.302,-0.008,-0.958,-0.183,118462
-0.302,-0.008,-0.958,-0.122,118466
-0.301,-0.009,-0.957,-0.122,118470
-0.301,-0.009,-0.957,-0.122,118474
-0.301,-0.009,-0.957,-0.122,118478
-0.3,-0.01,-0.956,-0.183,118482
-0.3,-0.01,-0.956,-0.183,118486
-0.298,-0.01,-0.958,-0.061,118490
-0.298,-0.01,-0.958,-0.061,118494
-0.298,-0.01,-0.958,-0.061,118498
-0.298,-0.009,-0.958,-0.122,118502
-0.298,-0.009,-0.958,-0.244,118506
-0.298,-0.007,-0.958,-0.183,118510
-0.298,-0.007,-0.958,-0.183,118514
-0.298,-0.007,-0.958,-0.122,118518
-0.298,-0.007,-0.958,-0.122,118522
-0.298,-0.007,-0.958,-0.183,118526
-0.298,-0.006,-0.958,-0.122,118530
-0.298,-0.006,-0.958,-0.183,118534
-0.295,-0.008,-0.959,-0.244,118538
-0.295,-0.008,-0.959,-0.244,118542
-0.295,-0.008,-0.959,-0.244,118546
-0.297,-0.008,-0.957,-0.183,118550
-0.297,-0.008,-0.957,-0.183,118554
-0.297,-0.008,-0.958,-0.183,118558
-0.297,-0.008,-0.958,-0.183,118562
-0.297,-0.008,-0.958,-0.122,118566
-0.297,-0.007,-0.959,-0.183,118570
-0.297,-0.007,-0.959,-0.244,118575
-0.297,-0.008,-0.96,-0.244,118579
-0.297,-0.008,-0.96,-0.183,118583
-0.297,-0.008,-0.96,-0.183,118587
-0.297,-0.006,-0.959,-0.122,118591
-0.297,-0.006,-0.959,-0.122,118595
-0.298,-0.007,-0.959,0.122,118599
-0.298,-0.007,-0.959,-0.061,118603
-0.298,-0.007,-0.959,-0.061,118607
-0.296,-0.007,-0.959,-0.183,118611
-0.296,-0.007,-0.959,-0.305,118615
-0.299,-0.006,-0.959,-0.183,118619
-0.299,-0.006,-0.959,-0.122,118623
-0.299,-0.006,-0.959,-0.122,118627
-0.297,-0.009,-0.957,-0.244,118631
-0.297,-0.009,-0.957,-0.244,118635
-0.298,-0.004,-0.959,-0.183,118639
-0.298,-0.004,-0.959,-0.122,118643
-0.298,-0.006,-0.96,-0.183,118647
-0.298,-0.006,-0.96,-0.183,118651
-0.298,-0.006,-0.96,-0.183,118655
-0.298,-0.006,-0.958,-0.183,118659
-0.298,-0.006,-0.958,-0.122,118663
-0.297,-0.005,-0.957,-0.183,118667
-0.297,-0.005,-0.957,-0.183,118671
-0.297,-0.005,-0.957,-0.305,118675
-0.297,-0.006,-0.959,-0.183,118679
-0.297,-0.006,-0.959,-0.183,118683
-0.299,-0.006,-0.959,-0.305,118688
-0.299,-0.006,-0.959,-0.305,118692
-0.299,-0.006,-0.959,-0.305,118696
-0.3,-0.006,-0.957,-0.061,118700
-0.3,-0.006,-0.957,-0.305,118704
-0.3,-0.008,-0.957,-0.427,118708
-0.3,-0.008,-0.957,-0.305,118712
-0.3,-0.008,-0.957,-0.305,118716
-0.301,-0.006,-0.96,-0.305,118720
-0.301,-0.006,-0.96,-0.183,118724
-0.3,-0.008,-0.957,-0.305,118728
-0.3,-0.008,-0.957,-0.366,118732
-0.3,-0.008,-0.957,-0.366,118736
-0.301,-0.009,-0.958,-0.244,118740
-0.301,-0.009,-0.958,-0.183,118744
-0.301,-0.007,-0.957,-0.244,118748
-0.301,-0.007,-0.957,-0.305,118752
-0.301,-0.007,-0.957,-0.305,118756
-0.302,-0.008,-0.958,-0.366,118760
-0.302,-0.008,-0.958,-0.244,118764
-0.302,-0.01,-0.959,-0.244,118768
-0.302,-0.01,-0.959,-0.244,118772
-0.3,-0.01,-0.957,-0.122,118776
-0.3,-0.01,-0.957,-0.122,118780
-0.3,-0.01,-0.957,-0.122,118784
-0.3,-0.01,-0.956,-0.122,118788
-0.3,-0.01,-0.956,-0.122,118792
-0.3,-0.01,-0.957,-0.183,118796
-0.3,-0.01,-0.957,-0.183,118800
-0.3,-0.01,-0.957,-0.183,118804
-0.3,-0.01,-0.958,-0.183,118808
-0.3,-0.01,-0.958,-0.122,118812
-0.299,-0.009,-0.957,-0.183,118816
-0.299,-0.009,-0.957,-0.183,118820
-0.299,-0.009,-0.957,-0.244,118825
-0.3,-0.008,-0.958,-0.122,118829
-0.3,-0.008,-0.958,-0.122,118833
-0.298,-0.008,-0.957,-0.183,118837
-0.298,-0.008,-0.957,-0.183,118841
-0.298,-0.008,-0.957,-0.183,118845
-0.298,-0.007,-0.957,-0.122,118849
-0.298,-0.007,-0.957,-0.244,118853
-0.299,-0.006,-0.958,-0.183,118857
-0.299,-0.006,-0.958,-0.183,118861
-0.299,-0.006,-0.958,-0.183,118865
-0.297,-0.006,-0.958,-0.183,118869
-0.297,-0.006,-0.958,-0.244,118873
-0.295,-0.006,-0.958,-0.122,118877
-0.295,-0.006,-0.958,-0.244,118881
-0.297,-0.005,-0.959,-0.305,118885
-0.297,-0.005,-0.959,-0.305,118889
-0.297,-0.005,-0.959,-0.183,118893
-0.296,-0.007,-0.961,-0.061,118897
-0.296,-0.007,-0.961,-0.122,118901
-0.295,-0.007,-0.96,-0.061,118905
-0.295,-0.007,-0.96,-0.061,118909
-0.295,-0.007,-0.96,-0.244,118913
-0.295,-0.005,-0.96,-0.183,118917
-0.295,-0.005,-0.96,-0.122,118921
-0.296,-0.005,-0.958,-0.244,118925
-0.296,-0.005,-0.958,-0.244,118929
-0.296,-0.005,-0.958,-0.183,118933
-0.297,-0.004,-0.959,-0.244,118938
-0.297,-0.004,-0.959,-0.244,118942
-0.298,-0.008,-0.959,-0.244,118946
-0.298,-0.008,-0.959,-0.244,118950
-0.298,-0.008,-0.959,-0.244,118954
-0.299,-0.005,-0.957,-0.366,118958
-0.299,-0.005,-0.957,-0.183,118962
-0.297,-0.007,-0.96,-0.122,118966
-0.297,-0.007,-0.96,-0.183,118970
-0.297,-0.007,-0.96,-0.183,118974
-0.299,-0.008,-0.959,-0.183,118978
-0.299,-0.008,-0.959,-0.122,118982
-0.299,-0.008,-0.96,-0.122,118986
-0.299,-0.008,-0.96,-0.244,118990
-0.299,-0.008,-0.96,-0.244,118994
-0.298,-0.009,-0.96,-0.183,118998
-0.298,-0.009,-0.96,-0.244,119002
-0.299,-0.008,-0.957,-0.305,119006
-0.299,-0.008,-0.957,-0.305,119010
-0.299,-0.008,-0.956,-0.122,119014
-0.299,-0.008,-0.956,-0.122,119018
-0.299,-0.008,-0.956,-0.183,119022
-0.299,-0.008,-0.959,-0.244,119026
-0.299,-0.008,-0.959,-0.244,119030
-0.3,-0.007,-0.959,-0.183,119034
-0.3,-0.007,-0.959,-0.183,119038
-0.3,-0.007,-0.959,-0.244,119042
-0.302,-0.008,-0.958,-0.244,119046
-0.302,-0.008,-0.958,-0.244,119050
-0.301,-0.008,-0.954,-0.244,119054
-0.301,-0.008,-0.954,-0.244,119058
-0.301,-0.008,-0.954,-0.305,119063
-0.3,-0.009,-0.955,-0.122,119067
-0.3,-0.009,-0.955,-0.061,119071
-0.3,-0.007,-0.958,-0.427,119075
-0.3,-0.007,-0.958,-0.366,119079
-0.3,-0.007,-0.958,-0.366,119083
-0.3,-0.008,-0.958,-0.305,119087
-0.3,-0.008,-0.958,-0.244,119091
-0.3,-0.009,-0.955,-0.244,119095
-0.3,-0.009,-0.955,-0.122,119099
-0.3,-0.009,-0.955,-0.122,119103
-0.302,-0.01,-0.958,-0.183,119107
-0.302,-0.01,-0.958,-0.244,119111
-0.3,-0.01,-0.956,-0.305,119115
-0.3,-0.01,-0.956,-0.244,119119
-0.299,-0.009,-0.956,-0.244,119123
-0.299,-0.009,-0.956,-0.244,119127
-0.299,-0.009,-0.956,-0.122,119131
-0.301,-0.01,-0.959,-0.183,119135
-0.301,-0.01,-0.959,-0.305,119139
-0.301,-0.009,-0.959,-0.305,119143
-0.301,-0.009,-0.959,-0.305,119147
-0.301,-0.009,-0.959,-0.244,119151
-0.3,-0.01,-0.958,-0.183,119155
-0.3,-0.01,-0.958,-0.183,119159
-0.301,-0.01,-0.957,-0.183,119163
-0.301,-0.01,-0.957,-0.183,119167
-0.301,-0.01,-0.957,-0.183,119171
-0.3,-0.009,-0.958,-0.183,119175
-0.3,-0.009,-0.958,-0.183,119179
-0.298,-0.008,-0.957,-0.183,119183
-0.298,-0.008,-0.957,-0.183,119188
-0.298,-0.008,-0.957,-0.244,119192
-0.299,-0.007,-0.958,-0.366,119196
-0.299,-0.007,-0.958,-0.305,119200
-0.299,-0.008,-0.96,-0.183,119204
-0.299,-0.008,-0.96,-0.244,119208
-0.299,-0.008,-0.96,-0.244,119212
-0.297,-0.006,-0.958,-0.244,119216
-0.297,-0.006,-0.958,-0.244,119220
-0.3,-0.008,-0.957,-0.183,119224
-0.3,-0.008,-0.957,-0.366,119228
-0.3,-0.008,-0.957,-0.366,119232
-0.299,-0.007,-0.959,-0.244,119236
-0.299,-0.007,-0.959,-0.183,119240
-0.298,-0.005,-0.961,-0.305,119244
-0.298,-0.005,-0.961,-0.244,119248
-0.299,-0.007,-0.96,-0.183,119252
-0.299,-0.007,-0.96,-0.183,119256
-0.299,-0.007,-0.96,-0.183,119260
-0.299,-0.008,-0.958,-0.244,119264
-0.299,-0.008,-0.958,-0.244,119268
-0.298,-0.006,-0.959,-0.305,119272
-0.298,-0.006,-0.959,-0.305,119276
-0.298,-0.006,-0.959,-0.305,119280
-0.297,-0.007,-0.958,-0.183,119284
-0.297,-0.007,-0.958,-0.183,119288
-0.298,-0.008,-0.958,-0.183,119292
-0.298,-0.008,-0.958,-0.183,119296
-0.298,-0.008,-0.958,-0.061,119300
-0.297,-0.008,-0.962,-0.183,119304
-0.297,-0.008,-0.962,-0.183,119309
-0.296,-0.008,-0.96,-0.244,119313
-0.296,-0.008,-0.96,-0.244,119317
-0.296,-0.008,-0.96,-0.244,119321
-0.298,-0.009,-0.96,-0.122,119325
-0.298,-0.009,-0.96,-0.122,119329
-0.297,-0.008,-0.957,-0.061,119333
-0.297,-0.008,-0.957,-0.244,119337
-0.297,-0.008,-0.957,-0.244,119341
-0.298,-0.01,-0.958,-0.183,119345
-0.298,-0.01,-0.958,-0.244,119349
-0.298,-0.008,-0.957,-0.183,119353
-0.298,-0.008,-0.957,-0.366,119357
-0.298,-0.008,-0.957,-0.366,119361
-0.299,-0.007,-0.958,-0.244,119365
-0.299,-0.007,-0.958,-0.305,119369
-0.298,-0.009,-0.959,-0.122,119373
-0.298,-0.009,-0.959,-0.061,119377
-0.301,-0.008,-0.961,-0.305,119381
-0.301,-0.008,-0.961,-0.305,119385
-0.301,-0.008,-0.961,-0.366,119389
-0.299,-0.007,-0.958,-0.183,119393
-0.299,-0.007,-0.958,-0.183,119397
-0.298,-0.008,-0.958,-0.183,119401
-0.298,-0.008,-0.958,-0.183,119405
-0.298,-0.008,-0.958,-0.244,119409
-0.298,-0.008,-0.956,-0.244,119413
-0.298,-0.008,-0.956,-0.244,119417
-0.301,-0.007,-0.958,-0.183,119421
-0.301,-0.007,-0.958,-0.183,119426
-0.301,-0.007,-0.958,-0.183,119430
-0.301,-0.007,-0.958,-0.122,119434
-0.301,-0.007,-0.958,-0.122,119438
-0.3,-0.008,-0.958,-0.305,119442
-0.3,-0.008,-0.958,-0.244,119446
-0.3,-0.008,-0.958,-0.244,119450
-0.3,-0.006,-0.956,-0.183,119454
-0.3,-0.006,-0.956,0.0,119458
-0.299,-0.008,-0.957,-0.061,119462
-0.299,-0.008,-0.957,-0.122,119466
-0.299,-0.008,-0.957,-0.122,119470
-0.301,-0.008,-0.961,-0.061,119474
-0.301,-0.008,-0.961,-0.122,119478
-0.299,-0.009,-0.959,-0.122,119482
-0.299,-0.009,-0.959,-0.061,119486
-0.299,-0.009,-0.959,-0.061,119490
-0.298,-0.009,-0.958,-0.244,119494
-0.298,-0.009,-0.958,-0.244,119498
-0.298,-0.007,-0.958,-0.122,119502
-0.298,-0.007,-0.958,-0.183,119506
-0.298,-0.009,-0.958,-0.183,119510
-0.298,-0.009,-0.958,-0.183,119514
-0.298,-0.009,-0.958,-0.183,119518
-0.297,-0.008,-0.958,-0.122,119522
-0.297,-0.008,-0.958,-0.305,119526
-0.297,-0.007,-0.959,-0.183,119530
-0.297,-0.007,-0.959,-0.183,119534
-0.297,-0.007,-0.959,-0.183,119538
-0.297,-0.007,-0.96,-0.366,119542
-0.297,-0.007,-0.96,-0.244,119546
-0.296,-0.005,-0.958,-0.244,119551
-0.296,-0.005,-0.958,-0.244,119555
-0.296,-0.005,-0.958,-0.244,119559
-0.297,-0.005,-0.96,-0.183,119563
-0.297,-0.005,-0.96,-0.305,119567
-0.297,-0.006,-0.96,0.0,119571
-0.297,-0.006,-0.96,-0.244,119575
-0.297,-0.006,-0.96,-0.244,119579
-0.298,-0.008,-0.96,-0.244,119583
-0.298,-0.008,-0.96,-0.183,119587
-0.299,-0.007,-0.958,-0.244,119591
-0.299,-0.007,-0.958,-0.305,119595
-0.299,-0.007,-0.958,-0.305,119599
-0.298,-0.009,-0.958,-0.244,119603
-0.298,-0.009,-0.958,-0.305,119607
-0.298,-0.01,-0.958,-0.366,119611
-0.298,-0.01,-0.958,-0.244,119615
-0.298,-0.01,-0.958,-0.244,119619
-0.299,-0.007,-0.959,-0.183,119623
-0.299,-0.007,-0.959,-0.183,119627
-0.299,-0.01,-0.958,-0.122,119631
-0.299,-0.01,-0.958,-0.183,119635
-0.298,-0.01,-0.958,-0.366,119639
-0.298,-0.01,-0.958,-0.366,119643
-0.298,-0.01,-0.958,-0.366,119647
-0.301,-0.009,-0.957,-0.183,119651
-0.301,-0.009,-0.957,-0.244,119655
-0.3,-0.009,-0.958,-0.183,119659
-0.3,-0.009,-0.958,-0.183,119663
-0.3,-0.009,-0.958,-0.061,119667
-0.298,-0.009,-0.956,-0.122,119671
-0.298,-0.009,-0.956,-0.305,119675
-0.301,-0.007,-0.957,-0.427,119680
-0.301,-0.007,-0.957,-0.183,119684
-0.301,-0.007,-0.957,-0.183,119688
-0.302,-0.007,-0.958,-0.183,119692
-0.302,-0.007,-0.958,-0.244,119696
-0.301,-0.008,-0.958,-0.183,119700
-0.301,-0.008,-0.958,-0.244,119704
-0.301,-0.008,-0.958,-0.244,119708
-0.3,-0.007,-0.958,-0.183,119712
-0.3,-0.007,-0.958,-0.122,119716
-0.302,-0.008,-0.958,-0.183,119720
-0.302,-0.008,-0.958,-0.305,119724
-0.302,-0.008,-0.958,-0.305,119728
-0.301,-0.008,-0.957,-0.305,119732
-0.301,-0.008,-0.957,-0.122,119736
-0.299,-0.008,-0.956,-0.183,119740
-0.299,-0.008,-0.956,-0.305,119744
-0.298,-0.007,-0.957,-0.244,119748
-0.298,-0.007,-0.957,-0.244,119752
-0.298,-0.007,-0.957,-0.244,119756
-0.299,-0.008,-0.956,-0.244,119760
-0.299,-0.008,-0.956,-0.244,119764
-0.301,-0.009,-0.957,-0.366,119768
-0.301,-0.009,-0.957,-0.366,119772
-0.301,-0.009,-0.957,-0.305,119776
-0.3,-0.008,-0.958,-0.244,119780
-0.3,-0.008,-0.958,-0.427,119784
-0.299,-0.008,-0.958,-0.305,119788
-0.299,-0.008,-0.958,-0.305,119792
-0.299,-0.008,-0.958,-0.183,119796
-0.298,-0.008,-0.956,-0.244,119801
-0.298,-0.008,-0.956,-0.244,119805
-0.3,-0.009,-0.958,-0.122,119809
-0.3,-0.009,-0.958,-0.183,119813
-0.3,-0.009,-0.958,-0.183,119817
-0.299,-0.01,-0.958,-0.244,119821
-0.299,-0.01,-0.958,-0.244,119825
-0.3,-0.01,-0.957,-0.244,119829
-0.3,-0.01,-0.957,-0.244,119833
-0.3,-0.01,-0.957,-0.244,119837
-0.3,-0.009,-0.957,-0.183,119841
-0.3,-0.009,-0.957,-0.122,119845
-0.3,-0.008,-0.957,-0.061,119849
-0.3,-0.008,-0.957,-0.061,119853
-0.3,-0.008,-0.957,-0.061,119857
-0.301,-0.009,-0.958,-0.183,119861
-0.301,-0.009,-0.958,-0.244,119865
-0.299,-0.01,-0.958,-0.427,119869
-0.299,-0.01,-0.958,-0.183,119873
-0.299,-0.009,-0.959,-0.061,119877
-0.299,-0.009,-0.959,-0.061,119881
-0.299,-0.009,-0.959,-0.122,119885
-0.3,-0.008,-0.959,-0.122,119889
-0.3,-0.008,-0.959,-0.183,119893
-0.299,-0.01,-0.959,-0.183,119897
-0.299,-0.01,-0.959,-0.183,119901
-0.299,-0.01,-0.959,-0.183,119905
-0.299,-0.008,-0.958,-0.183,119909
-0.299,-0.008,-0.958,-0.244,119913
-0.299,-0.008,-0.959,-0.122,119918
-0.299,-0.008,-0.959,-0.122,119922
-0.299,-0.008,-0.959,-0.244,119926
-0.299,-0.009,-0.958,-0.244,119930
-0.299,-0.009,-0.958,-0.305,119934
-0.298,-0.008,-0.958,-0.305,119938
-0.298,-0.008,-0.958,-0.305,119942
-0.298,-0.008,-0.958,-0.305,119946
-0.297,-0.008,-0.958,-0.244,119950
-0.297,-0.008,-0.958,-0.183,119954
-0.298,-0.008,-0.957,-0.305,119958
-0.298,-0.008,-0.957,-0.305,119962
-0.298,-0.008,-0.957,-0.305,119966
-0.298,-0.009,-0.959,-0.366,119970
-0.298,-0.009,-0.959,-0.183,119974
-0.298,-0.006,-0.96,-0.244,119978
-0.298,-0.006,-0.96,-0.183,119982
-0.298,-0.007,-0.959,-0.183,119986
-0.298,-0.007,-0.959,-0.183,119990
-0.298,-0.007,-0.959,-0.305,119994
-0.298,-0.007,-0.959,-0.305,119998
-0.298,-0.007,-0.959,-0.122,120002
-0.299,-0.006,-0.959,-0.183,120006
-0.299,-0.006,-0.959,-0.183,120010
-0.299,-0.006,-0.959,-0.183,120014
-0.299,-0.007,-0.96,-0.183,120018
-0.299,-0.007,-0.96,-0.244,120022
-0.298,-0.008,-0.959,-0.122,120026
-0.298,-0.008,-0.959,-0.122,120030
-0.298,-0.008,-0.959,-0.305,120035
-0.298,-0.006,-0.959,-0.244,120039
-0.298,-0.006,-0.959,-0.244,120043
-0.299,-0.005,-0.959,-0.122,120047
-0.299,-0.005,-0.959,-0.183,120051
-0.299,-0.005,-0.959,-0.183,120055
-0.298,-0.006,-0.958,-0.183,120059
-0.298,-0.006,-0.958,-0.183,120063
-0.297,-0.006,-0.958,-0.122,120067
-0.297,-0.006,-0.958,-0.244,120071
-0.297,-0.006,-0.958,-0.244,120075
-0.299,-0.006,-0.958,-0.183,120079
-0.299,-0.006,-0.958,-0.183,120083
-0.296,-0.008,-0.959,-0.366,120087
-0.296,-0.008,-0.959,-0.305,120091
-0.296,-0.008,-0.959,-0.305,120095
-0.297,-0.009,-0.958,-0.244,120099
-0.297,-0.009,-0.958,-0.244,120103
-0.298,-0.008,-0.958,-0.305,120107
-0.298,-0.008,-0.958,-0.244,120111
-0.298,-0.009,-0.96,-0.183,120115
-0.298,-0.009,-0.96,-0.183,120119
-0.298,-0.009,-0.96,-0.183,120123
-0.295,-0.01,-0.96,-0.183,120127
-0.295,-0.01,-0.96,-0.244,120131
-0.297,-0.009,-0.96,-0.305,120135
-0.297,-0.009,-0.96,-0.305,120139
-0.297,-0.009,-0.96,-0.244,120143
-0.296,-0.01,-0.959,-0.305,120147
-0.296,-0.01,-0.959,-0.305,120151
-0.298,-0.007,-0.959,-0.183,120156
-0.298,-0.007,-0.959,-0.183,120160
-0.298,-0.007,-0.959,-0.366,120164
-0.296,-0.009,-0.96,-0.244,120168
-0.296,-0.009,-0.96,-0.183,120172
-0.296,-0.008,-0.959,-0.183,120176
-0.296,-0.008,-0.959,-0.305,120180
-0.296,-0.008,-0.959,-0.305,120184
-0.297,-0.007,-0.961,-0.183,120188
-0.297,-0.007,-0.961,-0.061,120192
-0.299,-0.007,-0.959,-0.183,120196
-0.299,-0.007,-0.959,-0.122,120200
-0.299,-0.007,-0.959,-0.122,120204
-0.298,-0.007,-0.958,-0.183,120208
-0.298,-0.007,-0.958,-0.183,120212
-0.297,-0.007,-0.958,-0.183,120216
-0.297,-0.007,-0.958,-0.244,120220
-0.297,-0.007,-0.958,-0.244,120224
-0.298,-0.006,-0.958,-0.305,120228
-0.298,-0.006,-0.958,-0.122,120232
-0.297,-0.008,-0.96,-0.183,120236
-0.297,-0.008,-0.96,-0.122,120240
-0.296,-0.007,-0.96,-0.061,120244
-0.296,-0.007,-0.96,-0.061,120248
-0.296,-0.007,-0.96,-0.183,120252
-0.295,-0.007,-0.959,-0.244,120256
-0.295,-0.007,-0.959,-0.244,120260
-0.296,-0.005,-0.96,-0.183,120264
-0.296,-0.005,-0.96,-0.183,120268
-0.296,-0.005,-0.96,-0.183,120272
-0.295,-0.007,-0.958,-0.244,120276
-0.295,-0.007,-0.958,-0.183,120281
-0.295,-0.006,-0.96,-0.183,120285
-0.295,-0.006,-0.96,-0.183,120289
-0.295,-0.006,-0.96,-0.183,120293
-0.296,-0.006,-0.959,-0.183,120297
-0.296,-0.006,-0.959,-0.122,120301
-0.295,-0.007,-0.961,-0.183,120305
-0.295,-0.007,-0.961,-0.244,120309
-0.295,-0.007,-0.961,-0.244,120313
-0.295,-0.007,-0.959,-0.305,120317
-0.295,-0.007,-0.959,-0.122,120321
-0.296,-0.008,-0.959,-0.122,120325
-0.296,-0.008,-0.959,-0.244,120329
-0.296,-0.008,-0.959,-0.244,120333
-0.296,-0.007,-0.958,-0.122,120337
-0.296,-0.007,-0.958,-0.122,120341
-0.297,-0.007,-0.958,-0.305,120345
-0.297,-0.007,-0.958,-0.366,120349
-0.297,-0.007,-0.958,-0.366,120353
-0.297,-0.007,-0.959,-0.366,120357
-0.297,-0.007,-0.959,-0.183,120361
-0.296,-0.006,-0.958,-0.305,120365
-0.296,-0.006,-0.958,-0.366,120369
-0.298,-0.008,-0.957,-0.244,120373
-0.298,-0.008,-0.957,-0.244,120377
-0.298,-0.008,-0.957,-0.183,120381
-0.298,-0.008,-0.958,-0.305,120385
-0.298,-0.008,-0.958,-0.305,120389
-0.297,-0.008,-0.958,-0.244,120393
-0.297,-0.008,-0.958,-0.244,120397
-0.297,-0.008,-0.958,-0.305,120401
-0.299,-0.01,-0.958,-0.305,120405
-0.299,-0.01,-0.958,-0.244,120410
-0.299,-0.01,-0.957,-0.366,120414
-0.299,-0.01,-0.957,-0.366,120418
-0.299,-0.01,-0.957,-0.183,120422
-0.301,-0.009,-0.958,-0.183,120426
-0.301,-0.009,-0.958,-0.183,120430
-0.3,-0.009,-0.959,-0.122,120434
-0.3,-0.009,-0.959,-0.244,120438
-0.3,-0.009,-0.959,-0.244,120442
-0.301,-0.009,-0.957,-0.244,120446
-0.301,-0.009,-0.957,-0.244,120450
-0.301,-0.01,-0.957,-0.305,120454
-0.301,-0.01,-0.957,-0.305,120458
-0.301,-0.01,-0.957,-0.305,120462
-0.302,-0.01,-0.956,-0.305,120466
-0.302,-0.01,-0.956,-0.122,120470
-0.299,-0.008,-0.957,-0.183,120474
-0.299,-0.008,-0.957,-0.305,120478
-0.301,-0.009,-0.958,-0.244,120482
-0.301,-0.009,-0.958,-0.244,120486
-0.301,-0.009,-0.958,-0.183,120490
-0.301,-0.009,-0.957,-0.183,120494
-0.301,-0.009,-0.957,-0.183,120498
-0.299,-0.008,-0.958,-0.183,120502
-0.299,-0.008,-0.958,-0.183,120506
-0.299,-0.008,-0.958,-0.061,120510
-0.298,-0.008,-0.958,-0.061,120514
-0.298,-0.008,-0.958,-0.183,120518
-0.299,-0.009,-0.958,-0.305,120522
-0.299,-0.009,-0.958,-0.305,120527
-0.299,-0.009,-0.958,-0.244,120531
-0.299,-0.007,-0.958,-0.122,120535
-0.299,-0.007,-0.958,-0.244,120539
-0.298,-0.006,-0.959,0.0,120543
-0.298,-0.006,-0.959,-0.183,120547
-0.298,-0.006,-0.959,-0.183,120551
-0.297,-0.007,-0.959,-0.305,120555
-0.297,-0.007,-0.959,-0.244,120559
-0.296,-0.007,-0.959,-0.183,120563
-0.296,-0.007,-0.959,-0.183,120567
-0.296,-0.007,-0.959,-0.183,120571
-0.297,-0.007,-0.958,-0.183,120575
-0.297,-0.007,-0.958,-0.183,120579
-0.297,-0.009,-0.96,-0.183,120583
-0.297,-0.009,-0.96,-0.244,120587
-0.297,-0.009,-0.96,-0.244,120591
-0.296,-0.009,-0.958,-0.183,120595
-0.296,-0.009,-0.958,-0.122,120599
-0.295,-0.009,-0.958,-0.183,120603
-0.295,-0.009,-0.958,-0.183,120607
-0.299,-0.008,-0.96,-0.244,120611
-0.299,-0.008,-0.96,-0.244,120615
-0.299,-0.008,-0.96,-0.122,120619
-0.298,-0.009,-0.96,-0.244,120623
-0.298,-0.009,-0.96,-0.244,120627
-0.297,-0.008,-0.959,-0.488,120631
-0.297,-0.008,-0.959,-0.488,120635
-0.297,-0.008,-0.959,-0.305,120639
-0.298,-0.009,-0.959,0.0,120643
-0.298,-0.009,-0.959,-0.183,120647
-0.3,-0.01,-0.957,-0.244,120651
-0.3,-0.01,-0.957,-0.244,120655
-0.3,-0.01,-0.957,-0.427,120659
-0.297,-0.009,-0.958,-0.244,120663
-0.297,-0.009,-0.958,-0.183,120668
-0.299,-0.009,-0.958,-0.305,120672
-0.299,-0.009,-0.958,-0.183,120676
-0.299,-0.009,-0.958,-0.183,120680
-0.301,-0.008,-0.958,-0.244,120684
-0.301,-0.008,-0.958,-0.183,120688
-0.299,-0.008,-0.957,-0.183,120692
-0.299,-0.008,-0.957,-0.183,120696
-0.299,-0.008,-0.957,-0.183,120700
-0.3,-0.008,-0.956,-0.305,120704
-0.3,-0.008,-0.956,-0.305,120708
-0.299,-0.008,-0.959,-0.061,120712
-0.299,-0.008,-0.959,-0.244,120716
-0.299,-0.008,-0.959,-0.244,120720
-0.3,-0.007,-0.958,-0.305,120724
-0.3,-0.007,-0.958,-0.305,120728
-0.3,-0.007,-0.959,-0.305,120732
-0.3,-0.007,-0.959,-0.305,120736
-0.3,-0.006,-0.958,-0.305,120740
-0.3,-0.006,-0.958,-0.305,120744
-0.3,-0.006,-0.958,-0.122,120748
-0.299,-0.009,-0.956,0.061,120752
-0.299,-0.009,-0.956,-0.122,120756
-0.299,-0.007,-0.957,-0.183,120760
-0.299,-0.007,-0.957,-0.183,120764
-0.299,-0.007,-0.957,-0.122,120768
-0.299,-0.006,-0.957,-0.183,120772
-0.299,-0.006,-0.957,-0.061,120776
-0.298,-0.007,-0.959,-0.183,120780
-0.298,-0.007,-0.959,-0.183,120784
-0.298,-0.007,-0.959,-0.122,120788
-0.3,-0.006,-0.958,0.0,120792
-0.3,-0.006,-0.958,0.0,120796
-0.298,-0.008,-0.958,-0.061,120800
-0.298,-0.008,-0.958,-0.061,120804
-0.298,-0.008,-0.958,-0.183,120808
-0.298,-0.008,-0.958,-0.183,120812
-0.298,-0.008,-0.958,-0.183,120816
-0.298,-0.007,-0.958,-0.427,120821
-0.298,-0.007,-0.958,-0.366,120825
-0.298,-0.007,-0.958,-0.366,120829
-0.299,-0.008,-0.959,-0.122,120833
-0.299,-0.008,-0.959,-0.183,120837
-0.297,-0.007,-0.958,-0.305,120841
-0.297,-0.007,-0.958,-0.183,120845
-0.297,-0.007,-0.958,-0.183,120849
-0.297,-0.008,-0.959,-0.244,120853
-0.297,-0.008,-0.959,-0.183,120857
-0.297,-0.006,-0.959,-0.183,120861
-0.297,-0.006,-0.959,-0.183,120865
-0.297,-0.006,-0.959,-0.183,120869
-0.298,-0.006,-0.959,-0.183,120873
-0.298,-0.006,-0.959,-0.183,120877
-0.298,-0.006,-0.959,-0.244,120881
-0.298,-0.006,-0.959,-0.183,120885
-0.299,-0.005,-0.959,-0.366,120889
-0.299,-0.005,-0.959,-0.366,120893
-0.299,-0.005,-0.959,-0.122,120897
-0.298,-0.008,-0.96,-0.122,120901
-0.298,-0.008,-0.96,-0.305,120905
-0.296,-0.007,-0.959,-0.305,120909
-0.296,-0.007,-0.959,-0.305,120913
-0.296,-0.007,-0.959,-0.244,120917
-0.298,-0.007,-0.957,-0.244,120921
-0.298,-0.007,-0.957,-0.305,120925
-0.299,-0.007,-0.958,-0.366,120929
-0.299,-0.007,-0.958,-0.244,120933
-0.299,-0.007,-0.958,-0.244,120938
-0.297,-0.006,-0.958,-0.366,120942
-0.297,-0.006,-0.958,-0.244,120946
-0.3,-0.008,-0.958,-0.122,120950
-0.3,-0.008,-0.958,-0.183,120954
-0.3,-0.008,-0.958,-0.183,120958
-0.301,-0.009,-0.959,-0.244,120962
-0.301,-0.009,-0.959,-0.183,120966
-0.3,-0.009,-0.958,-0.122,120970
-0.3,-0.009,-0.958,-0.183,120974
-0.3,-0.009,-0.958,-0.183,120978
-0.299,-0.008,-0.957,-0.183,120982
-0.299,-0.008,-0.957,-0.183,120986
-0.299,-0.008,-0.957,-0.061,120990
-0.299,-0.008,-0.957,-0.183,120994
-0.3,-0.01,-0.956,-0.244,120998
-0.3,-0.01,-0.956,-0.244,121002
-0.3,-0.01,-0.956,-0.183,121006
-0.299,-0.008,-0.958,-0.183,121010
-0.299,-0.008,-0.958,-0.244,121014
-0.3,-0.007,-0.958,-0.122,121018
-0.3,-0.007,-0.958,-0.122,121022
-0.3,-0.007,-0.958,-0.061,121026
-0.3,-0.008,-0.958,-0.183,121030
-0.3,-0.008,-0.958,-0.305,121034
-0.3,-0.01,-0.958,-0.122,121038
-0.3,-0.01,-0.958,-0.122,121042
-0.3,-0.01,-0.958,-0.122,121047
-0.299,-0.008,-0.959,-0.122,121051
-0.299,-0.008,-0.959,-0.183,121055
-0.299,-0.009,-0.958,-0.183,121059
-0.299,-0.009,-0.958,-0.183,121063
-0.299,-0.009,-0.958,-0.183,121067
-0.298,-0.007,-0.958,-0.183,121071
-0.298,-0.007,-0.958,-0.122,121075
-0.298,-0.007,-0.959,-0.183,121079
-0.298,-0.007,-0.959,0.0,121083
-0.298,-0.007,-0.959,0.0,121087
-0.297,-0.007,-0.96,-0.244,121091
-0.297,-0.007,-0.96,-0.305,121095
-0.299,-0.009,-0.958,-0.183,121099
-0.299,-0.009,-0.958,-0.122,121103
-0.299,-0.009,-0.958,-0.122,121107
-0.297,-0.008,-0.958,-0.244,121111
-0.297,-0.008,-0.958,-0.244,121115
-0.297,-0.006,-0.959,-0.183,121119
-0.297,-0.006,-0.959,-0.244,121123
-0.297,-0.008,-0.96,-0.122,121127
-0.297,-0.008,-0.96,-0.122,121131
-0.297,-0.008,-0.96,-0.244,121135
-0.296,-0.008,-0.959,-0.183,121139
-0.296,-0.008,-0.959,-0.122,121143
-0.296,-0.006,-0.958,-0.122,121147
-0.296,-0.006,-0.958,-0.122,121151
-0.296,-0.006,-0.958,-0.183,121155
-0.296,-0.006,-0.957,-0.061,121159
-0.296,-0.006,-0.957,-0.183,121163
-0.297,-0.007,-0.96,-0.122,121167
-0.297,-0.007,-0.96,-0.122,121171
-0.297,-0.007,-0.96,-0.122,121175
-0.298,-0.007,-0.959,-0.122,121180
-0.298,-0.007,-0.959,-0.061,121184
-0.297,-0.007,-0.959,-0.244,121188
-0.297,-0.007,-0.959,-0.366,121192
-0.297,-0.007,-0.959,-0.366,121196
-0.299,-0.007,-0.958,-0.366,121200
-0.299,-0.007,-0.958,-0.061,121204
-0.299,-0.007,-0.959,-0.061,121208
-0.299,-0.007,-0.959,-0.244,121212
-0.299,-0.007,-0.959,-0.244,121216
-0.3,-0.009,-0.96,-0.244,121220
-0.3,-0.009,-0.96,-0.183,121224
-0.298,-0.008,-0.957,-0.122,121228
-0.298,-0.008,-0.957,-0.122,121232
-0.298,-0.009,-0.957,-0.183,121236
-0.298,-0.009,-0.957,-0.183,121240
-0.298,-0.009,-0.957,-0.244,121244
-0.3,-0.009,-0.959,-0.183,121248
-0.3,-0.009,-0.959,-0.122,121252
-0.301,-0.009,-0.959,-0.244,121256
-0.301,-0.009,-0.959,-0.244,121260
-0.301,-0.009,-0.959,-0.183,121264
-0.3,-0.008,-0.958,-0.061,121268
-0.3,-0.008,-0.958,-0.061,121272
-0.299,-0.007,-0.957,-0.183,121276
-0.299,-0.007,-0.957,-0.183,121280
-0.299,-0.007,-0.957,-0.305,121284
-0.3,-0.008,-0.958,-0.244,121288
-0.3,-0.008,-0.958,-0.122,121293
-0.301,-0.008,-0.959,-0.122,121297
-0.301,-0.008,-0.959,-0.061,121301
-0.301,-0.008,-0.959,-0.061,121305
-0.3,-0.007,-0.958,-0.366,121309
-0.3,-0.007,-0.958,-0.244,121313
-0.299,-0.007,-0.958,-0.122,121317
-0.299,-0.007,-0.958,0.0,121321
-0.299,-0.007,-0.958,0.0,121325
-0.3,-0.006,-0.958,-0.183,121329
-0.3,-0.006,-0.958,-0.183,121333
-0.299,-0.004,-0.957,-0.183,121337
-0.299,-0.004,-0.957,-0.244,121341
-0.299,-0.004,-0.957,-0.244,121345
-0.297,-0.006,-0.958,-0.183,121349
-0.297,-0.006,-0.958,-0.183,121353
-0.298,-0.006,-0.959,0.0,121357
-0.298,-0.006,-0.959,-0.122,121361
-0.298,-0.006,-0.959,-0.122,121365
-0.295,-0.005,-0.958,-0.061,121369
-0.295,-0.005,-0.958,-0.244,121373
-0.295,-0.005,-0.961,-0.366,121377
-0.295,-0.005,-0.961,-0.305,121381
-0.295,-0.004,-0.96,-0.122,121385
-0.295,-0.004,-0.96,-0.122,121389
-0.295,-0.004,-0.96,-0.305,121393
-0.294,-0.006,-0.96,-0.244,121397
-0.294,-0.006,-0.96,-0.244,121401
-0.296,-0.006,-0.962,-0.244,121405
-0.296,-0.006,-0.962,-0.244,121409
-0.296,-0.006,-0.962,-0.183,121413
-0.296,-0.006,-0.96,-0.244,121417
-0.296,-0.006,-0.96,-0.244,121421
-0.294,-0.006,-0.961,-0.122,121425
-0.294,-0.006,-0.961,-0.183,121429
-0.294,-0.006,-0.961,-0.183,121433
-0.296,-0.007,-0.959,-0.122,121438
-0.296,-0.007,-0.959,-0.183,121442
-0.298,-0.007,-0.96,-0.366,121446
-0.298,-0.007,-0.96,-0.244,121450
-0.298,-0.007,-0.96,-0.244,121454
-0.297,-0.007,-0.96,-0.244,121458
-0.297,-0.007,-0.96,-0.488,121462
-0.298,-0.008,-0.958,-0.305,121466
-0.298,-0.008,-0.958,-0.061,121470
-0.298,-0.008,-0.958,-0.061,121474
-0.299,-0.009,-0.957,-0.183,121478
-0.299,-0.009,-0.957,-0.305,121482
-0.299,-0.009,-0.958,-0.244,121486
-0.299,-0.009,-0.958,-0.061,121490
-0.3,-0.01,-0.957,-0.122,121494
-0.3,-0.01,-0.957,-0.122,121498
-0.3,-0.01,-0.957,-0.244,121502
-0.3,-0.01,-0.956,-0.122,121506
-0.3,-0.01,-0.956,-0.183,121510
-0.299,-0.009,-0.957,-0.244,121514
-0.299,-0.009,-0.957,-0.244,121518
-0.299,-0.009,-0.957,-0.122,121522
-0.299,-0.009,-0.958,-0.183,121526
-0.299,-0.009,-0.958,-0.244,121530
-0.302,-0.01,-0.961,-0.183,121534
-0.302,-0.01,-0.961,-0.183,121538
-0.302,-0.01,-0.961,-0.122,121542
-0.3,-0.01,-0.96,-0.183,121546
-0.3,-0.01,-0.96,-0.305,121550
-0.296,-0.01,-0.955,-0.305,121554
-0.296,-0.01,-0.955,-0.305,121559
-0.296,-0.01,-0.955,-0.305,121563
-0.297,-0.009,-0.956,-0.122,121567
-0.297,-0.009,-0.956,-0.122,121571
-0.299,-0.01,-0.958,-0.183,121575
-0.299,-0.01,-0.958,-0.244,121579
-0.299,-0.01,-0.958,-0.244,121583
-0.299,-0.008,-0.96,-0.122,121587
-0.299,-0.008,-0.96,-0.122,121591
-0.298,-0.007,-0.959,-0.244,121595
-0.298,-0.007,-0.959,-0.244,121599
-0.298,-0.007,-0.959,-0.244,121603
-0.298,-0.007,-0.958,-0.305,121607
-0.298,-0.007,-0.958,-0.183,121611
-0.297,-0.005,-0.958,-0.244,121615
-0.297,-0.005,-0.958,-0.183,121619
-0.298,-0.005,-0.959,-0.183,121623
-0.298,-0.005,-0.959,-0.183,121627
-0.298,-0.005,-0.959,-0.244,121631
-0.299,-0.003,-0.96,-0.244,121635
-0.299,-0.003,-0.96,-0.366,121639
-0.298,-0.004,-0.958,-0.305,121643
-0.298,-0.004,-0.958,-0.305,121647
-0.298,-0.004,-0.958,-0.305,121651
-0.297,-0.003,-0.958,-0.366,121655
-0.297,-0.003,-0.958,-0.122,121659
-0.298,-0.005,-0.957,-0.122,121663
-0.298,-0.005,-0.957,-0.122,121667
-0.298,-0.005,-0.957,-0.305,121671
-0.299,-0.005,-0.96,-0.366,121676
-0.299,-0.005,-0.96,-0.244,121680
-0.3,-0.005,-0.959,-0.244,121684
-0.3,-0.005,-0.959,-0.366,121688
-0.3,-0.005,-0.959,-0.366,121692
-0.299,-0.007,-0.957,-0.244,121696
-0.299,-0.007,-0.957,-0.244,121700
-0.299,-0.006,-0.957,-0.183,121704
-0.299,-0.006,-0.957,-0.122,121708
-0.299,-0.006,-0.957,-0.122,121712
-0.301,-0.005,-0.958,-0.183,121716
-0.301,-0.005,-0.958,-0.183,121720
-0.299,-0.008,-0.957,-0.183,121724
-0.299,-0.008,-0.957,-0.244,121728
-0.299,-0.009,-0.957,-0.183,121732
-0.299,-0.009,-0.957,-0.183,121736
-0.299,-0.009,-0.957,-0.183,121740
-0.299,-0.01,-0.958,-0.244,121744
-0.299,-0.01,-0.958,-0.244,121748
-0.301,-0.01,-0.958,-0.366,121752
-0.301,-0.01,-0.958,-0.366,121756
-0.301,-0.01,-0.958,-0.244,121760
-0.3,-0.01,-0.955,-0.183,121764
-0.3,-0.01,-0.955,-0.366,121768
-0.3,-0.011,-0.955,-0.305,121772
-0.3,-0.011,-0.955,-0.305,121776
-0.3,-0.011,-0.955,-0.122,121781
-0.301,-0.012,-0.957,-0.183,121785
-0.301,-0.012,-0.957,-0.305,121789
-0.299,-0.01,-0.958,-0.305,121793
-0.299,-0.01,-0.958,-0.244,121797
-0.299,-0.01,-0.958,-0.244,121801
-0.299,-0.01,-0.958,-0.244,121805
-0.299,-0.01,-0.958,-0.244,121809
-0.299,-0.01,-0.958,-0.183,121813
-0.299,-0.01,-0.958,-0.244,121817
-0.299,-0.01,-0.958,-0.244,121821
-0.3,-0.01,-0.957,-0.305,121825
-0.3,-0.01,-0.957,-0.244,121829
-0.3,-0.01,-0.957,-0.305,121833
-0.3,-0.01,-0.957,-0.183,121837
-0.3,-0.01,-0.957,-0.183,121841
-0.3,-0.01,-0.959,-0.122,121845
-0.3,-0.01,-0.959,-0.183,121849
-0.3,-0.008,-0.958,-0.305,121853
-0.3,-0.008,-0.958,-0.305,121857
-0.299,-0.007,-0.958,-0.183,121861
-0.299,-0.007,-0.958,-0.183,121865
-0.299,-0.007,-0.958,-0.366,121869
-0.299,-0.007,-0.958,-0.305,121873
-0.299,-0.007,-0.958,-0.122,121877
-0.298,-0.006,-0.956,-0.183,121881
-0.298,-0.006,-0.956,-0.183,121885
-0.298,-0.006,-0.956,-0.244,121889
-0.297,-0.005,-0.958,-0.183,121893
-0.297,-0.005,-0.958,-0.183,121898
-0.297,-0.006,-0.961,-0.122,121902
-0.297,-0.006,-0.961,-0.244,121906
-0.297,-0.006,-0.961,-0.244,121910
-0.295,-0.004,-0.957,-0.122,121914
-0.295,-0.004,-0.957,-0.183,121918
-0.296,-0.003,-0.958,-0.244,121922
-0.296,-0.003,-0.958,-0.244,121926
-0.296,-0.003,-0.958,-0.244,121930
-0.297,-0.004,-0.961,-0.183,121934
-0.297,-0.004,-0.961,-0.244,121938
-0.297,-0.006,-0.959,-0.183,121942
-0.297,-0.006,-0.959,-0.183,121946
-0.297,-0.006,-0.959,-0.183,121950
-0.297,-0.005,-0.957,-0.244,121954
-0.297,-0.005,-0.957,-0.122,121958
-0.298,-0.005,-0.958,-0.244,121962
-0.298,-0.005,-0.958,-0.305,121966
-0.299,-0.006,-0.959,-0.183,121970
-0.299,-0.006,-0.959,-0.183,121974
-0.299,-0.006,-0.959,-0.244,121978
-0.299,-0.007,-0.957,-0.244,121982
-0.299,-0.007,-0.957,-0.305,121986
-0.298,-0.009,-0.958,-0.183,121990
-0.298,-0.009,-0.958,-0.183,121994
-0.298,-0.009,-0.958,-0.244,121998
-0.299,-0.009,-0.958,-0.244,122002
-0.299,-0.009,-0.958,-0.244,122006
-0.299,-0.009,-0.958,-0.244,122010
-0.299,-0.009,-0.958,-0.244,122015
-0.299,-0.009,-0.958,-0.244,122019
-0.301,-0.011,-0.958,-0.183,122023
-0.301,-0.011,-0.958,-0.183,122027
-0.3,-0.011,-0.958,-0.183,122031
-0.3,-0.011,-0.958,-0.061,122035
-0.3,-0.011,-0.958,-0.061,122039
-0.3,-0.011,-0.958,-0.183,122043
-0.3,-0.011,-0.958,-0.061,122047
-0.298,-0.01,-0.957,-0.183,122051
-0.298,-0.01,-0.957,-0.244,122055
-0.298,-0.01,-0.957,-0.244,122059
-0.298,-0.01,-0.958,-0.183,122063
-0.298,-0.01,-0.958,-0.122,122067
-0.3,-0.009,-0.957,-0.305,122071
-0.3,-0.009,-0.957,-0.183,122075
-0.3,-0.009,-0.957,-0.183,122079
-0.299,-0.008,-0.958,-0.305,122083
-0.299,-0.008,-0.958,-0.183,122087
-0.299,-0.01,-0.959,-0.305,122091
-0.299,-0.01,-0.959,-0.244,122095
-0.301,-0.01,-0.958,-0.183,122099
-0.301,-0.01,-0.958,-0.183,122103
-0.301,-0.01,-0.958,-0.183,122107
-0.299,-0.006,-0.958,-0.183,122111
-0.299,-0.006,-0.958,-0.183,122115
-0.299,-0.008,-0.959,-0.183,122119
-0.299,-0.008,-0.959,-0.183,122123
-0.299,-0.008,-0.959,-0.183,122127
-0.297,-0.008,-0.959,-0.244,122131
-0.297,-0.008,-0.959,-0.122,122136
-0.297,-0.006,-0.959,-0.244,122140
-0.297,-0.006,-0.959,-0.244,122144
-0.297,-0.006,-0.959,-0.183,122148
-0.297,-0.006,-0.958,-0.061,122152
-0.297,-0.006,-0.958,-0.183,122156
-0.297,-0.006,-0.959,-0.305,122160
-0.297,-0.006,-0.959,-0.305,122164
-0.297,-0.006,-0.959,-0.305,122168
-0.295,-0.005,-0.96,-0.183,122172
-0.295,-0.005,-0.96,-0.244,122176
-0.295,-0.006,-0.962,-0.122,122180
-0.295,-0.006,-0.962,-0.183,122184
-0.295,-0.006,-0.962,-0.183,122188
-0.296,-0.007,-0.96,-0.244,122192
-0.296,-0.007,-0.96,-0.244,122196
-0.294,-0.008,-0.958,-0.244,122200
-0.294,-0.008,-0.958,-0.122,122204
-0.296,-0.008,-0.96,-0.183,122208
-0.296,-0.008,-0.96,-0.183,122212
-0.296,-0.008,-0.96,-0.244,122216
-0.298,-0.01,-0.959,-0.305,122220
-0.298,-0.01,-0.959,-0.183,122224
-0.297,-0.01,-0.959,-0.183,122228
-0.297,-0.01,-0.959,-0.183,122232
-0.297,-0.01,-0.959,-0.305,122236
-0.296,-0.007,-0.958,-0.366,122240
-0.296,-0.007,-0.958,-0.122,122244
-0.297,-0.009,-0.958,-0.183,122249
-0.297,-0.009,-0.958,-0.183,122253
-0.297,-0.009,-0.958,-0.122,122257
-0.297,-0.009,-0.958,-0.305,122261
-0.297,-0.009,-0.958,-0.122,122265
-0.298,-0.007,-0.96,-0.183,122269
-0.298,-0.007,-0.96,-0.244,122273
-0.298,-0.007,-0.96,-0.244,122277
-0.299,-0.007,-0.958,-0.305,122281
-0.299,-0.007,-0.958,-0.183,122285
-0.299,-0.007,-0.957,-0.122,122289
-0.299,-0.007,-0.957,-0.244,122293
-0.299,-0.007,-0.957,-0.244,122297
-0.301,-0.007,-0.958,-0.183,122301
-0.301,-0.007,-0.958,-0.244,122305
-0.299,-0.009,-0.957,-0.183,122309
-0.299,-0.009,-0.957,-0.244,122313
-0.299,-0.009,-0.957,-0.244,122317
-0.3,-0.007,-0.956,-0.122,122321
-0.3,-0.007,-0.956,-0.183,122325
-0.299,-0.008,-0.959,-0.244,122329
-0.299,-0.008,-0.959,-0.122,122333
-0.302,-0.01,-0.959,-0.183,122337
-0.302,-0.01,-0.959,-0.183,122341
-0.302,-0.01,-0.959,-0.244,122345
-0.301,-0.009,-0.958,-0.244,122349
-0.301,-0.009,-0.958,-0.366,122353
-0.299,-0.008,-0.958,-0.244,122357
-0.299,-0.008,-0.958,-0.244,122361
-0.299,-0.008,-0.958,-0.244,122366
-0.299,-0.008,-0.958,-0.183,122370
-0.299,-0.008,-0.958,-0.122,122374
-0.3,-0.01,-0.958,-0.122,122378
-0.3,-0.01,-0.958,-0.122,122382
-0.3,-0.01,-0.958,-0.244,122386
-0.3,-0.009,-0.957,-0.122,122390
-0.3,-0.009,-0.957,-0.122,122394
-0.298,-0.008,-0.958,-0.122,122398
-0.298,-0.008,-0.958,-0.122,122402
-0.298,-0.008,-0.958,-0.122,122406
-0.297,-0.009,-0.957,-0.244,122410
-0.297,-0.009,-0.957,-0.244,122414
-0.299,-0.01,-0.959,-0.122,122418
-0.299,-0.01,-0.959,-0.061,122422
-0.299,-0.01,-0.959,-0.061,122426
-0.299,-0.009,-0.959,-0.305,122430
-0.299,-0.009,-0.959,-0.305,122434
-0.296,-0.011,-0.955,-0.183,122438
-0.296,-0.011,-0.955,-0.061,122442
-0.297,-0.01,-0.957,-0.122,122446
-0.297,-0.01,-0.957,-0.122,122450
-0.297,-0.01,-0.957,-0.122,122454
-0.299,-0.008,-0.961,-0.183,122458
-0.299,-0.008,-0.961,-0.244,122462
-0.301,-0.009,-0.961,-0.061,122466
-0.301,-0.009,-0.961,-0.061,122470
-0.301,-0.009,-0.961,-0.183,122474
-0.298,-0.011,-0.954,-0.122,122478
-0.298,-0.011,-0.954,-0.122,122483
-0.299,-0.009,-0.958,-0.061,122487
-0.299,-0.009,-0.958,-0.061,122491
-0.299,-0.009,-0.958,-0.183,122495
-0.3,-0.008,-0.963,-0.122,122499
-0.3,-0.008,-0.963,0.0,122503
-0.297,-0.007,-0.956,-0.061,122507
-0.297,-0.007,-0.956,-0.183,122511
-0.297,-0.007,-0.956,-0.183,122515
-0.298,-0.007,-0.958,-0.183,122519
-0.298,-0.007,-0.958,0.0,122523
-0.298,-0.005,-0.96,-0.183,122527
-0.298,-0.005,-0.96,-0.305,122531
-0.298,-0.005,-0.96,-0.305,122535
-0.297,-0.007,-0.963,-0.366,122539
-0.297,-0.007,-0.963,-0.122,122543
-0.295,-0.006,-0.956,-0.305,122547
-0.295,-0.006,-0.956,-0.427,122551
-0.295,-0.006,-0.956,-0.427,122555
-0.295,-0.007,-0.953,-0.366,122559
-0.295,-0.007,-0.953,-0.244,122563
-0.298,-0.006,-0.959,-0.183,122567
-0.298,-0.006,-0.959,-0.183,122571
-0.298,-0.006,-0.959,-0.183,122575
-0.3,-0.007,-0.964,-0.244,122579
-0.3,-0.007,-0.964,-0.305,122583
-0.299,-0.006,-0.957,-0.305,122587
-0.299,-0.006,-0.957,-0.122,122591
-0.299,-0.006,-0.956,-0.183,122595
-0.299,-0.006,-0.956,-0.183,122599
-0.299,-0.006,-0.956,-0.183,122603
-0.299,-0.007,-0.959,-0.183,122607
-0.299,-0.007,-0.959,-0.305,122611
-0.301,-0.009,-0.96,-0.244,122615
-0.301,-0.009,-0.96,-0.244,122619
-0.301,-0.009,-0.96,-0.305,122623
-0.299,-0.007,-0.957,-0.366,122627
-0.299,-0.007,-0.957,-0.244,122631
-0.297,-0.007,-0.959,-0.183,122636
-0.297,-0.007,-0.959,-0.183,122640
-0.297,-0.007,-0.959,-0.305,122644
-0.299,-0.007,-0.961,-0.122,122648
-0.299,-0.007,-0.961,-0.122,122652
-0.297,-0.007,-0.962,-0.183,122656
-0.297,-0.007,-0.962,-0.122,122660
-0.297,-0.007,-0.962,-0.122,122664
-0.297,-0.007,-0.957,-0.244,122668
-0.297,-0.007,-0.957,-0.366,122672
-0.297,-0.008,-0.958,-0.305,122676
-0.297,-0.008,-0.958,-0.183,122680
-0.297,-0.008,-0.958,-0.183,122684
-0.296,-0.007,-0.96,-0.305,122688
-0.296,-0.007,-0.96,-0.244,122692
-0.298,-0.006,-0.959,-0.183,122696
-0.298,-0.006,-0.959,-0.244,122700
-0.297,-0.009,-0.956,-0.244,122704
-0.297,-0.009,-0.956,-0.244,122708
-0.297,-0.009,-0.956,-0.061,122712
-0.297,-0.009,-0.958,-0.122,122716
-0.297,-0.009,-0.958,-0.122,122720
-0.3,-0.01,-0.958,-0.183,122724
-0.3,-0.01,-0.958,-0.183,122728
-0.3,-0.01,-0.958,-0.244,122732
-0.3,-0.01,-0.959,-0.244,122736
-0.3,-0.01,-0.959,-0.244,122740
-0.3,-0.009,-0.956,-0.183,122744
-0.3,-0.009,-0.956,-0.183,122748
-0.3,-0.009,-0.956,-0.305,122752
-0.297,-0.01,-0.956,-0.244,122757
-0.297,-0.01,-0.956,-0.183,122761
-0.3,-0.009,-0.961,-0.183,122765
-0.3,-0.009,-0.961,-0.122,122769
-0.3,-0.009,-0.961,-0.122,122773
-0.3,-0.008,-0.96,-0.183,122777
-0.3,-0.008,-0.96,-0.244,122781
-0.3,-0.007,-0.957,-0.183,122785
-0.3,-0.007,-0.957,-0.183,122789
-0.3,-0.007,-0.957,-0.183,122793
-0.299,-0.007,-0.957,-0.122,122797
-0.299,-0.007,-0.957,-0.244,122801
-0.299,-0.007,-0.959,-0.244,122805
-0.299,-0.007,-0.959,-0.183,122809
-0.299,-0.007,-0.959,-0.183,122813
-0.298,-0.007,-0.959,-0.183,122817
-0.298,-0.007,-0.959,-0.305,122821
-0.297,-0.005,-0.958,-0.244,122825
-0.297,-0.005,-0.958,-0.244,122829
-0.298,-0.007,-0.957,-0.244,122833
-0.298,-0.007,-0.957,-0.244,122837
-0.298,-0.007,-0.957,-0.061,122841
-0.299,-0.007,-0.955,-0.122,122845
-0.299,-0.007,-0.955,-0.244,122849
-0.299,-0.007,-0.956,-0.244,122853
-0.299,-0.007,-0.956,-0.244,122857
-0.299,-0.007,-0.956,-0.122,122861
-0.301,-0.007,-0.958,-0.183,122865
-0.301,-0.007,-0.958,-0.244,122870
-0.299,-0.006,-0.959,-0.183,122874
-0.299,-0.006,-0.959,-0.183,122878
-0.299,-0.006,-0.959,-0.061,122882
-0.298,-0.008,-0.961,-0.122,122886
-0.298,-0.008,-0.961,-0.183,122890
-0.297,-0.008,-0.96,0.061,122894
-0.297,-0.008,-0.96,-0.183,122898
-0.297,-0.008,-0.96,-0.183,122902
-0.297,-0.006,-0.96,-0.305,122906
-0.297,-0.006,-0.96,-0.244,122910
-0.296,-0.006,-0.959,-0.244,122914
-0.296,-0.006,-0.959,-0.305,122918
-0.296,-0.006,-0.959,-0.305,122922
-0.294,-0.007,-0.958,-0.244,122926
-0.294,-0.007,-0.958,-0.061,122930
-0.297,-0.007,-0.961,-0.183,122934
-0.297,-0.007,-0.961,-0.183,122938
-0.297,-0.007,-0.961,-0.183,122942
-0.295,-0.005,-0.962,-0.183,122946
-0.295,-0.005,-0.962,-0.183,122950
-0.295,-0.006,-0.959,-0.305,122954
-0.295,-0.006,-0.959,-0.244,122958
-0.296,-0.008,-0.959,-0.183,122962
-0.296,-0.008,-0.959,-0.183,122966
-0.296,-0.008,-0.959,-0.305,122970
-0.295,-0.007,-0.96,-0.305,122974
-0.295,-0.007,-0.96,-0.244,122978
-0.297,-0.005,-0.96,-0.305,122982
-0.297,-0.005,-0.96,-0.305,122987
-0.297,-0.005,-0.96,-0.305,122991
-0.298,-0.006,-0.961,-0.061,122995
-0.298,-0.006,-0.961,-0.183,122999
-0.297,-0.006,-0.959,-0.366,123003
-0.297,-0.006,-0.959,-0.427,123007
-0.297,-0.006,-0.959,-0.427,123011
-0.298,-0.007,-0.958,-0.122,123015
-0.298,-0.007,-0.958,-0.183,123019
-0.299,-0.008,-0.959,-0.305,123023
-0.299,-0.008,-0.959,-0.305,123027
-0.299,-0.008,-0.959,-0.305,123031
-0.299,-0.008,-0.959,-0.183,123035
-0.299,-0.008,-0.959,-0.305,123039
-0.3,-0.008,-0.959,-0.183,123043
-0.3,-0.008,-0.959,-0.183,123047
-0.3,-0.008,-0.959,-0.183,123051
-0.299,-0.009,-0.958,-0.122,123055
-0.299,-0.009,-0.958,-0.244,123059
-0.3,-0.008,-0.958,-0.305,123063
-0.3,-0.008,-0.958,-0.244,123067
-0.301,-0.007,-0.957,-0.183,123071
-0.301,-0.007,-0.957,-0.183,123075
-0.301,-0.007,-0.957,-0.122,123079
-0.301,-0.007,-0.957,-0.244,123083
-0.301,-0.007,-0.957,-0.122,123087
-0.302,-0.008,-0.957,-0.122,123091
-0.302,-0.008,-0.957,-0.122,123095
-0.302,-0.008,-0.957,-0.244,123099
-0.301,-0.007,-0.957,-0.366,123103
-0.301,-0.007,-0.957,-0.244,123107
-0.301,-0.006,-0.957,-0.122,123112
-0.301,-0.006,-0.957,-0.122,123116
-0.301,-0.006,-0.957,-0.061,123120
-0.302,-0.007,-0.955,0.0,123124
-0.302,-0.007,-0.955,-0.122,123128
-0.3,-0.008,-0.957,-0.305,123132
-0.3,-0.008,-0.957,-0.183,123136
-0.3,-0.008,-0.957,-0.183,123140
-0.299,-0.006,-0.957,-0.183,123144
-0.299,-0.006,-0.957,-0.183,123148
-0.297,-0.005,-0.957,-0.183,123152
-0.297,-0.005,-0.957,-0.122,123156
-0.297,-0.005,-0.957,-0.122,123160
-0.298,-0.006,-0.957,-0.122,123164
-0.298,-0.006,-0.957,-0.183,123168
-0.298,-0.007,-0.958,-0.122,123172
-0.298,-0.007,-0.958,-0.183,123176
-0.298,-0.007,-0.958,-0.183,123180
-0.299,-0.007,-0.958,-0.244,123184
-0.299,-0.007,-0.958,-0.305,123188
-0.298,-0.008,-0.958,-0.244,123192
-0.298,-0.008,-0.958,-0.366,123196
-0.297,-0.007,-0.961,-0.244,123200
-0.297,-0.007,-0.961,-0.244,123204
-0.297,-0.007,-0.961,-0.305,123208
-0.296,-0.009,-0.959,-0.183,123212
-0.296,-0.009,-0.959,-0.061,123216
-0.297,-0.007,-0.957,0.0,123220
-0.297,-0.007,-0.957,0.0,123224
-0.297,-0.007,-0.957,-0.244,123228
-0.295,-0.007,-0.959,-0.244,123232
-0.295,-0.007,-0.959,-0.305,123236
-0.295,-0.008,-0.959,-0.244,123240
-0.295,-0.008,-0.959,-0.244,123244
-0.295,-0.008,-0.959,-0.244,123249
-0.296,-0.007,-0.959,-0.305,123253
-0.296,-0.007,-0.959,-0.122,123257
-0.294,-0.005,-0.959,-0.183,123261
-0.294,-0.005,-0.959,-0.305,123265
-0.294,-0.005,-0.959,-0.305,123269
-0.295,-0.005,-0.961,-0.183,123273
-0.295,-0.005,-0.961,-0.122,123277
-0.296,-0.006,-0.959,-0.061,123281
-0.296,-0.006,-0.959,-0.061,123285
-0.296,-0.006,-0.959,-0.061,123289
-0.295,-0.006,-0.958,-0.427,123293
-0.295,-0.006,-0.958,-0.244,123297
-0.294,-0.004,-0.957,-0.244,123301
-0.294,-0.004,-0.957,-0.366,123305
-0.294,-0.004,-0.957,-0.366,123309
-0.296,-0.004,-0.958,-0.122,123313
-0.296,-0.004,-0.958,-0.305,123317
-0.296,-0.005,-0.958,-0.244,123321
-0.296,-0.005,-0.958,-0.305,123325
-0.298,-0.006,-0.958,-0.244,123329
-0.298,-0.006,-0.958,-0.244,123333
-0.298,-0.006,-0.958,-0.122,123337
-0.299,-0.006,-0.96,-0.183,123341
-0.299,-0.006,-0.96,-0.183,123345
-0.301,-0.007,-0.958,-0.244,123349
-0.301,-0.007,-0.958,-0.244,123353
-0.301,-0.007,-0.958,-0.244,123357
-0.299,-0.009,-0.957,-0.183,123362
-0.299,-0.009,-0.957,-0.183,123366
-0.3,-0.009,-0.957,-0.305,123370
-0.3,-0.009,-0.957,-0.244,123374
-0.3,-0.009,-0.957,-0.244,123378
-0.301,-0.009,-0.957,-0.305,123382
-0.301,-0.009,-0.957,-0.183,123386
-0.301,-0.009,-0.956,-0.183,123390
-0.301,-0.009,-0.956,-0.305,123394
-0.301,-0.009,-0.956,-0.305,123398
-0.302,-0.009,-0.958,-0.244,123402
-0.302,-0.009,-0.958,-0.305,123406
-0.301,-0.008,-0.959,-0.244,123410
-0.301,-0.008,-0.959,-0.183,123414
-0.301,-0.008,-0.959,-0.183,123418
-0.299,-0.008,-0.958,-0.122,123422
-0.299,-0.008,-0.958,-0.122,123426
-0.299,-0.008,-0.958,-0.244,123430
-0.299,-0.008,-0.958,-0.244,123434
-0.299,-0.008,-0.958,-0.244,123438
-0.3,-0.01,-0.957,-0.244,123442
-0.3,-0.01,-0.957,-0.244,123446
-0.3,-0.011,-0.959,-0.305,123450
-0.3,-0.011,-0.959,-0.122,123454
-0.299,-0.011,-0.958,-0.122,123458
-0.299,-0.011,-0.958,-0.122,123462
-0.299,-0.011,-0.958,-0.305,123466
-0.299,-0.009,-0.957,-0.244,123470
-0.299,-0.009,-0.957,-0.122,123474
-0.299,-0.011,-0.957,-0.183,123478
-0.299,-0.011,-0.957,-0.183,123482
-0.299,-0.011,-0.957,-0.183,123487
-0.298,-0.011,-0.957,-0.183,123491
-0.298,-0.011,-0.957,-0.183,123495
-0.297,-0.01,-0.959,-0.061,123499
-0.297,-0.01,-0.959,-0.244,123503
-0.297,-0.01,-0.959,-0.244,123507
-0.297,-0.008,-0.959,-0.244,123511
-0.297,-0.008,-0.959,-0.122,123515
-0.298,-0.008,-0.959,-0.061,123519
-0.298,-0.008,-0.959,-0.183,123523
-0.298,-0.008,-0.959,-0.183,123527
-0.297,-0.006,-0.96,-0.183,123531
-0.297,-0.006,-0.96,-0.183,123535
-0.297,-0.007,-0.959,-0.244,123539
-0.297,-0.007,-0.959,-0.122,123543
-0.297,-0.007,-0.959,-0.122,123547
-0.297,-0.005,-0.958,-0.122,123551
-0.297,-0.005,-0.958,-0.061,123555
-0.296,-0.006,-0.959,-0.122,123559
-0.296,-0.006,-0.959,-0.061,123563
-0.296,-0.007,-0.959,0.0,123567
-0.296,-0.007,-0.959,0.0,123571
-0.296,-0.007,-0.959,-0.122,123575
-0.297,-0.004,-0.961,-0.183,123579
-0.297,-0.004,-0.961,-0.183,123583
-0.298,-0.006,-0.96,-0.183,123587
-0.298,-0.006,-0.96,-0.183,123591
-0.298,-0.006,-0.96,-0.122,123595
-0.299,-0.007,-0.959,-0.122,123599
-0.299,-0.007,-0.959,-0.305,123603
-0.299,-0.007,-0.959,-0.305,123607
-0.299,-0.007,-0.959,-0.305,123611
-0.299,-0.007,-0.959,-0.183,123615
-0.299,-0.007,-0.958,-0.183,123619
-0.299,-0.007,-0.958,-0.305,123624
-0.298,-0.006,-0.956,-0.244,123628
-0.298,-0.006,-0.956,-0.244,123632
-0.298,-0.006,-0.956,-0.244,123636
-0.3,-0.008,-0.958,-0.122,123640
-0.3,-0.008,-0.958,-0.122,123644
-0.299,-0.008,-0.959,-0.244,123648
-0.299,-0.008,-0.959,-0.244,123652
-0.299,-0.008,-0.959,-0.244,123656
-0.297,-0.007,-0.961,-0.183,123660
-0.297,-0.007,-0.961,-0.183,123664
-0.297,-0.006,-0.958,-0.183,123668
-0.297,-0.006,-0.958,-0.305,123672
-0.297,-0.006,-0.958,-0.305,123676
-0.297,-0.007,-0.958,-0.244,123680
-0.297,-0.007,-0.958,-0.244,123684
-0.298,-0.009,-0.958,-0.366,123688
-0.298,-0.009,-0.958,-0.183,123692
-0.299,-0.009,-0.958,-0.122,123696
-0.299,-0.009,-0.958,-0.122,123700
-0.299,-0.009,-0.958,-0.244,123704
-0.299,-0.01,-0.957,-0.305,123708
-0.299,-0.01,-0.957,-0.305,123712
-0.298,-0.009,-0.956,-0.244,123716
-0.298,-0.009,-0.956,-0.244,123720
-0.298,-0.009,-0.956,-0.366,123724
-0.299,-0.01,-0.957,-0.305,123728
-0.299,-0.01,-0.957,-0.244,123732
-0.3,-0.01,-0.958,-0.122,123737
-0.3,-0.01,-0.958,-0.122,123741
-0.3,-0.01,-0.958,-0.122,123745
-0.299,-0.009,-0.958,-0.183,123749
-0.299,-0.009,-0.958,-0.244,123753
-0.298,-0.008,-0.958,-0.183,123757
-0.298,-0.008,-0.958,-0.183,123761
-0.298,-0.008,-0.958,-0.183,123765
-0.299,-0.009,-0.958,-0.305,123769
-0.299,-0.009,-0.958,-0.244,123773
-0.299,-0.007,-0.956,-0.305,123777
-0.299,-0.007,-0.956,-0.183,123781
-0.299,-0.007,-0.956,-0.183,123785
-0.298,-0.006,-0.957,-0.244,123789
-0.298,-0.006,-0.957,-0.244,123793
-0.298,-0.008,-0.958,-0.366,123797
-0.298,-0.008,-0.958,-0.122,123801
-0.298,-0.008,-0.958,-0.122,123805
-0.297,-0.007,-0.958,-0.061,123809
-0.297,-0.007,-0.958,-0.183,123813
-0.298,-0.006,-0.958,-0.183,123817
-0.298,-0.006,-0.958,-0.244,123821
-0.298,-0.007,-0.957,-0.244,123825
-0.298,-0.007,-0.957,-0.244,123829
-0.298,-0.007,-0.957,-0.122,123833
-0.299,-0.006,-0.958,-0.183,123837
-0.299,-0.006,-0.958,-0.183,123841
-0.299,-0.006,-0.959,-0.122,123845
-0.299,-0.006,-0.959,-0.122,123849
-0.299,-0.006,-0.959,-0.061,123853
-0.297,-0.006,-0.959,-0.244,123857
-0.297,-0.006,-0.959,-0.122,123862
-0.296,-0.005,-0.959,-0.122,123866
-0.296,-0.005,-0.959,-0.244,123870
-0.296,-0.005,-0.959,-0.244,123874
-0.297,-0.006,-0.958,-0.305,123878
-0.297,-0.006,-0.958,-0.244,123882
-0.298,-0.007,-0.959,-0.061,123886
-0.298,-0.007,-0.959,-0.244,123890
-0.298,-0.007,-0.959,-0.244,123894
-0.297,-0.007,-0.96,-0.244,123898
-0.297,-0.007,-0.96,-0.183,123902
-0.297,-0.007,-0.957,-0.183,123906
-0.297,-0.007,-0.957,-0.244,123910
-0.297,-0.007,-0.957,-0.244,123914
-0.297,-0.006,-0.958,-0.305,123918
-0.297,-0.006,-0.958,-0.244,123922
-0.297,-0.007,-0.958,-0.122,123926
-0.297,-0.007,-0.958,-0.183,123930
-0.297,-0.008,-0.959,-0.183,123934
-0.297,-0.008,-0.959,-0.183,123938
-0.297,-0.008,-0.959,-0.183,123942
-0.297,-0.009,-0.959,-0.183,123946
-0.297,-0.009,-0.959,-0.183,123950
-0.297,-0.009,-0.957,-0.244,123954
-0.297,-0.009,-0.957,-0.244,123958
-0.297,-0.009,-0.957,-0.183,123962
-0.297,-0.009,-0.958,-0.183,123966
-0.297,-0.009,-0.958,-0.244,123970
-0.296,-0.008,-0.959,-0.305,123975
-0.296,-0.008,-0.959,-0.305,123979
-0.296,-0.008,-0.959,-0.366,123983
-0.298,-0.009,-0.959,-0.305,123987
-0.298,-0.009,-0.959,-0.183,123991
-0.298,-0.008,-0.958,-0.183,123995
-0.298,-0.008,-0.958,-0.244,123999
-0.298,-0.008,-0.958,-0.244,124003
-0.298,-0.007,-0.958,-0.183,124007
-0.298,-0.007,-0.958,-0.244,124011
-0.298,-0.007,-0.957,-0.183,124015
-0.298,-0.007,-0.957,-0.183,124019
-0.298,-0.007,-0.957,-0.183,124023
-0.299,-0.008,-0.957,-0.244,124027
-0.299,-0.008,-0.957,-0.244,124031
-0.299,-0.007,-0.959,-0.122,124035
-0.299,-0.007,-0.959,-0.244,124039
-0.299,-0.007,-0.959,-0.244,124043
-0.298,-0.008,-0.958,-0.122,124047
-0.298,-0.008,-0.958,-0.305,124051
-0.3,-0.008,-0.958,-0.305,124055
-0.3,-0.008,-0.958,-0.305,124059
-0.299,-0.008,-0.957,-0.183,124063
-0.299,-0.008,-0.957,-0.183,124067
-0.299,-0.008,-0.957,-0.122,124071
-0.3,-0.007,-0.959,-0.305,124075
-0.3,-0.007,-0.959,-0.244,124079
-0.3,-0.008,-0.959,-0.183,124083
-0.3,-0.008,-0.959,-0.183,124087
-0.3,-0.008,-0.959,-0.183,124091
-0.3,-0.008,-0.957,-0.183,124096
-0.3,-0.008,-0.957,-0.305,124100
-0.3,-0.006,-0.956,-0.244,124104
-0.3,-0.006,-0.956,-0.244,124108
-0.3,-0.006,-0.956,-0.305,124112
-0.299,-0.007,-0.956,-0.244,124116
-0.299,-0.007,-0.956,-0.183,124120
-0.3,-0.008,-0.958,-0.061,124124
-0.3,-0.008,-0.958,-0.183,124128
-0.3,-0.008,-0.958,-0.183,124132
-0.3,-0.008,-0.958,-0.122,124136
-0.3,-0.008,-0.958,-0.244,124140
-0.298,-0.007,-0.96,-0.244,124144
-0.298,-0.007,-0.96,-0.183,124148
-0.298,-0.007,-0.96,-0.183,124152
-0.298,-0.009,-0.958,-0.305,124156
-0.298,-0.009,-0.958,-0.122,124160
-0.297,-0.006,-0.959,-0.061,124164
-0.297,-0.006,-0.959,-0.244,124168
-0.297,-0.005,-0.959,-0.122,124172
-0.297,-0.005,-0.959,-0.122,124176
-0.297,-0.005,-0.959,-0.244,124180
-0.297,-0.007,-0.958,-0.183,124184
-0.297,-0.007,-0.958,-0.244,124188
-0.296,-0.007,-0.958,-0.183,124192
-0.296,-0.007,-0.958,-0.183,124196
-0.296,-0.007,-0.958,-0.183,124200
-0.296,-0.006,-0.96,-0.244,124204
-0.296,-0.006,-0.96,-0.122,124208
-0.296,-0.008,-0.961,-0.183,124212
-0.296,-0.008,-0.961,-0.183,124216
-0.296,-0.008,-0.961,-0.183,124221
-0.298,-0.007,-0.96,-0.305,124225
-0.298,-0.007,-0.96,-0.305,124229
-0.297,-0.007,-0.958,-0.183,124233
-0.297,-0.007,-0.958,-0.183,124237
-0.297,-0.007,-0.958,-0.183,124241
-0.298,-0.007,-0.958,0.0,124245
-0.298,-0.007,-0.958,-0.061,124249
-0.298,-0.006,-0.959,-0.366,124253
-0.298,-0.006,-0.959,-0.244,124257
-0.298,-0.006,-0.959,-0.244,124261
-0.298,-0.006,-0.96,-0.183,124265
-0.298,-0.006,-0.96,-0.183,124269
-0.297,-0.006,-0.959,-0.366,124273
-0.297,-0.006,-0.959,-0.305,124277
-0.297,-0.006,-0.959,-0.305,124281
-0.298,-0.004,-0.958,-0.305,124285
-0.298,-0.004,-0.958,-0.244,124289
-0.3,-0.008,-0.958,-0.183,124293
-0.3,-0.008,-0.958,-0.244,124297
-0.299,-0.008,-0.958,-0.305,124301
-0.299,-0.008,-0.958,-0.305,124305
-0.299,-0.008,-0.958,-0.244,124309
-0.298,-0.007,-0.959,-0.244,124313
-0.298,-0.007,-0.959,-0.244,124317
-0.298,-0.007,-0.959,-0.183,124321
-0.298,-0.007,-0.959,-0.183,124325
-0.298,-0.007,-0.959,-0.244,124329
-0.299,-0.008,-0.958,-0.244,124333
-0.299,-0.008,-0.958,-0.061,124337
-0.299,-0.009,-0.958,-0.183,124341
-0.299,-0.009,-0.958,-0.183,124346
-0.299,-0.009,-0.958,-0.305,124350
-0.301,-0.008,-0.958,-0.305,124354
-0.301,-0.008,-0.958,-0.061,124358
-0.299,-0.006,-0.956,-0.122,124362
-0.299,-0.006,-0.956,-0.122,124366
-0.299,-0.006,-0.956,-0.122,124370
-0.299,-0.007,-0.958,-0.122,124374
-0.299,-0.007,-0.958,-0.244,124378
-0.3,-0.009,-0.958,-0.244,124382
-0.3,-0.009,-0.958,-0.183,124386
-0.3,-0.009,-0.958,-0.183,124390
-0.3,-0.008,-0.957,-0.183,124394
-0.3,-0.008,-0.957,-0.122,124398
-0.297,-0.009,-0.957,-0.061,124402
-0.297,-0.009,-0.957,-0.122,124406
-0.297,-0.009,-0.957,-0.122,124410
-0.297,-0.009,-0.958,-0.183,124414
-0.297,-0.009,-0.958,-0.183,124418
-0.297,-0.007,-0.957,-0.305,124422
-0.297,-0.007,-0.957,-0.122,124426
-0.297,-0.007,-0.958,-0.122,124430
-0.297,-0.007,-0.958,-0.122,124434
-0.297,-0.007,-0.958,-0.366,124438
-0.299,-0.008,-0.958,-0.244,124442
-0.299,-0.008,-0.958,-0.183,124446
-0.297,-0.009,-0.958,-0.183,124450
-0.297,-0.009,-0.958,-0.183,124454
-0.297,-0.009,-0.958,-0.244,124458
-0.296,-0.008,-0.958,-0.305,124462
-0.296,-0.008,-0.958,-0.122,124467
-0.295,-0.009,-0.958,-0.183,124471
-0.295,-0.009,-0.958,-0.183,124475
-0.295,-0.009,-0.958,-0.244,124479
-0.298,-0.006,-0.959,-0.244,124483
-0.298,-0.006,-0.959,-0.183,124487
-0.298,-0.006,-0.959,-0.183,124491
-0.298,-0.006,-0.959,-0.183,124495
-0.298,-0.006,-0.959,-0.183,124499
-0.297,-0.007,-0.958,-0.183,124503
-0.297,-0.007,-0.958,-0.244,124507
-0.297,-0.007,-0.958,-0.305,124511
-0.297,-0.007,-0.958,-0.183,124515
-0.297,-0.007,-0.958,-0.183,124519
-0.297,-0.006,-0.96,-0.183,124523
-0.297,-0.006,-0.96,-0.305,124527
-0.297,-0.007,-0.958,-0.305,124531
-0.297,-0.007,-0.958,-0.122,124535
-0.297,-0.007,-0.958,-0.122,124539
-0.299,-0.005,-0.958,-0.244,124543
-0.299,-0.005,-0.958,-0.366,124547
-0.298,-0.006,-0.959,-0.366,124551
-0.298,-0.006,-0.959,-0.244,124555
-0.297,-0.006,-0.959,-0.122,124559
-0.297,-0.006,-0.959,-0.122,124563
-0.297,-0.006,-0.959,-0.122,124567
-0.298,-0.005,-0.961,-0.183,124571
-0.298,-0.005,-0.961,-0.305,124575
-0.298,-0.005,-0.959,-0.366,124579
-0.298,-0.005,-0.959,-0.366,124583
-0.298,-0.005,-0.959,-0.244,124588
-0.296,-0.007,-0.958,-0.122,124592
-0.296,-0.007,-0.958,-0.183,124596
-0.299,-0.007,-0.958,-0.183,124600
-0.299,-0.007,-0.958,-0.244,124604
-0.299,-0.007,-0.958,-0.244,124608
-0.299,-0.007,-0.958,-0.244,124612
-0.299,-0.007,-0.958,-0.244,124616
-0.298,-0.007,-0.957,-0.244,124620
-0.298,-0.007,-0.957,-0.183,124624
-0.298,-0.007,-0.957,-0.183,124628
-0.298,-0.007,-0.958,-0.244,124632
-0.298,-0.007,-0.958,-0.427,124636
-0.298,-0.009,-0.958,-0.244,124640
-0.298,-0.009,-0.958,0.0,124644
-0.298,-0.009,-0.958,0.0,124648
-0.298,-0.008,-0.957,-0.122,124652
-0.298,-0.008,-0.957,-0.305,124656
-0.299,-0.007,-0.958,-0.183,124660
-0.299,-0.007,-0.958,-0.183,124664
-0.299,-0.007,-0.958,-0.183,124668
-0.299,-0.009,-0.958,-0.366,124672
-0.299,-0.009,-0.958,-0.244,124676
-0.298,-0.009,-0.956,-0.244,124680
-0.298,-0.009,-0.956,-0.061,124684
-0.298,-0.009,-0.957,-0.061,124688
-0.298,-0.009,-0.957,-0.061,124692
-0.298,-0.009,-0.957,-0.183,124696
-0.298,-0.009,-0.959,-0.305,124700
-0.298,-0.009,-0.959,-0.183,124704
-0.298,-0.009,-0.958,-0.122,124708
-0.298,-0.009,-0.958,-0.122,124712
-0.298,-0.009,-0.958,-0.244,124716
-0.298,-0.008,-0.957,-0.061,124721
-0.298,-0.008,-0.957,-0.244,124725
-0.298,-0.008,-0.959,-0.122,124729
-0.298,-0.008,-0.959,-0.061,124733
-0.298,-0.008,-0.959,-0.061,124737
-0.298,-0.006,-0.958,-0.244,124741
-0.298,-0.006,-0.958,-0.244,124745
-0.298,-0.007,-0.958,-0.305,124749
-0.298,-0.007,-0.958,-0.183,124753
-0.298,-0.007,-0.958,-0.183,124757
-0.298,-0.006,-0.958,-0.061,124761
-0.298,-0.006,-0.958,-0.244,124765
-0.299,-0.007,-0.96,-0.244,124769
-0.299,-0.007,-0.96,-0.122,124773
-0.299,-0.007,-0.96,-0.122,124777
-0.297,-0.008,-0.958,-0.183,124781
-0.297,-0.008,-0.958,-0.183,124785
-0.297,-0.006,-0.958,-0.122,124789
-0.297,-0.006,-0.958,-0.244,124793
-0.298,-0.007,-0.958,-0.244,124797
-0.298,-0.007,-0.958,-0.244,124801
-0.298,-0.007,-0.958,-0.061,124805
-0.298,-0.007,-0.958,-0.183,124809
-0.298,-0.007,-0.958,-0.305,124813
-0.298,-0.005,-0.959,-0.244,124817
-0.298,-0.005,-0.959,-0.244,124821
-0.298,-0.005,-0.959,-0.305,124825
-0.298,-0.005,-0.958,-0.244,124829
-0.298,-0.005,-0.958,-0.244,124833
-0.297,-0.007,-0.958,-0.305,124837
-0.297,-0.007,-0.958,-0.305,124841
-0.297,-0.007,-0.958,-0.244,124846
-0.297,-0.006,-0.959,-0.122,124850
-0.297,-0.006,-0.959,-0.183,124854
-0.298,-0.006,-0.961,-0.244,124858
-0.298,-0.006,-0.961,-0.244,124862
-0.298,-0.006,-0.961,-0.244,124866
-0.298,-0.008,-0.959,-0.305,124870
-0.298,-0.008,-0.959,-0.305,124874
-0.297,-0.007,-0.957,-0.244,124878
-0.297,-0.007,-0.957,-0.183,124882
-0.297,-0.007,-0.957,-0.183,124886
-0.297,-0.008,-0.957,-0.183,124890
-0.297,-0.008,-0.957,-0.244,124894
-0.296,-0.008,-0.958,-0.244,124898
-0.296,-0.008,-0.958,-0.183,124902
-0.296,-0.008,-0.958,-0.183,124906
-0.298,-0.007,-0.959,-0.183,124910
-0.298,-0.007,-0.959,-0.183,124914
-0.298,-0.009,-0.958,-0.366,124918
-0.298,-0.009,-0.958,-0.366,124922
-0.297,-0.009,-0.959,-0.183,124926
-0.297,-0.009,-0.959,-0.183,124930
-0.297,-0.009,-0.959,-0.183,124934
-0.298,-0.008,-0.958,-0.061,124938
-0.298,-0.008,-0.958,-0.244,124942
-0.298,-0.008,-0.956,-0.305,124946
-0.298,-0.008,-0.956,-0.305,124950
-0.298,-0.008,-0.956,-0.305,124954
-0.298,-0.009,-0.957,-0.305,124958
-0.298,-0.009,-0.957,-0.183,124962
-0.299,-0.009,-0.959,-0.183,124967
-0.299,-0.009,-0.959,-0.183,124971
-0.299,-0.009,-0.959,-0.122,124975
-0.3,-0.009,-0.959,-0.244,124979
-0.3,-0.009,-0.959,-0.244,124983
-0.299,-0.009,-0.959,-0.244,124987
-0.299,-0.009,-0.959,-0.122,124991
-0.299,-0.009,-0.959,-0.122,124995
-0.299,-0.009,-0.958,-0.183,124999
-0.299,-0.009,-0.958,-0.183,125003
-0.299,-0.007,-0.957,-0.122,125007
-0.299,-0.007,-0.957,-0.122,125011
-0.299,-0.007,-0.957,-0.122,125015
-0.298,-0.007,-0.958,-0.244,125019
-0.298,-0.007,-0.958,-0.244,125023
-0.299,-0.006,-0.958,-0.183,125027
-0.299,-0.006,-0.958,-0.061,125031
-0.298,-0.006,-0.958,-0.183,125035
-0.298,-0.006,-0.958,-0.183,125039
-0.298,-0.006,-0.958,-0.305,125043
-0.297,-0.009,-0.959,-0.305,125047
-0.297,-0.009,-0.959,-0.244,125051
-0.299,-0.009,-0.959,-0.183,125055
-0.299,-0.009,-0.959,-0.183,125059
-0.299,-0.009,-0.959,-0.183,125063
-0.299,-0.006,-0.959,-0.305,125067
-0.299,-0.006,-0.959,-0.244,125071
-0.297,-0.007,-0.96,-0.122,125075
-0.297,-0.007,-0.96,-0.122,125079
-0.297,-0.007,-0.96,-0.122,125083
-0.298,-0.006,-0.958,-0.244,125087
-0.298,-0.006,-0.958,-0.183,125092
-0.297,-0.008,-0.96,-0.305,125096
-0.297,-0.008,-0.96,-0.305,125100
-0.297,-0.008,-0.96,-0.305,125104
-0.297,-0.008,-0.959,-0.183,125108
-0.297,-0.008,-0.959,-0.183,125112
-0.298,-0.007,-0.96,-0.061,125116
-0.298,-0.007,-0.96,-0.305,125120
-0.298,-0.007,-0.96,-0.305,125124
-0.297,-0.008,-0.958,-0.305,125128
-0.297,-0.008,-0.958,-0.183,125132
-0.297,-0.007,-0.958,-0.183,125136
-0.297,-0.007,-0.958,-0.244,125140
-0.297,-0.007,-0.958,-0.244,125144
-0.297,-0.007,-0.959,-0.366,125148
-0.297,-0.007,-0.959,-0.244,125152
-0.297,-0.006,-0.959,-0.183,125156
-0.297,-0.006,-0.959,-0.183,125160
-0.3,-0.008,-0.957,-0.183,125164
-0.3,-0.008,-0.957,-0.183,125168
-0.3,-0.008,-0.957,-0.122,125172
-0.298,-0.01,-0.959,-0.244,125176
-0.298,-0.01,-0.959,-0.305,125180
-0.298,-0.009,-0.96,-0.183,125184
-0.298,-0.009,-0.96,-0.183,125188
-0.298,-0.009,-0.96,-0.122,125192
-0.3,-0.006,-0.958,-0.183,125196
-0.3,-0.006,-0.958,-0.305,125200
-0.299,-0.006,-0.959,-0.244,125204
-0.299,-0.006,-0.959,-0.244,125208
-0.299,-0.006,-0.959,-0.122,125212
-0.298,-0.006,-0.958,-0.244,125217
-0.298,-0.006,-0.958,-0.244,125221
-0.298,-0.008,-0.958,-0.122,125225
-0.298,-0.008,-0.958,-0.183,125229
-0.298,-0.008,-0.958,-0.183,125233
-0.297,-0.007,-0.959,-0.366,125237
-0.297,-0.007,-0.959,-0.244,125241
-0.299,-0.006,-0.958,-0.244,125245
-0.299,-0.006,-0.958,-0.244,125249
-0.299,-0.006,-0.958,-0.244,125253
-0.298,-0.01,-0.958,-0.244,125257
-0.298,-0.01,-0.958,-0.183,125261
-0.299,-0.007,-0.959,-0.122,125265
-0.299,-0.007,-0.959,-0.183,125269
-0.299,-0.007,-0.959,-0.183,125273
-0.298,-0.005,-0.958,-0.061,125277
-0.298,-0.005,-0.958,-0.244,125281
-0.3,-0.006,-0.958,-0.244,125285
-0.3,-0.006,-0.958,-0.183,125289
-0.299,-0.008,-0.956,-0.244,125293
-0.299,-0.008,-0.956,-0.244,125297
-0.299,-0.008,-0.956,-0.061,125301
-0.299,-0.005,-0.959,-0.183,125305
-0.299,-0.005,-0.959,-0.122,125309
-0.3,-0.007,-0.959,-0.305,125313
-0.3,-0.007,-0.959,-0.305,125317
-0.3,-0.007,-0.959,-0.305,125321
-0.298,-0.006,-0.958,-0.244,125325
-0.298,-0.006,-0.958,-0.122,125329
-0.298,-0.005,-0.958,-0.122,125333
-0.298,-0.005,-0.958,-0.122,125337
-0.298,-0.005,-0.958,-0.305,125341
-0.299,-0.006,-0.958,-0.244,125346
-0.299,-0.006,-0.958,-0.244,125350
-0.299,-0.007,-0.959,-0.244,125354
-0.299,-0.007,-0.959,-0.122,125358
-0.299,-0.007,-0.959,-0.122,125362
-0.299,-0.007,-0.956,-0.122,125366
-0.299,-0.007,-0.956,-0.244,125370
-0.298,-0.007,-0.958,-0.061,125374
-0.298,-0.007,-0.958,-0.122,125378
-0.298,-0.007,-0.958,-0.122,125382
-0.299,-0.007,-0.959,-0.183,125386
-0.299,-0.007,-0.959,-0.122,125390
-0.298,-0.008,-0.958,-0.244,125394
-0.298,-0.008,-0.958,-0.122,125398
-0.298,-0.008,-0.958,-0.122,125402
-0.298,-0.009,-0.96,-0.305,125406
-0.298,-0.009,-0.96,-0.305,125410
-0.297,-0.008,-0.96,-0.183,125414
-0.297,-0.008,-0.96,-0.305,125418
-0.298,-0.007,-0.958,-0.183,125422
-0.298,-0.007,-0.958,-0.183,125426
-0.298,-0.007,-0.958,-0.244,125430
-0.296,-0.007,-0.96,-0.183,125434
-0.296,-0.007,-0.96,-0.122,125438
-0.297,-0.007,-0.958,-0.122,125442
-0.297,-0.007,-0.958,-0.122,125446
-0.297,-0.007,-0.958,-0.122,125450
-0.298,-0.007,-0.958,-0.183,125454
-0.298,-0.007,-0.958,-0.244,125459
-0.298,-0.008,-0.958,-0.305,125463
-0.298,-0.008,-0.958,-0.305,125467
-0.298,-0.008,-0.958,-0.183,125471
-0.297,-0.006,-0.958,-0.122,125475
-0.297,-0.006,-0.958,-0.122,125479
-0.296,-0.007,-0.961,-0.244,125483
-0.296,-0.007,-0.961,-0.122,125487
-0.296,-0.007,-0.961,-0.122,125491
-0.297,-0.008,-0.961,-0.183,125495
-0.297,-0.008,-0.961,-0.305,125499
-0.299,-0.005,-0.959,-0.122,125503
-0.299,-0.005,-0.959,-0.183,125507
-0.299,-0.005,-0.959,-0.183,125511
-0.299,-0.007,-0.96,-0.183,125515
-0.299,-0.007,-0.96,-0.183,125519
-0.297,-0.008,-0.958,-0.183,125523
-0.297,-0.008,-0.958,-0.183,125527
-0.297,-0.007,-0.958,-0.183,125531
-0.297,-0.007,-0.958,-0.183,125535
-0.297,-0.007,-0.958,-0.183,125539
-0.299,-0.008,-0.958,-0.183,125543
-0.299,-0.008,-0.958,-0.183,125547
-0.298,-0.008,-0.957,-0.183,125551
-0.298,-0.008,-0.957,-0.183,125555
-0.298,-0.008,-0.957,-0.183,125559
-0.298,-0.007,-0.958,-0.183,125563
-0.298,-0.007,-0.958,-0.122,125567
-0.298,-0.008,-0.958,-0.183,125571
-0.298,-0.008,-0.958,-0.183,125575
-0.298,-0.008,-0.958,-0.305,125579
-0.298,-0.007,-0.958,-0.244,125584
-0.298,-0.007,-0.958,-0.122,125588
-0.297,-0.006,-0.956,-0.122,125592
-0.297,-0.006,-0.956,-0.183,125596
-0.297,-0.006,-0.956,-0.183,125600
-0.298,-0.007,-0.957,-0.305,125604
-0.298,-0.007,-0.957,-0.183,125608
-0.299,-0.009,-0.959,-0.122,125612
-0.299,-0.009,-0.959,-0.305,125616
-0.299,-0.009,-0.959,-0.305,125620
-0.299,-0.009,-0.958,-0.122,125624
-0.299,-0.009,-0.958,-0.305,125628
-0.298,-0.009,-0.958,-0.244,125632
-0.298,-0.009,-0.958,-0.244,125636
-0.298,-0.009,-0.958,-0.244,125640
-0.299,-0.008,-0.959,-0.183,125644
-0.299,-0.008,-0.959,-0.244,125648
-0.297,-0.008,-0.958,-0.244,125652
-0.297,-0.008,-0.958,-0.244,125656
-0.297,-0.008,-0.958,-0.122,125660
-0.297,-0.008,-0.958,-0.122,125664
-0.297,-0.008,-0.958,-0.122,125668
-0.298,-0.008,-0.958,-0.244,125672
-0.298,-0.008,-0.958,-0.183,125676
-0.3,-0.007,-0.959,-0.305,125680
-0.3,-0.007,-0.959,-0.305,125684
-0.3,-0.007,-0.959,-0.122,125688
-0.299,-0.007,-0.958,-0.244,125692
-0.299,-0.007,-0.958,-0.305,125696
-0.299,-0.008,-0.959,-0.183,125700
-0.299,-0.008,-0.959,-0.183,125704
-0.299,-0.008,-0.959,-0.183,125709
-0.296,-0.007,-0.96,-0.305,125713
-0.296,-0.007,-0.96,-0.305,125717
-0.296,-0.009,-0.958,-0.366,125721
-0.296,-0.009,-0.958,-0.244,125725
-0.296,-0.009,-0.958,-0.244,125729
-0.297,-0.008,-0.958,-0.122,125733
-0.297,-0.008,-0.958,-0.061,125737
-0.297,-0.008,-0.959,-0.183,125741
-0.297,-0.008,-0.959,-0.305,125745
-0.297,-0.008,-0.959,-0.305,125749
-0.298,-0.007,-0.957,-0.122,125753
-0.298,-0.007,-0.957,-0.122,125757
-0.296,-0.006,-0.958,-0.061,125761
-0.296,-0.006,-0.958,-0.061,125765
-0.296,-0.006,-0.958,-0.061,125769
-0.299,-0.007,-0.959,-0.122,125773
-0.299,-0.007,-0.959,-0.122,125777
-0.297,-0.007,-0.958,-0.122,125781
-0.297,-0.007,-0.958,-0.061,125785
-0.296,-0.006,-0.959,-0.061,125789
-0.296,-0.006,-0.959,-0.061,125793
-0.296,-0.006,-0.959,0.0,125797
-0.299,-0.005,-0.958,-0.183,125801
-0.299,-0.005,-0.958,-0.122,125805
-0.298,-0.007,-0.958,-0.183,125809
-0.298,-0.007,-0.958,-0.183,125813
-0.298,-0.007,-0.958,-0.244,125817
-0.297,-0.008,-0.958,-0.305,125821
-0.297,-0.008,-0.958,-0.122,125825
-0.297,-0.008,-0.958,-0.183,125829
-0.297,-0.008,-0.958,-0.183,125833
-0.297,-0.008,-0.958,-0.183,125837
-0.296,-0.007,-0.957,-0.244,125841
-0.296,-0.007,-0.957,-0.183,125846
-0.297,-0.007,-0.958,-0.183,125850
-0.297,-0.007,-0.958,-0.305,125854
-0.297,-0.007,-0.958,-0.305,125858
-0.297,-0.008,-0.959,-0.305,125862
-0.297,-0.008,-0.959,-0.122,125866
-0.299,-0.007,-0.958,-0.122,125870
-0.299,-0.007,-0.958,-0.183,125874
-0.299,-0.007,-0.958,-0.183,125878
-0.299,-0.008,-0.957,-0.366,125882
-0.299,-0.008,-0.957,-0.244,125886
-0.298,-0.008,-0.957,-0.183,125890
-0.298,-0.008,-0.957,-0.122,125894
-0.298,-0.008,-0.957,-0.122,125898
-0.301,-0.007,-0.958,-0.122,125902
-0.301,-0.007,-0.958,-0.305,125906
-0.298,-0.008,-0.959,-0.305,125910
-0.298,-0.008,-0.959,-0.122,125914
-0.298,-0.008,-0.958,-0.122,125918
-0.298,-0.008,-0.958,-0.122,125922
-0.298,-0.008,-0.958,-0.183,125926
-0.299,-0.006,-0.959,-0.183,125930
-0.299,-0.006,-0.959,-0.122,125934
-0.297,-0.007,-0.959,-0.244,125938
-0.297,-0.007,-0.959,-0.244,125942
-0.297,-0.007,-0.959,-0.122,125946
-0.298,-0.007,-0.959,-0.122,125950
-0.298,-0.007,-0.959,-0.366,125954
-0.298,-0.007,-0.959,-0.305,125959
-0.298,-0.007,-0.959,-0.305,125963
-0.298,-0.007,-0.959,-0.122,125967
-0.298,-0.006,-0.959,-0.183,125971
-0.298,-0.006,-0.959,-0.183,125975
-0.298,-0.007,-0.958,-0.244,125979
-0.298,-0.007,-0.958,-0.305,125983
-0.298,-0.007,-0.958,-0.305,125987
-0.297,-0.006,-0.958,-0.183,125991
-0.297,-0.006,-0.958,-0.183,125995
-0.297,-0.007,-0.96,-0.183,125999
-0.297,-0.007,-0.96,-0.122,126003
-0.297,-0.007,-0.96,-0.122,126007
-0.297,-0.006,-0.958,-0.305,126011
-0.297,-0.006,-0.958,-0.244,126015
-0.297,-0.007,-0.958,-0.183,126019
-0.297,-0.007,-0.958,-0.183,126023
-0.298,-0.007,-0.959,-0.244,126027
-0.298,-0.007,-0.959,-0.244,126031
-0.298,-0.007,-0.959,-0.183,126035
-0.297,-0.007,-0.958,-0.183,126039
-0.297,-0.007,-0.958,-0.183,126043
-0.298,-0.005,-0.958,-0.305,126047
-0.298,-0.005,-0.958,-0.305,126051
-0.298,-0.005,-0.958,-0.183,126055
-0.297,-0.006,-0.958,-0.244,126059
-0.297,-0.006,-0.958,-0.366,126063
-0.298,-0.009,-0.96,-0.183,126067
-0.298,-0.009,-0.96,-0.183,126071
-0.298,-0.009,-0.96,-0.061,126075
-0.298,-0.009,-0.958,-0.244,126080
-0.298,-0.009,-0.958,-0.244,126084
-0.298,-0.007,-0.958,-0.183,126088
-0.298,-0.007,-0.958,-0.122,126092
-0.298,-0.007,-0.958,-0.122,126096
-0.299,-0.007,-0.959,-0.183,126100
-0.299,-0.007,-0.959,-0.183,126104
-0.299,-0.007,-0.959,-0.244,126108
-0.299,-0.007,-0.959,-0.244,126112
-0.299,-0.007,-0.959,-0.244,126116
-0.299,-0.007,-0.959,-0.122,126120
-0.299,-0.007,-0.959,-0.244,126124
-0.298,-0.006,-0.958,-0.305,126128
-0.298,-0.006,-0.958,-0.244,126132
-0.298,-0.006,-0.958,-0.244,126136
-0.298,-0.007,-0.959,-0.183,126140
-0.298,-0.007,-0.959,-0.122,126144
-0.299,-0.008,-0.958,-0.244,126148
-0.299,-0.008,-0.958,-0.244,126152
-0.297,-0.007,-0.958,-0.183,126156
-0.297,-0.007,-0.958,-0.183,126160
-0.297,-0.007,-0.958,-0.183,126164
-0.297,-0.009,-0.96,-0.183,126168
-0.297,-0.009,-0.96,-0.427,126172
-0.299,-0.011,-0.959,-0.244,126176
-0.299,-0.011,-0.959,-0.244,126180
-0.299,-0.011,-0.959,-0.183,126184
-0.3,-0.01,-0.958,-0.244,126189
-0.3,-0.01,-0.958,-0.122,126193
-0.297,-0.007,-0.959,-0.061,126197
-0.297,-0.007,-0.959,-0.061,126201
-0.297,-0.007,-0.959,-0.183,126205
-0.297,-0.006,-0.958,-0.244,126209
-0.297,-0.006,-0.958,-0.122,126213
-0.298,-0.005,-0.96,-0.183,126217
-0.298,-0.005,-0.96,-0.183,126221
-0.298,-0.005,-0.96,-0.183,126225
-0.298,-0.006,-0.959,-0.061,126229
-0.298,-0.006,-0.959,0.061,126233
-0.296,-0.007,-0.959,-0.122,126237
-0.296,-0.007,-0.959,-0.305,126241
-0.296,-0.007,-0.959,-0.305,126245
-0.299,-0.005,-0.958,-0.183,126249
-0.299,-0.005,-0.958,-0.183,126253
-0.298,-0.005,-0.959,-0.244,126257
-0.298,-0.005,-0.959,-0.244,126261
-0.298,-0.006,-0.958,-0.061,126265
-0.298,-0.006,-0.958,-0.061,126269
-0.298,-0.006,-0.958,-0.183,126273
-0.297,-0.006,-0.958,-0.244,126277
-0.297,-0.006,-0.958,-0.244,126281
-0.298,-0.007,-0.96,-0.183,126285
-0.298,-0.007,-0.96,-0.183,126289
-0.298,-0.007,-0.96,-0.122,126293
-0.298,-0.008,-0.958,-0.122,126297
-0.298,-0.008,-0.958,-0.183,126301
-0.297,-0.007,-0.958,-0.183,126305
-0.297,-0.007,-0.958,-0.183,126310
-0.297,-0.007,-0.958,-0.183,126314
-0.297,-0.007,-0.959,-0.244,126318
-0.297,-0.007,-0.959,-0.244,126322
-0.299,-0.008,-0.958,-0.305,126326
-0.299,-0.008,-0.958,-0.244,126330
-0.299,-0.008,-0.958,-0.244,126334
-0.297,-0.007,-0.958,-0.183,126338
-0.297,-0.007,-0.958,-0.244,126342
-0.298,-0.008,-0.959,-0.305,126346
-0.298,-0.008,-0.959,-0.122,126350
-0.298,-0.008,-0.959,-0.122,126354
-0.298,-0.008,-0.959,-0.061,126358
-0.298,-0.008,-0.959,-0.122,126362
-0.297,-0.008,-0.957,-0.122,126366
-0.297,-0.008,-0.957,-0.244,126370
-0.297,-0.008,-0.957,-0.244,126374
-0.297,-0.008,-0.959,-0.366,126378
-0.297,-0.008,-0.959,-0.305,126382
-0.298,-0.009,-0.959,-0.122,126386
-0.298,-0.009,-0.959,-0.183,126390
-0.298,-0.009,-0.958,-0.305,126394
-0.298,-0.009,-0.958,-0.305,126398
-0.298,-0.009,-0.958,-0.244,126402
-0.297,-0.007,-0.96,-0.183,126406
-0.297,-0.007,-0.96,-0.122,126410
-0.299,-0.006,-0.96,-0.183,126414
-0.299,-0.006,-0.96,-0.183,126418
-0.299,-0.006,-0.96,-0.305,126422
-0.299,-0.007,-0.959,-0.183,126427
-0.299,-0.007,-0.959,-0.244,126431
-0.296,-0.009,-0.96,-0.122,126435
-0.296,-0.009,-0.96,-0.122,126439
-0.296,-0.009,-0.96,-0.122,126443
-0.297,-0.009,-0.959,-0.305,126447
-0.297,-0.009,-0.959,-0.244,126451
-0.297,-0.006,-0.957,-0.183,126455
-0.297,-0.006,-0.957,-0.183,126459
-0.297,-0.006,-0.957,-0.183,126463
-0.298,-0.005,-0.957,-0.244,126467
-0.298,-0.005,-0.957,-0.305,126471
-0.298,-0.007,-0.957,-0.061,126475
-0.298,-0.007,-0.957,-0.244,126479
-0.298,-0.007,-0.957,-0.244,126483
-0.296,-0.006,-0.957,-0.244,126487
-0.296,-0.006,-0.957,-0.244,126491
-0.299,-0.004,-0.96,-0.122,126495
-0.299,-0.004,-0.96,-0.244,126499
-0.298,-0.007,-0.959,-0.183,126503
-0.298,-0.007,-0.959,-0.183,126507
-0.298,-0.007,-0.959,-0.122,126511
-0.3,-0.005,-0.958,-0.183,126515
-0.3,-0.005,-0.958,-0.244,126519
-0.298,-0.005,-0.958,-0.244,126523
-0.298,-0.005,-0.958,-0.244,126527
-0.298,-0.005,-0.958,-0.305,126531
-0.298,-0.007,-0.958,-0.122,126535
-0.298,-0.007,-0.958,-0.305,126540
-0.297,-0.007,-0.958,-0.122,126544
-0.297,-0.007,-0.958,-0.122,126548
-0.297,-0.007,-0.958,-0.061,126552
-0.299,-0.007,-0.959,-0.244,126556
-0.299,-0.007,-0.959,-0.183,126560
-0.298,-0.009,-0.958,-0.244,126564
-0.298,-0.009,-0.958,-0.122,126568
-0.298,-0.009,-0.958,-0.122,126572
-0.297,-0.007,-0.958,-0.122,126576
-0.297,-0.007,-0.958,-0.244,126580
-0.298,-0.006,-0.958,-0.244,126584
-0.298,-0.006,-0.958,-0.244,126588
-0.298,-0.006,-0.958,-0.244,126592
-0.299,-0.007,-0.958,-0.183,126596
-0.299,-0.007,-0.958,-0.305,126600
-0.297,-0.007,-0.958,-0.244,126604
-0.297,-0.007,-0.958,-0.366,126608
-0.297,-0.007,-0.958,-0.366,126612
-0.299,-0.009,-0.958,-0.305,126616
-0.299,-0.009,-0.958,-0.183,126620
-0.299,-0.008,-0.959,-0.305,126624
-0.299,-0.008,-0.959,-0.244,126628
-0.299,-0.008,-0.959,-0.244,126632
-0.299,-0.008,-0.959,-0.244,126636
-0.299,-0.008,-0.959,-0.244,126640
-0.299,-0.008,-0.959,-0.244,126644
-0.299,-0.008,-0.959,-0.244,126648
-0.298,-0.007,-0.958,-0.183,126653
-0.298,-0.007,-0.958,-0.183,126657
-0.298,-0.007,-0.958,-0.183,126661
-0.299,-0.008,-0.959,-0.183,126665
-0.299,-0.008,-0.959,-0.183,126669
-0.297,-0.008,-0.958,-0.183,126673
-0.297,-0.008,-0.958,-0.183,126677
-0.297,-0.008,-0.958,-0.183,126681
-0.299,-0.009,-0.958,-0.244,126685
-0.299,-0.009,-0.958,-0.183,126689
-0.299,-0.008,-0.958,-0.061,126693
-0.299,-0.008,-0.958,-0.183,126697
-0.299,-0.008,-0.958,-0.183,126701
-0.296,-0.007,-0.958,-0.305,126705
-0.296,-0.007,-0.958,-0.122,126709
-0.298,-0.007,-0.96,-0.122,126713
-0.298,-0.007,-0.96,-0.244,126717
-0.298,-0.007,-0.96,-0.244,126721
-0.299,-0.007,-0.958,-0.244,126725
-0.299,-0.007,-0.958,-0.061,126729
-0.297,-0.007,-0.958,-0.183,126733
-0.297,-0.007,-0.958,-0.244,126737
-0.297,-0.007,-0.958,-0.244,126741
-0.298,-0.008,-0.959,-0.305,126745
-0.298,-0.008,-0.959,-0.183,126749
-0.296,-0.007,-0.96,-0.183,126753
-0.296,-0.007,-0.96,-0.122,126757
-0.298,-0.007,-0.959,-0.244,126761
-0.298,-0.007,-0.959,-0.244,126765
-0.298,-0.007,-0.959,-0.244,126769
-0.298,-0.007,-0.958,-0.183,126773
-0.298,-0.007,-0.958,-0.244,126777
-0.299,-0.007,-0.959,-0.061,126782
-0.299,-0.007,-0.959,-0.061,126786
-0.299,-0.007,-0.959,-0.183,126790
-0.297,-0.008,-0.961,-0.244,126794
-0.297,-0.008,-0.961,-0.305,126798
-0.297,-0.008,-0.959,-0.122,126802
-0.297,-0.008,-0.959,0.0,126806
-0.297,-0.008,-0.959,0.0,126810
-0.298,-0.007,-0.958,-0.305,126814
-0.298,-0.007,-0.958,-0.244,126818
-0.298,-0.006,-0.961,-0.305,126822
-0.298,-0.006,-0.961,-0.244,126826
-0.298,-0.006,-0.961,-0.244,126830
-0.298,-0.007,-0.959,-0.122,126834
-0.298,-0.007,-0.959,-0.244,126838
-0.297,-0.008,-0.959,-0.183,126842
-0.297,-0.008,-0.959,-0.244,126846
-0.297,-0.008,-0.959,-0.244,126850
-0.296,-0.005,-0.959,-0.183,126854
-0.296,-0.005,-0.959,-0.244,126858
-0.297,-0.007,-0.959,-0.244,126862
-0.297,-0.007,-0.959,-0.183,126866
-0.298,-0.007,-0.959,-0.122,126870
-0.298,-0.007,-0.959,-0.122,126874
-0.298,-0.007,-0.959,-0.244,126878
-0.297,-0.007,-0.959,-0.244,126882
-0.297,-0.007,-0.959,-0.244,126886
-0.298,-0.008,-0.958,-0.122,126890
-0.298,-0.008,-0.958,-0.122,126894
-0.298,-0.008,-0.958,-0.244,126898
-0.297,-0.008,-0.957,-0.244,126902
-0.297,-0.008,-0.957,-0.183,126907
-0.299,-0.007,-0.957,-0.183,126911
-0.299,-0.007,-0.957,-0.183,126915
-0.299,-0.007,-0.957,-0.244,126919
-0.298,-0.008,-0.958,-0.427,126923
-0.298,-0.008,-0.958,-0.183,126927
-0.298,-0.008,-0.958,-0.122,126931
-0.298,-0.008,-0.958,-0.244,126935
-0.298,-0.008,-0.958,-0.244,126939
-0.299,-0.006,-0.958,-0.183,126943
-0.299,-0.006,-0.958,-0.122,126947
-0.298,-0.006,-0.96,-0.122,126951
-0.298,-0.006,-0.96,-0.305,126955
-0.298,-0.006,-0.96,-0.305,126959
-0.299,-0.006,-0.957,-0.305,126963
-0.299,-0.006,-0.957,-0.305,126967
-0.299,-0.007,-0.957,-0.244,126971
-0.299,-0.007,-0.957,-0.122,126975
-0.299,-0.007,-0.957,-0.122,126979
-0.299,-0.008,-0.958,-0.122,126983
-0.299,-0.008,-0.958,-0.244,126987
-0.298,-0.009,-0.957,-0.183,126991
-0.298,-0.009,-0.957,-0.183,126995
-0.298,-0.005,-0.958,-0.183,126999
-0.298,-0.005,-0.958,-0.183,127003
-0.298,-0.005,-0.958,-0.244,127007
-0.299,-0.006,-0.958,-0.122,127011
-0.299,-0.006,-0.958,-0.183,127016
-0.298,-0.008,-0.959,-0.305,127020
-0.298,-0.008,-0.959,-0.305,127024
-0.298,-0.008,-0.959,-0.244,127028
-0.298,-0.006,-0.958,-0.183,127032
-0.298,-0.006,-0.958,-0.183,127036
-0.299,-0.006,-0.958,-0.244,127040
-0.299,-0.006,-0.958,-0.183,127044
-0.299,-0.006,-0.958,-0.183,127048
-0.299,-0.008,-0.96,-0.183,127052
-0.299,-0.008,-0.96,-0.183,127056
-0.298,-0.008,-0.958,-0.244,127060
-0.298,-0.008,-0.958,-0.305,127064
-0.298,-0.008,-0.958,-0.305,127068
-0.297,-0.008,-0.958,-0.122,127072
-0.297,-0.008,-0.958,-0.183,127076
-0.297,-0.008,-0.957,-0.244,127080
-0.297,-0.008,-0.957,-0.244,127084
-0.297,-0.008,-0.957,-0.244,127088
-0.298,-0.007,-0.958,-0.244,127092
-0.298,-0.007,-0.958,-0.122,127096
-0.297,-0.008,-0.959,-0.244,127100
-0.297,-0.008,-0.959,-0.244,127104
-0.299,-0.008,-0.956,-0.122,127108
-0.299,-0.008,-0.956,-0.122,127112
-0.299,-0.008,-0.956,-0.183,127116
-0.298,-0.007,-0.958,-0.183,127120
-0.298,-0.007,-0.958,-0.122,127124
-0.298,-0.008,-0.958,-0.122,127129
-0.298,-0.008,-0.958,-0.122,127133
-0.298,-0.008,-0.958,-0.122,127137
-0.298,-0.008,-0.958,-0.183,127141
-0.298,-0.008,-0.958,-0.061,127145
-0.297,-0.008,-0.959,-0.244,127149
-0.297,-0.008,-0.959,-0.244,127153
-0.297,-0.008,-0.959,-0.183,127157
-0.298,-0.007,-0.96,-0.122,127161
-0.298,-0.007,-0.96,-0.244,127165
-0.298,-0.007,-0.959,-0.183,127169
-0.298,-0.007,-0.959,-0.183,127173
-0.298,-0.007,-0.959,-0.183,127177
-0.297,-0.007,-0.959,-0.244,127181
-0.297,-0.007,-0.959,-0.122,127185
-0.297,-0.007,-0.959,-0.183,127189
-0.297,-0.007,-0.959,-0.122,127193
-0.297,-0.007,-0.959,-0.122,127197
-0.298,-0.008,-0.96,-0.244,127201
-0.298,-0.008,-0.96,-0.366,127205
-0.299,-0.007,-0.959,-0.244,127209
-0.299,-0.007,-0.959,-0.244,127213
-0.299,-0.007,-0.959,-0.244,127217
-0.298,-0.005,-0.96,-0.305,127221
-0.298,-0.005,-0.96,-0.366,127225
-0.298,-0.007,-0.958,-0.366,127229
-0.298,-0.007,-0.958,-0.183,127233
-0.299,-0.007,-0.96,-0.183,127237
-0.299,-0.007,-0.96,-0.183,127241
-0.299,-0.007,-0.96,-0.244,127246
-0.298,-0.005,-0.959,-0.183,127250
-0.298,-0.005,-0.959,-0.122,127254
-0.296,-0.008,-0.959,-0.244,127258
-0.296,-0.008,-0.959,-0.244,127262
-0.296,-0.008,-0.959,-0.244,127266
-0.298,-0.008,-0.959,-0.183,127270
-0.298,-0.008,-0.959,-0.183,127274
-0.298,-0.008,-0.959,-0.183,127278
-0.298,-0.008,-0.959,-0.244,127282
-0.298,-0.008,-0.959,-0.244,127286
-0.297,-0.008,-0.959,-0.122,127290
-0.297,-0.008,-0.959,-0.366,127294
-0.298,-0.007,-0.958,-0.183,127298
-0.298,-0.007,-0.958,-0.122,127302
-0.298,-0.007,-0.958,-0.122,127306
-0.298,-0.008,-0.958,-0.244,127310
-0.298,-0.008,-0.958,-0.122,127314
-0.299,-0.008,-0.958,-0.183,127318
-0.299,-0.008,-0.958,-0.244,127322
-0.299,-0.008,-0.958,-0.244,127326
-0.3,-0.008,-0.958,-0.061,127330
-0.3,-0.008,-0.958,-0.061,127334
-0.3,-0.009,-0.958,-0.183,127338
-0.3,-0.009,-0.958,-0.244,127342
-0.299,-0.007,-0.957,-0.183,127346
-0.299,-0.007,-0.957,-0.183,127350
-0.299,-0.007,-0.957,-0.122,127354
-0.3,-0.007,-0.956,-0.244,127358
-0.3,-0.007,-0.956,-0.122,127362
-0.299,-0.008,-0.957,-0.122,127367
-0.299,-0.008,-0.957,-0.122,127371
-0.299,-0.008,-0.957,-0.122,127375
-0.298,-0.006,-0.958,-0.305,127379
-0.298,-0.006,-0.958,-0.244,127383
-0.299,-0.007,-0.959,-0.122,127387
-0.299,-0.007,-0.959,-0.122,127391
-0.299,-0.007,-0.959,-0.122,127395
-0.299,-0.009,-0.958,-0.183,127399
-0.299,-0.009,-0.958,-0.244,127403
-0.299,-0.008,-0.958,-0.244,127407
-0.299,-0.008,-0.958,-0.183,127411
-0.299,-0.008,-0.958,-0.183,127415
-0.299,-0.008,-0.958,-0.122,127419
-0.299,-0.008,-0.958,-0.061,127423
-0.298,-0.008,-0.957,-0.183,127427
-0.298,-0.008,-0.957,-0.122,127431
-0.298,-0.008,-0.957,-0.122,127435
-0.298,-0.008,-0.959,-0.183,127439
-0.298,-0.008,-0.959,-0.244,127443
-0.299,-0.006,-0.96,-0.244,127447
-0.299,-0.006,-0.96,-0.244,127451
-0.299,-0.006,-0.96,-0.244,127455
-0.299,-0.005,-0.958,-0.183,127459
-0.299,-0.005,-0.958,-0.183,127463
-0.298,-0.008,-0.958,-0.183,127467
-0.298,-0.008,-0.958,-0.183,127471
-0.298,-0.006,-0.958,-0.244,127475
-0.298,-0.006,-0.958,-0.244,127479
-0.298,-0.006,-0.958,-0.122,127484
-0.296,-0.007,-0.958,-0.183,127488
-0.296,-0.007,-0.958,-0.244,127492
-0.298,-0.007,-0.958,-0.244,127496
-0.298,-0.007,-0.958,-0.244,127500
-0.298,-0.007,-0.958,-0.183,127504
-0.298,-0.007,-0.958,-0.366,127508
-0.298,-0.007,-0.958,-0.305,127512
-0.297,-0.007,-0.959,-0.122,127516
-0.297,-0.007,-0.959,-0.122,127520
-0.297,-0.007,-0.959,-0.244,127524
-0.299,-0.006,-0.959,-0.244,127528
-0.299,-0.006,-0.959,-0.244,127532
-0.298,-0.007,-0.959,-0.183,127536
-0.298,-0.007,-0.959,-0.244,127540
-0.298,-0.007,-0.959,-0.244,127544
-0.298,-0.008,-0.959,-0.183,127548
-0.298,-0.008,-0.959,-0.244,127552
-0.297,-0.007,-0.958,-0.244,127556
-0.297,-0.007,-0.958,-0.183,127560
-0.297,-0.007,-0.958,-0.183,127564
-0.297,-0.006,-0.959,-0.244,127568
-0.297,-0.006,-0.959,-0.183,127572
-0.298,-0.008,-0.958,-0.183,127576
-0.298,-0.008,-0.958,-0.366,127580
-0.298,-0.009,-0.958,-0.366,127584
-0.298,-0.009,-0.958,-0.366,127588
-0.298,-0.009,-0.958,-0.366,127592
-0.297,-0.009,-0.958,-0.183,127596
-0.297,-0.009,-0.958,-0.244,127600
-0.299,-0.007,-0.957,-0.366,127605
-0.299,-0.007,-0.957,-0.366,127609
-0.299,-0.007,-0.957,-0.244,127613
-0.298,-0.007,-0.959,-0.305,127617
-0.298,-0.007,-0.959,-0.305,127621
-0.299,-0.007,-0.958,-0.244,127625
-0.299,-0.007,-0.958,-0.244,127629
-0.299,-0.007,-0.958,-0.183,127633
-0.3,-0.006,-0.958,-0.244,127637
-0.3,-0.006,-0.958,-0.183,127641
-0.297,-0.008,-0.958,-0.122,127645
-0.297,-0.008,-0.958,-0.183,127649
-0.297,-0.008,-0.958,-0.183,127653
-0.298,-0.009,-0.958,-0.183,127657
-0.298,-0.009,-0.958,-0.183,127661
-0.299,-0.008,-0.958,-0.244,127665
-0.299,-0.008,-0.958,-0.244,127669
-0.299,-0.008,-0.958,-0.244,127673
-0.3,-0.006,-0.958,-0.244,127677
-0.3,-0.006,-0.958,-0.244,127681
-0.297,-0.006,-0.959,-0.183,127685
-0.297,-0.006,-0.959,-0.305,127689
-0.297,-0.006,-0.959,-0.305,127693
-0.299,-0.006,-0.959,-0.244,127697
-0.299,-0.006,-0.959,-0.305,127701
-0.3,-0.008,-0.959,-0.183,127705
-0.3,-0.008,-0.959,0.0,127709
-0.299,-0.007,-0.958,-0.061,127713
-0.299,-0.007,-0.958,-0.061,127717
-0.299,-0.007,-0.958,-0.305,127721
-0.299,-0.008,-0.959,-0.183,127726
-0.299,-0.008,-0.959,-0.244,127730
-0.299,-0.006,-0.959,-0.244,127734
-0.299,-0.006,-0.959,-0.244,127738
-0.299,-0.006,-0.959,-0.244,127742
-0.298,-0.007,-0.958,-0.183,127746
-0.298,-0.007,-0.958,-0.183,127750
-0.298,-0.007,-0.958,-0.244,127754
-0.298,-0.007,-0.958,-0.244,127758
-0.298,-0.007,-0.958,-0.183,127762
-0.298,-0.005,-0.958,-0.122,127766
-0.298,-0.005,-0.958,-0.183,127770
-0.3,-0.006,-0.958,-0.244,127774
-0.3,-0.006,-0.958,-0.183,127778
