Acc_X,Acc_Y,Acc_Z,Rot_Z,Millis
-0.297,-0.007,-0.956,-0.305,173779
-0.297,-0.007,-0.956,-0.305,173783
-0.297,-0.007,-0.956,-0.183,173787
-0.298,-0.008,-0.958,-0.122,173791
-0.298,-0.008,-0.958,-0.244,173795
-0.297,-0.006,-0.958,-0.305,173799
-0.297,-0.006,-0.958,-0.305,173803
-0.297,-0.006,-0.958,-0.244,173807
-0.299,-0.007,-0.958,-0.244,173811
-0.299,-0.007,-0.958,-0.183,173815
-0.299,-0.007,-0.959,-0.244,173819
-0.299,-0.007,-0.959,-0.061,173823
-0.299,-0.007,-0.959,-0.061,173827
-0.298,-0.007,-0.959,-0.244,173831
-0.298,-0.007,-0.959,-0.305,173835
-0.297,-0.006,-0.959,-0.183,173839
-0.297,-0.006,-0.959,-0.244,173843
-0.297,-0.006,-0.959,-0.244,173847
-0.299,-0.007,-0.958,-0.244,173851
-0.299,-0.007,-0.958,-0.122,173855
-0.298,-0.008,-0.958,-0.183,173859
-0.298,-0.008,-0.958,-0.305,173863
-0.298,-0.008,-0.958,-0.305,173867
-0.297,-0.009,-0.958,-0.244,173871
-0.297,-0.009,-0.958,-0.122,173875
-0.298,-0.008,-0.958,-0.244,173880
-0.298,-0.008,-0.958,-0.183,173884
-0.297,-0.008,-0.958,-0.183,173888
-0.297,-0.008,-0.958,-0.183,173892
-0.297,-0.008,-0.958,-0.244,173896
-0.298,-0.009,-0.959,-0.305,173900
-0.298,-0.009,-0.959,-0.244,173904
-0.299,-0.007,-0.958,-0.244,173908
-0.299,-0.007,-0.958,-0.244,173912
-0.299,-0.007,-0.958,-0.122,173916
-0.298,-0.007,-0.959,-0.122,173920
-0.298,-0.007,-0.959,-0.122,173924
-0.297,-0.008,-0.959,-0.122,173928
-0.297,-0.008,-0.959,-0.305,173932
-0.297,-0.008,-0.959,-0.305,173936
-0.298,-0.008,-0.959,-0.244,173940
-0.298,-0.008,-0.959,-0.305,173944
-0.298,-0.009,-0.957,-0.366,173948
-0.298,-0.009,-0.957,-0.305,173952
-0.298,-0.009,-0.957,-0.305,173956
-0.298,-0.007,-0.958,-0.244,173960
-0.298,-0.007,-0.958,-0.305,173964
-0.297,-0.009,-0.958,-0.183,173968
-0.297,-0.009,-0.958,-0.122,173972
-0.297,-0.009,-0.958,-0.122,173976
-0.297,-0.009,-0.958,-0.183,173980
-0.297,-0.009,-0.958,-0.122,173984
-0.297,-0.007,-0.959,-0.183,173988
-0.297,-0.007,-0.959,-0.183,173992
-0.299,-0.006,-0.959,-0.122,173997
-0.299,-0.006,-0.959,-0.122,174001
-0.299,-0.006,-0.959,-0.244,174005
-0.297,-0.007,-0.959,-0.305,174009
-0.297,-0.007,-0.959,-0.183,174013
-0.297,-0.007,-0.959,-0.122,174017
-0.297,-0.007,-0.959,-0.122,174021
-0.297,-0.007,-0.959,-0.122,174025
-0.297,-0.007,-0.959,-0.244,174029
-0.297,-0.007,-0.959,-0.244,174033
-0.298,-0.005,-0.957,-0.244,174037
-0.298,-0.005,-0.957,-0.244,174041
-0.298,-0.005,-0.957,-0.244,174045
-0.298,-0.006,-0.958,-0.305,174049
-0.298,-0.006,-0.958,-0.305,174053
-0.298,-0.007,-0.958,-0.183,174057
-0.298,-0.007,-0.958,-0.244,174061
-0.298,-0.007,-0.958,-0.244,174065
-0.298,-0.007,-0.958,-0.244,174069
-0.298,-0.007,-0.958,-0.122,174073
-0.298,-0.007,-0.957,-0.183,174077
-0.298,-0.007,-0.957,-0.244,174081
-0.298,-0.007,-0.957,-0.244,174085
-0.298,-0.008,-0.958,-0.305,174089
-0.298,-0.008,-0.958,-0.244,174093
-0.297,-0.007,-0.959,-0.183,174097
-0.297,-0.007,-0.959,-0.244,174101
-0.297,-0.007,-0.959,-0.244,174105
-0.299,-0.009,-0.959,-0.244,174109
-0.299,-0.009,-0.959,-0.183,174113
-0.298,-0.007,-0.959,0.0,174117
-0.298,-0.007,-0.959,0.0,174121
-0.297,-0.007,-0.958,-0.183,174125
-0.297,-0.007,-0.958,-0.183,174129
-0.297,-0.007,-0.958,-0.183,174134
-0.297,-0.008,-0.958,-0.305,174138
-0.297,-0.008,-0.958,-0.305,174142
-0.297,-0.009,-0.958,-0.061,174146
-0.297,-0.009,-0.958,-0.061,174150
-0.297,-0.009,-0.958,-0.183,174154
-0.297,-0.008,-0.959,-0.427,174158
-0.297,-0.008,-0.959,-0.244,174162
-0.298,-0.008,-0.958,-0.122,174166
-0.298,-0.008,-0.958,-0.122,174170
-0.298,-0.008,-0.958,-0.122,174174
-0.297,-0.009,-0.958,-0.244,174178
-0.297,-0.009,-0.958,-0.183,174182
-0.297,-0.009,-0.958,-0.183,174186
-0.297,-0.009,-0.958,-0.244,174190
-0.297,-0.009,-0.958,-0.244,174194
-0.298,-0.009,-0.958,-0.244,174198
-0.298,-0.009,-0.958,-0.244,174202
-0.299,-0.008,-0.958,-0.244,174206
-0.299,-0.008,-0.958,-0.244,174210
-0.299,-0.008,-0.958,-0.244,174214
-0.298,-0.008,-0.958,-0.305,174218
-0.298,-0.008,-0.958,-0.244,174222
-0.296,-0.008,-0.958,-0.183,174226
-0.296,-0.008,-0.958,-0.305,174230
-0.296,-0.008,-0.958,-0.305,174234
-0.299,-0.005,-0.957,-0.122,174238
-0.299,-0.005,-0.957,-0.183,174242
-0.298,-0.007,-0.958,-0.122,174246
-0.298,-0.007,-0.958,-0.244,174251
-0.299,-0.006,-0.958,-0.061,174255
-0.299,-0.006,-0.958,-0.061,174259
-0.299,-0.006,-0.958,-0.122,174263
-0.297,-0.007,-0.958,-0.244,174267
-0.297,-0.007,-0.958,-0.183,174271
-0.298,-0.009,-0.958,-0.122,174275
-0.298,-0.009,-0.958,-0.122,174279
-0.298,-0.009,-0.958,-0.122,174283
-0.299,-0.007,-0.958,-0.244,174287
-0.299,-0.007,-0.958,-0.244,174291
-0.297,-0.007,-0.958,-0.244,174295
-0.297,-0.007,-0.958,-0.244,174299
-0.297,-0.007,-0.958,-0.183,174303
-0.297,-0.006,-0.958,-0.366,174307
-0.297,-0.006,-0.958,-0.305,174311
-0.297,-0.006,-0.958,-0.244,174315
-0.297,-0.006,-0.958,-0.244,174319
-0.297,-0.006,-0.958,-0.244,174323
-0.299,-0.008,-0.959,-0.427,174327
-0.299,-0.008,-0.959,-0.305,174331
-0.298,-0.007,-0.958,-0.061,174335
-0.298,-0.007,-0.958,-0.244,174339
-0.298,-0.007,-0.958,-0.244,174343
-0.297,-0.007,-0.959,-0.183,174347
-0.297,-0.007,-0.959,-0.183,174351
-0.298,-0.007,-0.961,-0.183,174355
-0.298,-0.007,-0.961,-0.244,174359
-0.298,-0.007,-0.961,-0.244,174363
-0.299,-0.007,-0.959,-0.183,174367
-0.299,-0.007,-0.959,-0.122,174371
-0.299,-0.007,-0.958,-0.122,174376
-0.299,-0.007,-0.958,-0.244,174380
-0.298,-0.008,-0.958,-0.244,174384
-0.298,-0.008,-0.958,-0.244,174388
-0.298,-0.008,-0.958,-0.183,174392
-0.297,-0.008,-0.958,-0.122,174396
-0.297,-0.008,-0.958,-0.122,174400
-0.297,-0.008,-0.957,-0.183,174404
-0.297,-0.008,-0.957,-0.183,174408
-0.297,-0.008,-0.957,-0.305,174412
-0.297,-0.008,-0.957,-0.244,174416
-0.297,-0.008,-0.957,-0.366,174420
-0.297,-0.008,-0.958,-0.427,174424
-0.297,-0.008,-0.958,-0.305,174428
-0.297,-0.008,-0.958,-0.305,174432
-0.299,-0.009,-0.958,-0.244,174436
-0.299,-0.009,-0.958,-0.183,174440
-0.298,-0.006,-0.958,-0.244,174444
-0.298,-0.006,-0.958,-0.061,174448
-0.298,-0.006,-0.958,-0.061,174452
-0.297,-0.009,-0.958,-0.183,174456
-0.297,-0.009,-0.958,-0.183,174460
-0.297,-0.008,-0.959,-0.122,174464
-0.297,-0.008,-0.959,-0.244,174468
-0.297,-0.008,-0.959,-0.244,174472
-0.297,-0.007,-0.958,-0.183,174476
-0.297,-0.007,-0.958,-0.244,174480
-0.297,-0.008,-0.958,-0.305,174484
-0.297,-0.008,-0.958,-0.244,174488
-0.296,-0.006,-0.96,-0.122,174493
-0.296,-0.006,-0.96,-0.122,174497
-0.296,-0.006,-0.96,-0.183,174501
-0.298,-0.007,-0.959,-0.183,174505
-0.298,-0.007,-0.959,-0.244,174509
-0.298,-0.008,-0.958,-0.244,174513
-0.298,-0.008,-0.958,-0.244,174517
-0.298,-0.008,-0.958,-0.122,174521
-0.297,-0.007,-0.958,-0.183,174525
-0.297,-0.007,-0.958,-0.183,174529
-0.297,-0.007,-0.959,-0.122,174533
-0.297,-0.007,-0.959,-0.122,174537
-0.297,-0.007,-0.959,-0.122,174541
-0.296,-0.008,-0.958,-0.183,174545
-0.296,-0.008,-0.958,-0.183,174549
-0.298,-0.008,-0.958,-0.183,174553
-0.298,-0.008,-0.958,-0.183,174557
-0.298,-0.008,-0.958,-0.183,174561
-0.298,-0.007,-0.958,-0.244,174565
-0.298,-0.007,-0.958,-0.244,174569
-0.298,-0.006,-0.957,-0.183,174573
-0.298,-0.006,-0.957,-0.183,174577
-0.298,-0.006,-0.957,-0.183,174581
-0.299,-0.008,-0.957,-0.183,174585
-0.299,-0.008,-0.957,-0.122,174589
-0.298,-0.006,-0.959,-0.244,174593
-0.298,-0.006,-0.959,-0.183,174597
-0.298,-0.006,-0.959,-0.183,174601
-0.299,-0.006,-0.961,-0.122,174605
-0.299,-0.006,-0.961,-0.183,174610
-0.299,-0.007,-0.958,-0.183,174614
-0.299,-0.007,-0.958,-0.244,174618
-0.296,-0.007,-0.957,-0.183,174622
-0.296,-0.007,-0.957,-0.183,174626
-0.296,-0.007,-0.957,-0.305,174630
-0.296,-0.006,-0.957,-0.305,174634
-0.296,-0.006,-0.957,-0.183,174638
-0.298,-0.007,-0.96,-0.183,174642
-0.298,-0.007,-0.96,-0.183,174646
-0.298,-0.007,-0.96,-0.244,174650
-0.298,-0.006,-0.958,-0.183,174654
-0.298,-0.006,-0.958,-0.183,174658
-0.296,-0.008,-0.956,-0.061,174662
-0.296,-0.008,-0.956,-0.122,174666
-0.296,-0.008,-0.956,-0.122,174670
-0.298,-0.009,-0.959,-0.183,174674
-0.298,-0.009,-0.959,-0.244,174678
-0.3,-0.009,-0.963,-0.183,174682
-0.3,-0.009,-0.963,-0.183,174686
-0.3,-0.009,-0.963,-0.183,174690
-0.3,-0.009,-0.961,-0.244,174694
-0.3,-0.009,-0.961,-0.061,174698
-0.297,-0.008,-0.957,-0.183,174702
-0.297,-0.008,-0.957,-0.244,174706
-0.297,-0.008,-0.957,-0.244,174710
-0.295,-0.008,-0.955,-0.183,174715
-0.295,-0.008,-0.955,-0.244,174719
-0.298,-0.007,-0.958,-0.305,174723
-0.298,-0.007,-0.958,-0.305,174727
-0.299,-0.007,-0.961,-0.183,174731
-0.299,-0.007,-0.961,-0.183,174735
-0.299,-0.007,-0.961,-0.183,174739
-0.298,-0.008,-0.959,-0.183,174743
-0.298,-0.008,-0.959,-0.122,174747
-0.295,-0.008,-0.96,-0.122,174751
-0.295,-0.008,-0.96,-0.122,174755
-0.295,-0.008,-0.96,-0.244,174759
-0.295,-0.006,-0.961,-0.244,174763
-0.295,-0.006,-0.961,-0.183,174767
-0.297,-0.005,-0.962,-0.122,174771
-0.297,-0.005,-0.962,-0.122,174775
-0.297,-0.005,-0.962,-0.183,174779
-0.295,-0.007,-0.96,-0.305,174783
-0.295,-0.007,-0.96,-0.305,174787
-0.296,-0.005,-0.96,-0.183,174791
-0.296,-0.005,-0.96,-0.183,174795
-0.296,-0.005,-0.96,-0.183,174799
-0.294,-0.007,-0.96,-0.183,174803
-0.294,-0.007,-0.96,-0.244,174807
-0.294,-0.004,-0.96,-0.366,174811
-0.294,-0.004,-0.96,-0.366,174815
-0.294,-0.004,-0.96,-0.366,174819
-0.296,-0.004,-0.96,-0.244,174823
-0.296,-0.004,-0.96,-0.122,174828
-0.296,-0.004,-0.958,-0.244,174832
-0.296,-0.004,-0.958,-0.549,174836
-0.296,-0.005,-0.955,-0.366,174840
-0.296,-0.005,-0.955,-0.366,174844
-0.296,-0.005,-0.955,-0.305,174848
-0.299,-0.006,-0.957,-0.305,174852
-0.299,-0.006,-0.957,-0.305,174856
-0.3,-0.005,-0.964,-0.366,174860
-0.3,-0.005,-0.964,-0.366,174864
-0.3,-0.005,-0.964,-0.305,174868
-0.301,-0.007,-0.958,-0.305,174872
-0.301,-0.007,-0.958,-0.244,174876
-0.302,-0.01,-0.948,-0.244,174880
-0.302,-0.01,-0.948,-0.244,174884
-0.302,-0.01,-0.948,-0.427,174888
-0.303,-0.01,-0.957,-0.488,174892
-0.303,-0.01,-0.957,-0.244,174896
-0.304,-0.011,-0.962,-0.244,174900
-0.304,-0.011,-0.962,-0.305,174904
-0.304,-0.011,-0.962,-0.305,174908
-0.298,-0.014,-0.958,-0.244,174912
-0.298,-0.014,-0.958,-0.183,174916
-0.296,-0.014,-0.953,-0.122,174920
-0.296,-0.014,-0.953,-0.244,174924
-0.296,-0.014,-0.953,-0.244,174928
-0.296,-0.012,-0.958,-0.183,174932
-0.296,-0.012,-0.958,-0.183,174936
-0.297,-0.012,-0.963,-0.122,174941
-0.297,-0.012,-0.963,-0.244,174945
-0.297,-0.012,-0.963,-0.244,174949
-0.293,-0.01,-0.957,-0.183,174953
-0.293,-0.01,-0.957,-0.061,174957
-0.295,-0.01,-0.966,-0.061,174961
-0.295,-0.01,-0.966,-0.244,174965
-0.296,-0.01,-0.972,-0.244,174969
-0.296,-0.01,-0.972,-0.244,174973
-0.296,-0.01,-0.972,-0.305,174977
-0.291,-0.011,-0.95,-0.183,174981
-0.291,-0.011,-0.95,-0.061,174985
-0.288,-0.007,-0.945,-0.183,174989
-0.288,-0.007,-0.945,-0.183,174993
-0.288,-0.007,-0.945,-0.122,174997
-0.295,-0.006,-0.962,-0.061,175001
-0.295,-0.006,-0.962,0.0,175005
-0.297,-0.006,-0.965,-0.183,175009
-0.297,-0.006,-0.965,-0.183,175013
-0.297,-0.006,-0.965,-0.305,175017
-0.296,-0.006,-0.96,0.0,175021
-0.296,-0.006,-0.96,-0.122,175025
-0.296,-0.003,-0.956,-0.305,175029
-0.296,-0.003,-0.956,-0.244,175033
-0.296,-0.003,-0.956,-0.244,175037
-0.298,-0.004,-0.958,-0.183,175041
-0.298,-0.004,-0.958,-0.122,175045
-0.298,-0.004,-0.96,-0.122,175049
-0.298,-0.004,-0.96,-0.244,175053
-0.298,-0.004,-0.96,-0.244,175057
-0.299,-0.003,-0.958,-0.183,175061
-0.299,-0.003,-0.958,-0.183,175065
-0.299,-0.002,-0.955,-0.244,175069
-0.299,-0.002,-0.955,-0.183,175074
-0.299,-0.002,-0.955,-0.183,175078
-0.3,-0.002,-0.96,-0.183,175082
-0.3,-0.002,-0.96,-0.244,175086
-0.3,-0.003,-0.962,-0.244,175090
-0.3,-0.003,-0.962,-0.305,175094
-0.299,-0.005,-0.953,-0.366,175098
-0.299,-0.005,-0.953,-0.366,175102
-0.299,-0.005,-0.953,-0.244,175106
-0.298,-0.005,-0.955,-0.244,175110
-0.298,-0.005,-0.955,-0.305,175114
-0.301,-0.005,-0.961,-0.183,175118
-0.301,-0.005,-0.961,-0.183,175122
-0.301,-0.005,-0.961,-0.244,175126
-0.3,-0.009,-0.961,-0.183,175130
-0.3,-0.009,-0.961,-0.305,175134
-0.299,-0.008,-0.955,-0.244,175138
-0.299,-0.008,-0.955,-0.244,175142
-0.299,-0.008,-0.955,-0.244,175146
-0.297,-0.007,-0.955,-0.244,175150
-0.297,-0.007,-0.955,-0.305,175154
-0.3,-0.013,-0.959,-0.183,175158
-0.3,-0.013,-0.959,-0.244,175162
-0.3,-0.013,-0.959,-0.244,175166
-0.298,-0.013,-0.962,-0.305,175170
-0.298,-0.013,-0.962,-0.244,175174
-0.293,-0.014,-0.958,-0.244,175178
-0.293,-0.014,-0.958,-0.244,175182
-0.293,-0.014,-0.958,-0.244,175186
-0.294,-0.013,-0.958,-0.244,175191
-0.294,-0.013,-0.958,-0.183,175195
-0.295,-0.014,-0.961,-0.244,175199
-0.295,-0.014,-0.961,-0.305,175203
-0.294,-0.014,-0.96,-0.183,175207
-0.294,-0.014,-0.96,-0.183,175211
-0.294,-0.014,-0.96,-0.122,175215
-0.296,-0.013,-0.958,-0.244,175219
-0.296,-0.013,-0.958,-0.122,175223
-0.296,-0.012,-0.957,-0.183,175227
-0.296,-0.012,-0.957,-0.183,175231
-0.296,-0.012,-0.957,-0.183,175235
-0.296,-0.011,-0.959,-0.061,175239
-0.296,-0.011,-0.959,-0.122,175243
-0.297,-0.009,-0.96,-0.244,175247
-0.297,-0.009,-0.96,-0.244,175251
-0.297,-0.009,-0.96,-0.244,175255
-0.297,-0.008,-0.957,-0.122,175259
-0.297,-0.008,-0.957,-0.122,175263
-0.297,-0.007,-0.957,-0.183,175267
-0.297,-0.007,-0.957,-0.183,175271
-0.297,-0.007,-0.957,-0.183,175275
-0.297,-0.006,-0.959,-0.122,175279
-0.297,-0.006,-0.959,-0.244,175283
-0.299,-0.004,-0.958,-0.366,175287
-0.299,-0.004,-0.958,-0.366,175291
-0.299,-0.004,-0.958,-0.366,175295
-0.3,-0.003,-0.955,-0.244,175299
-0.3,-0.003,-0.955,-0.122,175304
-0.299,-0.003,-0.957,-0.305,175308
-0.299,-0.003,-0.957,-0.244,175312
-0.299,-0.003,-0.957,-0.244,175316
-0.299,-0.003,-0.957,-0.061,175320
-0.299,-0.003,-0.957,-0.122,175324
-0.3,-0.004,-0.959,-0.244,175328
-0.3,-0.004,-0.959,-0.366,175332
-0.302,-0.003,-0.957,-0.122,175336
-0.302,-0.003,-0.957,-0.122,175340
-0.302,-0.003,-0.957,-0.183,175344
-0.302,-0.003,-0.956,-0.244,175348
-0.302,-0.003,-0.956,-0.122,175352
-0.302,-0.005,-0.957,-0.183,175356
-0.302,-0.005,-0.957,-0.183,175360
-0.302,-0.005,-0.957,-0.305,175364
-0.301,-0.007,-0.956,-0.244,175368
-0.301,-0.007,-0.956,-0.122,175372
-0.303,-0.007,-0.957,-0.305,175376
-0.303,-0.007,-0.957,-0.305,175380
-0.303,-0.007,-0.957,-0.305,175384
-0.302,-0.009,-0.957,-0.183,175388
-0.302,-0.009,-0.957,-0.244,175392
-0.299,-0.01,-0.958,-0.183,175396
-0.299,-0.01,-0.958,-0.122,175400
-0.299,-0.01,-0.958,-0.122,175404
-0.299,-0.011,-0.957,-0.183,175408
-0.299,-0.011,-0.957,-0.122,175412
-0.295,-0.012,-0.959,-0.183,175416
-0.295,-0.012,-0.959,-0.244,175420
-0.295,-0.012,-0.959,-0.244,175425
-0.294,-0.011,-0.959,-0.122,175429
-0.294,-0.011,-0.959,-0.183,175433
-0.294,-0.01,-0.96,-0.244,175437
-0.294,-0.01,-0.96,-0.305,175441
-0.294,-0.011,-0.96,-0.244,175445
-0.294,-0.011,-0.96,-0.244,175449
-0.294,-0.011,-0.96,-0.244,175453
-0.293,-0.014,-0.959,-0.122,175457
-0.293,-0.014,-0.959,-0.183,175461
-0.292,-0.012,-0.961,-0.061,175465
-0.292,-0.012,-0.961,-0.061,175469
-0.292,-0.012,-0.961,-0.122,175473
-0.293,-0.011,-0.96,-0.183,175477
-0.293,-0.011,-0.96,-0.122,175481
-0.295,-0.011,-0.958,-0.183,175485
-0.295,-0.011,-0.958,-0.183,175489
-0.295,-0.011,-0.958,-0.244,175493
-0.297,-0.012,-0.959,-0.305,175497
-0.297,-0.012,-0.959,-0.305,175501
-0.298,-0.01,-0.96,-0.122,175505
-0.298,-0.01,-0.96,-0.122,175509
-0.298,-0.01,-0.96,-0.122,175513
-0.298,-0.008,-0.959,-0.183,175517
-0.298,-0.008,-0.959,-0.183,175521
-0.298,-0.005,-0.957,-0.183,175525
-0.298,-0.005,-0.957,-0.183,175529
-0.298,-0.005,-0.957,-0.183,175534
-0.299,-0.003,-0.96,-0.244,175538
-0.299,-0.003,-0.96,-0.183,175542
-0.297,-0.003,-0.958,-0.244,175546
-0.297,-0.003,-0.958,-0.244,175550
-0.297,-0.003,-0.958,-0.244,175554
-0.299,-0.002,-0.957,-0.305,175558
-0.299,-0.002,-0.957,-0.244,175562
-0.299,-0.002,-0.958,-0.122,175566
-0.299,-0.002,-0.958,-0.305,175570
-0.3,-0.002,-0.959,-0.305,175574
-0.3,-0.002,-0.959,-0.305,175578
-0.3,-0.002,-0.959,-0.244,175582
-0.298,-0.003,-0.958,-0.366,175586
-0.298,-0.003,-0.958,-0.427,175590
-0.299,-0.004,-0.957,-0.244,175594
-0.299,-0.004,-0.957,-0.244,175598
-0.299,-0.004,-0.957,-0.366,175602
-0.3,-0.004,-0.957,-0.183,175606
-0.3,-0.004,-0.957,-0.244,175610
-0.299,-0.004,-0.957,-0.427,175614
-0.299,-0.004,-0.957,-0.427,175618
-0.299,-0.004,-0.957,-0.183,175622
-0.299,-0.005,-0.958,-0.183,175626
-0.299,-0.005,-0.958,-0.366,175630
-0.299,-0.009,-0.957,-0.244,175634
-0.299,-0.009,-0.957,-0.244,175638
-0.299,-0.009,-0.957,-0.244,175642
-0.301,-0.011,-0.956,-0.366,175646
-0.301,-0.011,-0.956,-0.244,175651
-0.299,-0.011,-0.958,-0.244,175655
-0.299,-0.011,-0.958,-0.183,175659
-0.299,-0.011,-0.958,-0.183,175663
-0.298,-0.012,-0.96,-0.305,175667
-0.298,-0.012,-0.96,-0.366,175671
-0.299,-0.012,-0.958,-0.305,175675
-0.299,-0.012,-0.958,-0.305,175679
-0.299,-0.012,-0.957,-0.183,175683
-0.299,-0.012,-0.957,-0.183,175687
-0.299,-0.012,-0.957,-0.244,175691
-0.298,-0.013,-0.958,-0.183,175695
-0.298,-0.013,-0.958,-0.305,175699
-0.299,-0.015,-0.957,-0.305,175703
-0.299,-0.015,-0.957,-0.305,175707
-0.299,-0.015,-0.957,-0.366,175711
-0.297,-0.013,-0.957,-0.366,175715
-0.297,-0.013,-0.957,-0.244,175719
-0.297,-0.013,-0.959,-0.305,175723
-0.297,-0.013,-0.959,-0.305,175727
-0.297,-0.013,-0.959,-0.244,175731
-0.299,-0.014,-0.959,-0.183,175735
-0.299,-0.014,-0.959,-0.305,175739
-0.299,-0.014,-0.958,-0.244,175743
-0.299,-0.014,-0.958,-0.244,175747
-0.299,-0.014,-0.958,-0.244,175751
-0.299,-0.014,-0.958,-0.244,175756
-0.299,-0.014,-0.958,-0.122,175760
-0.3,-0.012,-0.958,-0.122,175764
-0.3,-0.012,-0.958,-0.305,175768
-0.3,-0.012,-0.958,-0.305,175772
-0.3,-0.009,-0.957,-0.061,175776
-0.3,-0.009,-0.957,-0.122,175780
-0.3,-0.009,-0.958,-0.183,175784
-0.3,-0.009,-0.958,-0.183,175788
-0.3,-0.009,-0.958,-0.183,175792
-0.301,-0.007,-0.958,-0.244,175796
-0.301,-0.007,-0.958,-0.305,175800
-0.3,-0.004,-0.958,-0.122,175804
-0.3,-0.004,-0.958,-0.122,175808
-0.299,-0.003,-0.959,-0.183,175812
-0.299,-0.003,-0.959,-0.183,175816
-0.299,-0.003,-0.959,-0.183,175820
-0.3,-0.002,-0.958,-0.122,175824
-0.3,-0.002,-0.958,-0.122,175828
-0.298,-0.002,-0.956,-0.183,175832
-0.298,-0.002,-0.956,-0.183,175836
-0.298,-0.002,-0.956,-0.122,175840
-0.3,-0.003,-0.956,-0.183,175844
-0.3,-0.003,-0.956,-0.244,175848
-0.299,-0.003,-0.958,-0.244,175852
-0.299,-0.003,-0.958,-0.244,175856
-0.299,-0.003,-0.958,-0.244,175860
-0.299,-0.003,-0.958,-0.183,175864
-0.299,-0.003,-0.958,-0.305,175868
-0.298,-0.005,-0.956,-0.244,175872
-0.298,-0.005,-0.956,-0.244,175877
-0.298,-0.005,-0.956,-0.244,175881
-0.299,-0.005,-0.958,-0.244,175885
-0.299,-0.005,-0.958,-0.183,175889
-0.296,-0.006,-0.96,-0.244,175893
-0.296,-0.006,-0.96,-0.244,175897
-0.296,-0.006,-0.96,-0.244,175901
-0.296,-0.007,-0.96,-0.183,175905
-0.296,-0.007,-0.96,-0.244,175909
-0.296,-0.008,-0.959,-0.244,175913
-0.296,-0.008,-0.959,-0.122,175917
-0.295,-0.011,-0.96,-0.244,175921
-0.295,-0.011,-0.96,-0.244,175925
-0.295,-0.011,-0.96,-0.183,175929
-0.296,-0.011,-0.959,-0.122,175933
-0.296,-0.011,-0.959,-0.183,175937
-0.295,-0.011,-0.959,-0.183,175941
-0.295,-0.011,-0.959,-0.183,175945
-0.295,-0.011,-0.959,-0.244,175949
-0.294,-0.012,-0.961,-0.244,175953
-0.294,-0.012,-0.961,-0.122,175957
-0.296,-0.012,-0.96,-0.122,175961
-0.296,-0.012,-0.96,-0.122,175965
-0.296,-0.012,-0.96,-0.183,175969
-0.294,-0.012,-0.958,-0.366,175973
-0.294,-0.012,-0.958,-0.366,175977
-0.295,-0.012,-0.96,-0.305,175981
-0.295,-0.012,-0.96,-0.183,175985
-0.295,-0.012,-0.96,-0.183,175989
-0.297,-0.01,-0.959,-0.305,175993
-0.297,-0.01,-0.959,-0.244,175998
-0.298,-0.009,-0.957,-0.244,176002
-0.298,-0.009,-0.957,-0.244,176006
-0.298,-0.009,-0.957,-0.244,176010
-0.298,-0.009,-0.958,-0.305,176014
-0.298,-0.009,-0.958,-0.061,176018
-0.298,-0.008,-0.959,-0.183,176022
-0.298,-0.008,-0.959,-0.305,176026
-0.298,-0.008,-0.959,-0.305,176030
-0.3,-0.006,-0.957,-0.244,176034
-0.3,-0.006,-0.957,-0.244,176038
-0.299,-0.005,-0.958,-0.305,176042
-0.299,-0.005,-0.958,-0.122,176046
-0.3,-0.004,-0.956,-0.061,176050
-0.3,-0.004,-0.956,-0.061,176054
-0.3,-0.004,-0.956,-0.122,176058
-0.3,-0.004,-0.958,-0.183,176062
-0.3,-0.004,-0.958,-0.244,176066
-0.3,-0.006,-0.958,-0.183,176070
-0.3,-0.006,-0.958,-0.183,176074
-0.3,-0.006,-0.958,-0.183,176078
-0.3,-0.006,-0.955,-0.244,176082
-0.3,-0.006,-0.955,-0.305,176086
-0.301,-0.006,-0.957,-0.183,176090
-0.301,-0.006,-0.957,-0.183,176094
-0.301,-0.006,-0.957,-0.244,176098
-0.299,-0.006,-0.957,-0.244,176102
-0.299,-0.006,-0.957,-0.244,176106
-0.3,-0.005,-0.957,-0.183,176110
-0.3,-0.005,-0.957,-0.183,176114
-0.3,-0.005,-0.957,-0.183,176118
-0.299,-0.007,-0.957,-0.244,176122
-0.299,-0.007,-0.957,-0.244,176127
-0.3,-0.008,-0.958,-0.061,176131
-0.3,-0.008,-0.958,-0.061,176135
-0.3,-0.008,-0.958,-0.061,176139
-0.3,-0.01,-0.959,-0.244,176143
-0.3,-0.01,-0.959,-0.244,176147
-0.298,-0.007,-0.959,-0.183,176151
-0.298,-0.007,-0.959,-0.244,176155
-0.298,-0.007,-0.959,-0.244,176159
-0.298,-0.01,-0.957,-0.305,176163
-0.298,-0.01,-0.957,-0.183,176167
-0.299,-0.01,-0.958,-0.122,176171
-0.299,-0.01,-0.958,-0.183,176175
-0.3,-0.012,-0.959,-0.244,176179
-0.3,-0.012,-0.959,-0.244,176183
-0.3,-0.012,-0.959,-0.366,176187
-0.297,-0.01,-0.96,-0.305,176191
-0.297,-0.01,-0.96,-0.366,176195
-0.297,-0.011,-0.957,-0.183,176199
-0.297,-0.011,-0.957,-0.183,176203
-0.297,-0.011,-0.957,-0.122,176207
-0.297,-0.011,-0.959,-0.305,176211
-0.297,-0.011,-0.959,-0.183,176215
-0.296,-0.01,-0.959,-0.122,176219
-0.296,-0.01,-0.959,-0.061,176223
-0.296,-0.01,-0.959,-0.061,176227
-0.294,-0.01,-0.959,-0.122,176231
-0.294,-0.01,-0.959,-0.122,176236
-0.295,-0.008,-0.959,-0.183,176240
-0.295,-0.008,-0.959,-0.183,176244
-0.295,-0.008,-0.959,-0.183,176248
-0.296,-0.009,-0.959,-0.427,176252
-0.296,-0.009,-0.959,-0.183,176256
-0.297,-0.008,-0.959,-0.183,176260
-0.297,-0.008,-0.959,-0.244,176264
-0.297,-0.008,-0.959,-0.244,176268
-0.297,-0.007,-0.959,-0.122,176272
-0.297,-0.007,-0.959,-0.183,176276
-0.298,-0.005,-0.959,-0.061,176280
-0.298,-0.005,-0.959,-0.244,176284
-0.298,-0.005,-0.959,-0.305,176288
-0.298,-0.005,-0.959,-0.305,176292
-0.298,-0.005,-0.959,-0.305,176296
-0.297,-0.003,-0.958,-0.183,176300
-0.297,-0.003,-0.958,-0.061,176304
-0.298,-0.003,-0.957,-0.183,176308
-0.298,-0.003,-0.957,-0.183,176312
-0.298,-0.003,-0.957,-0.183,176316
-0.299,-0.004,-0.958,-0.244,176320
-0.299,-0.004,-0.958,-0.183,176324
-0.299,-0.004,-0.958,-0.244,176328
-0.299,-0.004,-0.958,-0.244,176332
-0.299,-0.004,-0.958,-0.244,176336
-0.298,-0.004,-0.957,-0.183,176340
-0.298,-0.004,-0.957,-0.183,176344
-0.298,-0.004,-0.957,-0.305,176348
-0.298,-0.004,-0.957,-0.366,176352
-0.298,-0.004,-0.957,-0.366,176356
-0.298,-0.005,-0.958,-0.305,176360
-0.298,-0.005,-0.958,-0.244,176365
-0.299,-0.008,-0.958,-0.183,176369
-0.299,-0.008,-0.958,-0.061,176373
-0.299,-0.008,-0.958,-0.061,176377
-0.299,-0.008,-0.958,-0.183,176381
-0.299,-0.008,-0.958,-0.183,176385
-0.298,-0.008,-0.958,-0.061,176389
-0.298,-0.008,-0.958,-0.122,176393
-0.298,-0.008,-0.958,-0.122,176397
-0.297,-0.009,-0.959,-0.244,176401
-0.297,-0.009,-0.959,-0.183,176405
-0.3,-0.012,-0.958,-0.183,176409
-0.3,-0.012,-0.958,-0.244,176413
-0.299,-0.01,-0.958,-0.305,176417
-0.299,-0.01,-0.958,-0.305,176421
-0.299,-0.01,-0.958,-0.305,176425
-0.298,-0.01,-0.958,-0.244,176429
-0.298,-0.01,-0.958,-0.244,176433
-0.298,-0.012,-0.959,-0.305,176437
-0.298,-0.012,-0.959,-0.305,176441
-0.298,-0.012,-0.959,-0.244,176445
-0.297,-0.012,-0.959,-0.183,176449
-0.297,-0.012,-0.959,-0.305,176453
-0.297,-0.011,-0.958,-0.305,176457
-0.297,-0.011,-0.958,-0.305,176461
-0.297,-0.011,-0.958,-0.183,176465
-0.297,-0.011,-0.958,-0.061,176469
-0.297,-0.011,-0.958,-0.244,176473
-0.298,-0.01,-0.957,-0.183,176478
-0.298,-0.01,-0.957,-0.244,176482
-0.298,-0.01,-0.957,-0.244,176486
-0.299,-0.009,-0.959,-0.183,176490
-0.299,-0.009,-0.959,-0.122,176494
-0.296,-0.01,-0.959,-0.122,176498
-0.296,-0.01,-0.959,-0.183,176502
-0.296,-0.01,-0.959,-0.183,176506
-0.298,-0.007,-0.959,-0.244,176510
-0.298,-0.007,-0.959,-0.122,176514
-0.299,-0.007,-0.959,-0.183,176518
-0.299,-0.007,-0.959,-0.122,176522
-0.297,-0.006,-0.958,-0.122,176526
-0.297,-0.006,-0.958,-0.122,176530
-0.297,-0.006,-0.958,-0.244,176534
-0.297,-0.006,-0.958,-0.183,176538
-0.297,-0.006,-0.958,-0.122,176542
-0.299,-0.005,-0.958,-0.061,176546
-0.299,-0.005,-0.958,-0.061,176550
-0.299,-0.005,-0.958,-0.183,176554
-0.297,-0.004,-0.959,-0.183,176558
-0.297,-0.004,-0.959,-0.183,176562
-0.297,-0.004,-0.958,-0.244,176566
-0.297,-0.004,-0.958,-0.244,176570
-0.297,-0.004,-0.958,-0.305,176574
-0.298,-0.004,-0.959,-0.061,176578
-0.298,-0.004,-0.959,-0.122,176582
-0.296,-0.005,-0.958,-0.183,176586
-0.296,-0.005,-0.958,-0.183,176590
-0.296,-0.005,-0.958,-0.183,176594
-0.296,-0.004,-0.959,-0.244,176599
-0.296,-0.004,-0.959,-0.122,176603
-0.297,-0.006,-0.959,-0.183,176607
-0.297,-0.006,-0.959,-0.305,176611
-0.297,-0.006,-0.959,-0.305,176615
-0.297,-0.005,-0.958,-0.244,176619
-0.297,-0.005,-0.958,-0.244,176623
-0.296,-0.006,-0.959,-0.183,176627
-0.296,-0.006,-0.959,-0.061,176631
-0.296,-0.006,-0.959,-0.061,176635
-0.297,-0.009,-0.958,-0.122,176639
-0.297,-0.009,-0.958,-0.244,176643
-0.297,-0.01,-0.958,-0.244,176647
-0.297,-0.01,-0.958,-0.305,176651
-0.299,-0.01,-0.958,-0.305,176655
-0.299,-0.01,-0.958,-0.305,176659
-0.299,-0.01,-0.958,-0.183,176663
-0.298,-0.01,-0.958,-0.244,176667
-0.298,-0.01,-0.958,-0.305,176671
-0.299,-0.01,-0.959,-0.183,176675
-0.299,-0.01,-0.959,-0.183,176679
-0.299,-0.01,-0.959,-0.183,176683
-0.299,-0.013,-0.957,-0.244,176687
-0.299,-0.013,-0.957,-0.366,176691
-0.299,-0.012,-0.958,-0.366,176695
-0.299,-0.012,-0.958,-0.366,176699
-0.299,-0.012,-0.958,-0.183,176704
-0.298,-0.012,-0.958,-0.183,176708
-0.298,-0.012,-0.958,-0.244,176712
-0.297,-0.011,-0.958,-0.305,176716
-0.297,-0.011,-0.958,-0.244,176720
-0.297,-0.011,-0.958,-0.244,176724
-0.301,-0.011,-0.957,-0.244,176728
-0.301,-0.011,-0.957,-0.244,176732
-0.299,-0.011,-0.957,-0.183,176736
-0.299,-0.011,-0.957,-0.122,176740
-0.299,-0.011,-0.957,-0.122,176744
-0.3,-0.012,-0.957,-0.305,176748
-0.3,-0.012,-0.957,-0.305,176752
-0.299,-0.011,-0.957,-0.183,176756
-0.299,-0.011,-0.957,-0.183,176760
-0.299,-0.009,-0.957,-0.244,176764
-0.299,-0.009,-0.957,-0.244,176768
-0.299,-0.009,-0.957,-0.244,176772
-0.298,-0.008,-0.958,-0.183,176776
-0.298,-0.008,-0.958,-0.183,176780
-0.302,-0.006,-0.957,-0.122,176784
-0.302,-0.006,-0.957,-0.122,176788
-0.302,-0.006,-0.957,-0.122,176792
-0.301,-0.007,-0.957,-0.244,176796
-0.301,-0.007,-0.957,-0.244,176800
-0.3,-0.006,-0.958,-0.122,176804
-0.3,-0.006,-0.958,-0.122,176808
-0.3,-0.006,-0.958,-0.122,176812
-0.3,-0.006,-0.958,-0.183,176817
-0.3,-0.006,-0.958,-0.305,176821
-0.302,-0.006,-0.957,0.0,176825
-0.302,-0.006,-0.957,-0.061,176829
-0.302,-0.006,-0.957,-0.061,176833
-0.3,-0.005,-0.959,-0.183,176837
-0.3,-0.005,-0.959,-0.183,176841
-0.299,-0.005,-0.958,-0.183,176845
-0.299,-0.005,-0.958,-0.244,176849
-0.299,-0.005,-0.958,-0.244,176853
-0.298,-0.006,-0.957,-0.366,176857
-0.298,-0.006,-0.957,-0.183,176861
-0.297,-0.005,-0.958,-0.122,176865
-0.297,-0.005,-0.958,-0.183,176869
-0.297,-0.005,-0.958,-0.183,176873
-0.296,-0.007,-0.958,-0.244,176877
-0.296,-0.007,-0.958,-0.122,176881
-0.296,-0.009,-0.96,-0.122,176885
-0.296,-0.009,-0.96,-0.183,176889
-0.297,-0.007,-0.96,-0.183,176893
-0.297,-0.007,-0.96,-0.183,176897
-0.297,-0.007,-0.96,-0.244,176901
-0.295,-0.008,-0.96,-0.244,176905
-0.295,-0.008,-0.96,-0.244,176909
-0.294,-0.01,-0.961,-0.305,176913
-0.294,-0.01,-0.961,-0.305,176917
-0.294,-0.01,-0.961,-0.366,176921
-0.295,-0.008,-0.959,-0.183,176925
-0.295,-0.008,-0.959,0.0,176929
-0.295,-0.008,-0.96,-0.183,176933
-0.295,-0.008,-0.96,-0.183,176937
-0.295,-0.008,-0.96,-0.305,176941
-0.295,-0.01,-0.961,-0.366,176945
-0.295,-0.01,-0.961,-0.183,176949
-0.295,-0.01,-0.962,-0.122,176953
-0.295,-0.01,-0.962,-0.183,176958
-0.295,-0.01,-0.962,-0.183,176962
-0.295,-0.012,-0.958,-0.122,176966
-0.295,-0.012,-0.958,-0.061,176970
-0.296,-0.01,-0.96,-0.183,176974
-0.296,-0.01,-0.96,-0.305,176978
-0.296,-0.01,-0.96,-0.305,176982
-0.297,-0.01,-0.958,-0.305,176986
-0.297,-0.01,-0.958,-0.244,176990
-0.297,-0.01,-0.959,-0.183,176994
-0.297,-0.01,-0.959,-0.122,176998
-0.297,-0.01,-0.959,-0.122,177002
-0.298,-0.007,-0.959,-0.122,177006
-0.298,-0.007,-0.959,-0.244,177010
-0.298,-0.007,-0.957,-0.244,177014
-0.298,-0.007,-0.957,-0.122,177018
-0.3,-0.008,-0.958,-0.244,177022
-0.3,-0.008,-0.958,-0.244,177026
-0.3,-0.008,-0.958,-0.122,177030
-0.3,-0.007,-0.957,-0.183,177034
-0.3,-0.007,-0.957,-0.122,177038
-0.3,-0.007,-0.958,-0.305,177042
-0.3,-0.007,-0.958,-0.305,177046
-0.3,-0.007,-0.958,-0.183,177050
-0.3,-0.005,-0.958,-0.183,177054
-0.3,-0.005,-0.958,-0.244,177058
-0.302,-0.006,-0.957,-0.305,177062
-0.302,-0.006,-0.957,-0.305,177066
-0.302,-0.006,-0.957,-0.183,177071
-0.302,-0.007,-0.956,-0.183,177075
-0.302,-0.007,-0.956,-0.244,177079
-0.302,-0.006,-0.955,-0.244,177083
-0.302,-0.006,-0.955,-0.183,177087
-0.302,-0.006,-0.955,-0.183,177091
-0.301,-0.007,-0.958,-0.183,177095
-0.301,-0.007,-0.958,-0.305,177099
-0.301,-0.009,-0.957,-0.244,177103
-0.301,-0.009,-0.957,-0.183,177107
-0.301,-0.009,-0.957,-0.183,177111
-0.299,-0.009,-0.957,-0.183,177115
-0.299,-0.009,-0.957,-0.305,177119
-0.3,-0.009,-0.958,-0.183,177123
-0.3,-0.009,-0.958,-0.122,177127
-0.259,-0.019,-0.977,-0.366,177131
-0.259,-0.019,-0.977,-0.366,177135
-0.259,-0.019,-0.977,39.795,177139
0.111,-0.038,-1.076,138.0,177143
0.111,-0.038,-1.076,112.976,177147
-0.538,-0.039,-0.891,66.04,177151
-0.538,-0.039,-0.891,66.04,177155
-0.538,-0.039,-0.891,31.982,177159
-0.154,-0.011,-0.99,59.753,177163
-0.154,-0.011,-0.99,58.228,177167
-0.264,-0.081,-0.959,85.876,177172
-0.264,-0.081,-0.959,85.876,177176
-0.264,-0.081,-0.959,102.6,177180
-0.327,-0.02,-0.977,84.351,177184
-0.327,-0.02,-0.977,81.238,177188
-0.274,-0.001,-0.956,65.186,177192
-0.274,-0.001,-0.956,53.894,177196
-0.274,-0.001,-0.956,53.894,177200
-0.297,-0.002,-0.959,44.189,177204
-0.297,-0.002,-0.959,36.072,177208
-0.404,0.032,-0.936,49.805,177212
-0.404,0.032,-0.936,87.158,177216
-0.404,0.032,-0.936,87.158,177220
-0.242,0.073,-0.989,92.041,177224
-0.242,0.073,-0.989,73.181,177228
-0.267,-0.09,-0.967,44.678,177232
-0.267,-0.09,-0.967,24.475,177236
-0.283,0.012,-0.952,33.752,177240
-0.283,0.012,-0.952,33.752,177244
-0.283,0.012,-0.952,62.256,177248
-0.295,0.039,-0.985,77.393,177252
-0.295,0.039,-0.985,68.054,177257
-0.277,0.041,-0.972,62.134,177261
-0.277,0.041,-0.972,62.134,177265
-0.277,0.041,-0.972,78.796,177269
-0.291,0.052,-0.968,98.877,177273
-0.291,0.052,-0.968,103.333,177277
-0.312,-0.012,-0.939,91.614,177281
-0.312,-0.012,-0.939,109.253,177285
-0.312,-0.012,-0.939,109.253,177289
-0.294,-0.01,-0.96,101.44,177293
-0.294,-0.01,-0.96,77.332,177297
-0.335,-0.068,-0.955,78.43,177301
-0.335,-0.068,-0.955,98.389,177305
-0.335,-0.068,-0.955,98.389,177309
-0.313,-0.01,-0.946,115.112,177313
-0.313,-0.01,-0.946,130.188,177317
-0.33,-0.031,-0.962,122.681,177321
-0.33,-0.031,-0.962,116.272,177326
-0.303,0.069,-0.978,120.3,177330
-0.303,0.069,-0.978,120.3,177334
-0.303,0.069,-0.978,112.366,177338
-0.314,0.011,-1.042,112.0,177342
-0.314,0.011,-1.042,116.394,177346
-0.299,-0.017,-1.18,108.582,177350
-0.299,-0.017,-1.18,108.582,177354
-0.299,-0.017,-1.18,110.352,177358
-0.315,-0.017,-1.09,105.591,177362
-0.315,-0.017,-1.09,115.906,177366
-0.568,-0.08,-0.823,97.778,177370
-0.568,-0.08,-0.823,6.531,177374
-0.568,-0.08,-0.823,6.531,177378
-0.458,-0.001,-0.95,-6.104,177382
-0.458,-0.001,-0.95,-15.686,177386
-0.364,-0.056,-1.038,-27.527,177390
-0.364,-0.056,-1.038,-12.512,177394
-0.364,-0.056,-1.038,-12.512,177398
-0.461,-0.111,-1.037,-2.808,177402
-0.461,-0.111,-1.037,-3.54,177407
-0.491,-0.074,-0.972,-1.465,177411
-0.491,-0.074,-0.972,0.122,177415
-0.491,-0.074,-0.972,0.122,177419
-0.57,-0.167,-0.811,13.245,177423
-0.57,-0.167,-0.811,46.753,177427
-0.688,-0.167,-0.736,92.712,177431
-0.688,-0.167,-0.736,105.53,177435
-0.704,0.104,-0.772,121.643,177439
-0.704,0.104,-0.772,121.643,177443
-0.704,0.104,-0.772,139.832,177447
-0.688,0.104,-0.844,150.208,177451
-0.688,0.104,-0.844,220.154,177455
-0.773,-0.184,-0.554,220.947,177459
-0.773,-0.184,-0.554,220.947,177463
-0.773,-0.184,-0.554,174.194,177467
-0.862,-0.3,-0.249,154.358,177471
-0.862,-0.3,-0.249,116.577,177475
-0.949,-0.381,-0.469,73.303,177480
-0.949,-0.381,-0.469,50.049,177484
-0.949,-0.381,-0.469,50.049,177488
-0.98,-0.325,-0.637,36.438,177492
-0.98,-0.325,-0.637,14.282,177496
-0.952,-0.343,-1.057,-16.296,177500
-0.952,-0.343,-1.057,-36.804,177504
-0.908,-0.23,-0.979,-48.645,177508
-0.908,-0.23,-0.979,-48.645,177512
-0.908,-0.23,-0.979,-56.274,177516
-0.931,-0.173,-0.29,-56.274,177520
-0.931,-0.173,-0.29,-57.373,177524
-0.896,-0.204,-0.244,-56.946,177528
-0.896,-0.204,-0.244,-56.946,177532
-0.896,-0.204,-0.244,-53.467,177536
-0.904,-0.247,-0.502,-57.922,177540
-0.904,-0.247,-0.502,-68.42,177545
-0.985,-0.311,-0.544,-77.576,177549
-0.985,-0.311,-0.544,-85.327,177553
-0.985,-0.311,-0.544,-85.327,177557
-1.024,-0.353,-0.425,-91.797,177561
-1.024,-0.353,-0.425,-97.717,177565
-1.033,-0.392,-0.38,-106.934,177569
-1.033,-0.392,-0.38,-119.202,177573
-1.033,-0.392,-0.38,-119.202,177577
-1.059,-0.4,-0.508,-130.493,177581
-1.059,-0.4,-0.508,-139.465,177585
-1.037,-0.378,-0.507,-145.752,177589
-1.037,-0.378,-0.507,-151.489,177593
-0.985,-0.391,-0.381,-159.058,177598
-0.985,-0.391,-0.381,-159.058,177602
-0.985,-0.391,-0.381,-166.26,177606
-1.006,-0.376,-0.415,-170.593,177610
-1.006,-0.376,-0.415,-174.744,177614
-1.041,-0.362,-0.494,-184.082,177618
-1.041,-0.362,-0.494,-184.082,177622
-1.041,-0.362,-0.494,-187.195,177626
-1.003,-0.363,-0.514,-185.852,177630
-1.003,-0.363,-0.514,-186.035,177634
-0.921,-0.441,-0.428,-188.416,177638
-0.921,-0.441,-0.428,-193.665,177642
-0.921,-0.441,-0.428,-193.665,177646
-0.861,-0.567,-0.252,-199.768,177650
-0.861,-0.567,-0.252,-205.994,177655
-0.853,-0.624,-0.173,-211.121,177659
-0.853,-0.624,-0.173,-215.576,177663
-0.823,-0.644,-0.152,-219.666,177667
-0.823,-0.644,-0.152,-219.666,177671
-0.823,-0.644,-0.152,-223.633,177675
-0.78,-0.648,-0.125,-227.173,177679
-0.78,-0.648,-0.125,-230.164,177683
-0.722,-0.641,-0.144,-232.788,177687
-0.722,-0.641,-0.144,-232.788,177691
-0.722,-0.641,-0.144,-233.948,177695
-0.664,-0.611,-0.172,-236.084,177699
-0.664,-0.611,-0.172,-237.305,177704
-0.616,-0.596,-0.194,-238.159,177708
-0.616,-0.596,-0.194,-237.0,177712
-0.616,-0.596,-0.194,-237.0,177716
-0.594,-0.593,-0.156,-234.619,177720
-0.594,-0.593,-0.156,-232.361,177724
-0.562,-0.625,-0.134,-230.469,177728
-0.562,-0.625,-0.134,-229.98,177732
-0.516,-0.654,-0.091,-229.187,177736
-0.516,-0.654,-0.091,-229.187,177740
-0.516,-0.654,-0.091,-227.173,177744
-0.49,-0.678,-0.067,-224.67,177748
-0.49,-0.678,-0.067,-224.792,177753
-0.516,-0.769,-0.047,-227.112,177757
-0.516,-0.769,-0.047,-227.112,177761
-0.516,-0.769,-0.047,-229.309,177765
-0.54,-0.802,-0.041,-230.713,177769
-0.54,-0.802,-0.041,-232.849,177773
-0.49,-0.841,-0.002,-236.755,177777
-0.49,-0.841,-0.002,-241.028,177781
-0.49,-0.841,-0.002,-241.028,177785
-0.417,-0.832,0.057,-243.896,177789
-0.417,-0.832,0.057,-247.742,177793
-0.373,-0.809,0.047,-251.404,177797
-0.373,-0.809,0.047,-254.822,177801
-0.373,-0.809,0.047,-254.822,177805
-0.37,-0.766,-0.015,-256.104,177809
-0.37,-0.766,-0.015,-255.615,177814
-0.377,-0.747,-0.043,-254.333,177818
-0.377,-0.747,-0.043,-253.601,177822
-0.344,-0.812,0.04,-254.089,177826
-0.344,-0.812,0.04,-254.089,177830
-0.344,-0.812,0.04,-255.493,177834
-0.31,-0.874,0.161,-257.385,177838
-0.31,-0.874,0.161,-259.521,177842
-0.275,-0.839,0.179,-260.437,177846
-0.275,-0.839,0.179,-260.437,177850
-0.275,-0.839,0.179,-258.362,177854
-0.185,-0.713,0.112,-255.127,177858
-0.185,-0.713,0.112,-245.728,177862
-0.037,-0.539,0.119,-229.431,177866
-0.037,-0.539,0.119,-216.248,177871
-0.037,-0.539,0.119,-216.248,177875
0.116,-0.496,0.163,-204.529,177879
0.116,-0.496,0.163,-195.984,177883
0.195,-0.635,0.319,-188.354,177887
0.195,-0.635,0.319,-177.612,177891
0.207,-0.818,0.525,-174.255,177895
0.207,-0.818,0.525,-174.255,177899
0.207,-0.818,0.525,-175.476,177903
0.213,-0.983,0.715,-179.382,177907
0.213,-0.983,0.715,-181.763,177911
0.169,-0.91,0.71,-183.655,177915
0.169,-0.91,0.71,-183.655,177919
0.169,-0.91,0.71,-182.678,177923
0.138,-0.785,0.574,-181.702,177927
0.138,-0.785,0.574,-176.208,177931
0.192,-0.671,0.469,-166.443,177935
0.192,-0.671,0.469,-166.443,177939
0.192,-0.671,0.469,-158.63,177943
0.282,-0.615,0.468,-150.452,177948
0.282,-0.615,0.468,-138.367,177952
0.358,-0.61,0.573,-128.662,177956
0.358,-0.61,0.573,-121.948,177960
0.358,-0.61,0.573,-121.948,177964
0.407,-0.644,0.656,-115.112,177968
0.407,-0.644,0.656,-109.802,177972
0.407,-0.667,0.692,-105.103,177976
0.407,-0.667,0.692,-105.896,177980
0.407,-0.667,0.692,-105.896,177984
0.384,-0.708,0.727,-111.267,177988
0.384,-0.708,0.727,-118.713,177992
0.443,-0.639,0.772,-125.061,177996
0.443,-0.639,0.772,-119.446,178000
0.475,-0.419,0.725,-96.436,178004
0.475,-0.419,0.725,-96.436,178008
0.475,-0.419,0.725,-88.379,178012
0.348,-0.643,0.659,-91.187,178016
0.348,-0.643,0.659,-91.553,178020
0.372,-0.743,0.717,-96.863,178024
0.372,-0.743,0.717,-96.863,178028
0.372,-0.743,0.717,-90.027,178032
0.354,-0.719,0.684,-82.581,178037
0.354,-0.719,0.684,-85.571,178041
0.276,-0.805,0.706,-92.834,178045
0.276,-0.805,0.706,-88.684,178049
0.276,-0.805,0.706,-88.684,178053
0.384,-0.667,0.703,-83.313,178057
0.384,-0.667,0.703,-84.412,178061
0.524,-0.594,0.76,-98.938,178065
0.524,-0.594,0.76,-100.83,178069
0.524,-0.594,0.76,-100.83,178073
0.634,-0.475,0.77,-78.308,178077
0.634,-0.475,0.77,-57.068,178081
0.726,-0.511,0.823,-49.927,178085
0.726,-0.511,0.823,-45.837,178089
0.726,-0.511,0.823,-45.837,178093
0.639,-0.542,0.822,-39.429,178097
0.639,-0.542,0.822,-35.339,178101
0.548,-0.561,0.742,-31.128,178105
0.548,-0.561,0.742,-25.513,178109
0.577,-0.541,0.71,-20.264,178113
0.577,-0.541,0.71,-20.264,178117
0.577,-0.541,0.71,-15.32,178121
0.633,-0.512,0.735,-8.24,178125
0.633,-0.512,0.735,-0.793,178129
0.609,-0.499,0.735,6.287,178133
0.609,-0.499,0.735,6.287,178137
0.609,-0.499,0.735,14.221,178141
0.53,-0.532,0.694,21.729,178146
0.53,-0.532,0.694,29.602,178150
0.46,-0.594,0.691,38.757,178154
0.46,-0.594,0.691,38.757,178158
0.46,-0.594,0.691,47.424,178162
0.477,-0.593,0.735,57.129,178166
0.477,-0.593,0.735,72.51,178170
0.479,-0.525,0.761,92.163,178174
0.479,-0.525,0.761,115.479,178178
0.479,-0.525,0.761,115.479,178182
0.517,-0.585,0.749,127.686,178186
0.517,-0.585,0.749,137.878,178190
0.559,-0.66,0.805,141.663,178194
0.559,-0.66,0.805,151.611,178198
0.559,-0.66,0.805,151.611,178202
0.511,-0.624,0.875,170.715,178206
0.511,-0.624,0.875,177.673,178210
0.47,-0.678,0.828,190.063,178214
0.47,-0.678,0.828,200.989,178218
0.448,-0.673,0.838,217.896,178222
0.448,-0.673,0.838,217.896,178226
0.448,-0.673,0.838,231.14,178230
0.484,-0.713,0.648,226.624,178234
0.484,-0.713,0.648,232.544,178238
0.441,-0.619,0.566,245.911,178243
0.441,-0.619,0.566,245.911,178247
0.441,-0.619,0.566,256.592,178251
0.408,-0.655,0.461,256.104,178255
0.408,-0.655,0.461,259.338,178259
0.34,-0.692,0.419,266.968,178263
0.34,-0.692,0.419,266.968,178267
0.34,-0.692,0.419,272.583,178271
0.204,-0.745,0.398,273.193,178275
0.204,-0.745,0.398,271.423,178279
0.086,-0.778,0.359,269.409,178283
0.086,-0.778,0.359,267.029,178287
0.086,-0.778,0.359,267.029,178291
0.024,-0.772,0.3,266.296,178295
0.024,-0.772,0.3,265.625,178299
-0.034,-0.779,0.257,263.794,178303
-0.034,-0.779,0.257,262.634,178307
-0.034,-0.779,0.257,262.634,178311
-0.123,-0.822,0.278,262.085,178315
-0.123,-0.822,0.278,261.597,178319
-0.184,-0.877,0.273,260.62,178323
-0.184,-0.877,0.273,261.536,178327
-0.175,-0.891,0.216,261.353,178332
-0.175,-0.891,0.216,261.353,178336
-0.175,-0.891,0.216,258.24,178340
-0.202,-0.813,0.21,258.911,178344
-0.202,-0.813,0.21,262.024,178348
-0.225,-0.684,0.118,268.433,178352
-0.225,-0.684,0.118,268.433,178356
-0.225,-0.684,0.118,281.189,178360
-0.188,-0.608,0.0,296.387,178364
-0.188,-0.608,0.0,308.411,178368
-0.208,-0.582,-0.001,315.918,178372
-0.208,-0.582,-0.001,318.359,178376
-0.208,-0.582,-0.001,318.359,178380
-0.268,-0.57,0.008,320.557,178384
-0.268,-0.57,0.008,325.989,178388
-0.356,-0.534,-0.068,328.125,178392
-0.356,-0.534,-0.068,325.317,178396
-0.356,-0.534,-0.068,325.317,178400
-0.468,-0.526,-0.139,321.533,178404
-0.468,-0.526,-0.139,313.538,178408
-0.561,-0.538,-0.16,301.086,178412
-0.561,-0.538,-0.16,292.786,178417
-0.644,-0.489,-0.228,284.973,178421
-0.644,-0.489,-0.228,284.973,178425
-0.644,-0.489,-0.228,274.17,178429
-0.756,-0.46,-0.329,262.634,178433
-0.756,-0.46,-0.329,259.705,178437
-0.852,-0.491,-0.396,251.16,178441
-0.852,-0.491,-0.396,251.16,178445
-0.852,-0.491,-0.396,227.844,178449
-0.969,-0.565,-0.336,204.407,178453
-0.969,-0.565,-0.336,188.049,178457
-1.015,-0.488,-0.42,177.979,178461
-1.015,-0.488,-0.42,164.917,178465
-1.015,-0.488,-0.42,164.917,178469
-1.061,-0.45,-0.476,149.292,178473
-1.061,-0.45,-0.476,137.451,178477
-1.045,-0.35,-0.51,137.817,178481
-1.045,-0.35,-0.51,150.024,178486
-1.045,-0.35,-0.51,150.024,178490
-0.98,-0.325,-0.534,149.414,178494
-0.98,-0.325,-0.534,138.611,178498
-0.928,-0.294,-0.526,148.438,178502
-0.928,-0.294,-0.526,176.514,178506
-0.937,-0.198,-0.495,194.946,178510
-0.937,-0.198,-0.495,194.946,178514
-0.937,-0.198,-0.495,193.848,178518
-0.985,-0.234,-0.574,178.772,178522
-0.985,-0.234,-0.574,153.931,178526
-0.993,-0.231,-0.62,130.005,178530
-0.993,-0.231,-0.62,130.005,178534
-0.993,-0.231,-0.62,119.08,178538
-0.986,-0.117,-0.584,114.258,178542
-0.986,-0.117,-0.584,117.493,178546
-1.032,-0.124,-0.603,110.718,178551
-1.032,-0.124,-0.603,94.604,178555
-1.032,-0.124,-0.603,94.604,178559
-1.143,-0.229,-0.624,75.745,178563
-1.143,-0.229,-0.624,42.053,178567
-1.243,-0.254,-0.655,8.484,178571
-1.243,-0.254,-0.655,-3.418,178575
-1.243,-0.254,-0.655,-3.418,178579
-1.246,-0.164,-0.712,-14.771,178583
-1.246,-0.164,-0.712,-28.442,178587
-1.193,-0.138,-0.751,-41.443,178591
-1.193,-0.138,-0.751,-53.528,178595
-1.193,-0.138,-0.751,-53.528,178599
-1.129,-0.118,-0.738,-64.331,178603
-1.129,-0.118,-0.738,-74.463,178607
-1.125,-0.164,-0.701,-84.717,178611
-1.125,-0.164,-0.701,-95.215,178615
-1.161,-0.194,-0.686,-105.469,178619
-1.161,-0.194,-0.686,-105.469,178623
-1.161,-0.194,-0.686,-116.211,178627
-1.185,-0.22,-0.684,-127.869,178632
-1.185,-0.22,-0.684,-138.611,178636
-1.166,-0.239,-0.667,-148.56,178640
-1.166,-0.239,-0.667,-156.921,178644
-1.166,-0.239,-0.667,-156.921,178648
-1.126,-0.265,-0.633,-164.429,178652
-1.126,-0.265,-0.633,-171.448,178656
-1.11,-0.301,-0.592,-177.307,178660
-1.11,-0.301,-0.592,-181.824,178664
-1.11,-0.301,-0.592,-181.824,178668
-1.093,-0.326,-0.564,-185.608,178672
-1.093,-0.326,-0.564,-189.392,178676
-1.069,-0.342,-0.557,-191.833,178681
-1.069,-0.342,-0.557,-189.453,178685
-1.049,-0.418,-0.529,-192.505,178689
-1.049,-0.418,-0.529,-192.505,178693
-1.049,-0.418,-0.529,-198.242,178697
-1.017,-0.481,-0.447,-201.111,178701
-1.017,-0.481,-0.447,-204.407,178705
-0.96,-0.497,-0.423,-208.374,178709
-0.96,-0.497,-0.423,-208.374,178713
-0.96,-0.497,-0.423,-213.135,178717
-0.9,-0.509,-0.405,-219.238,178721
-0.9,-0.509,-0.405,-226.196,178725
-0.834,-0.493,-0.405,-231.567,178729
-0.834,-0.493,-0.405,-235.413,178734
-0.834,-0.493,-0.405,-235.413,178738
-0.773,-0.486,-0.345,-237.122,178742
-0.773,-0.486,-0.345,-238.159,178746
-0.704,-0.525,-0.272,-239.807,178750
-0.704,-0.525,-0.272,-240.906,178754
-0.614,-0.55,-0.219,-241.15,178758
-0.614,-0.55,-0.219,-241.15,178762
-0.614,-0.55,-0.219,-240.845,178766
-0.507,-0.531,-0.187,-239.136,178770
-0.507,-0.531,-0.187,-235.352,178774
-0.425,-0.546,-0.132,-231.079,178778
-0.425,-0.546,-0.132,-231.079,178783
-0.425,-0.546,-0.132,-229.919,178787
-0.383,-0.591,-0.066,-224.182,178791
-0.383,-0.591,-0.066,-215.82,178795
-0.37,-0.625,-0.038,-210.327,178799
-0.37,-0.625,-0.038,-195.129,178803
-0.37,-0.625,-0.038,-195.129,178807
-0.365,-0.617,-0.019,-179.26,178811
-0.365,-0.617,-0.019,-165.955,178815
-0.35,-0.63,-0.044,-159.485,178819
-0.35,-0.63,-0.044,-156.067,178823
-0.314,-0.684,-0.035,-150.085,178827
-0.314,-0.684,-0.035,-150.085,178831
-0.314,-0.684,-0.035,-143.372,178835
-0.314,-0.747,0.029,-142.212,178840
-0.314,-0.747,0.029,-152.466,178844
-0.368,-0.816,0.042,-165.222,178848
-0.368,-0.816,0.042,-165.222,178852
-0.368,-0.816,0.042,-175.415,178856
-0.422,-0.849,0.067,-188.843,178860
-0.422,-0.849,0.067,-211.914,178864
-0.361,-0.813,0.056,-224.182,178868
-0.361,-0.813,0.056,-221.558,178872
-0.361,-0.813,0.056,-221.558,178876
-0.236,-0.727,0.037,-216.919,178880
-0.236,-0.727,0.037,-209.9,178884
-0.152,-0.774,0.127,-204.468,178888
-0.152,-0.774,0.127,-204.285,178892
-0.152,-0.774,0.127,-204.285,178896
-0.107,-0.806,0.157,-195.312,178900
-0.107,-0.806,0.157,-190.247,178904
-0.098,-0.799,0.171,-193.481,178909
-0.098,-0.799,0.171,-184.631,178913
-0.072,-0.755,0.152,-169.678,178917
-0.072,-0.755,0.152,-169.678,178921
-0.072,-0.755,0.152,-166.443,178925
-0.027,-0.824,0.212,-158.569,178929
-0.027,-0.824,0.212,-149.414,178933
0.005,-0.922,0.39,-148.682,178937
0.005,-0.922,0.39,-148.682,178941
0.005,-0.922,0.39,-142.822,178945
0.056,-0.926,0.404,-134.888,178949
0.056,-0.926,0.404,-131.104,178953
0.026,-0.921,0.357,-125.549,178957
0.026,-0.921,0.357,-117.31,178961
0.026,-0.921,0.357,-117.31,178965
0.045,-0.939,0.402,-109.741,178969
0.045,-0.939,0.402,-103.088,178973
0.113,-0.958,0.464,-95.337,178977
0.113,-0.958,0.464,-86.243,178982
0.113,-0.958,0.464,-86.243,178986
0.184,-0.944,0.502,-76.05,178990
0.184,-0.944,0.502,-64.575,178994
0.245,-0.949,0.539,-51.941,178998
0.245,-0.949,0.539,-39.062,179002
0.245,-0.949,0.539,-39.062,179006
0.303,-0.986,0.58,-27.466,179010
0.303,-0.986,0.58,-16.663,179014
0.321,-1.002,0.609,-6.104,179018
0.321,-1.002,0.609,4.089,179022
0.288,-1.007,0.608,12.878,179026
0.288,-1.007,0.608,12.878,179030
0.288,-1.007,0.608,19.897,179034
0.224,-1.025,0.587,25.635,179038
0.224,-1.025,0.587,30.884,179042
0.177,-0.99,0.587,39.612,179046
0.177,-0.99,0.587,39.612,179050
0.177,-0.99,0.587,45.532,179054
0.179,-0.965,0.497,50.293,179058
0.179,-0.965,0.497,57.007,179062
0.172,-0.905,0.442,65.247,179066
0.172,-0.905,0.442,65.247,179070
0.172,-0.905,0.442,74.707,179074
0.166,-0.865,0.4,86.182,179078
0.166,-0.865,0.4,98.206,179082
0.178,-0.882,0.392,110.168,179086
0.178,-0.882,0.392,120.85,179090
0.178,-0.882,0.392,120.85,179094
0.155,-0.926,0.423,128.174,179098
0.155,-0.926,0.423,135.071,179102
0.091,-0.947,0.453,141.785,179106
0.091,-0.947,0.453,145.996,179111
0.091,-0.947,0.453,145.996,179115
0.006,-0.996,0.424,147.095,179119
0.006,-0.996,0.424,147.705,179123
-0.063,-0.958,0.356,149.658,179127
-0.063,-0.958,0.356,153.015,179131
-0.063,-0.958,0.356,153.015,179135
-0.083,-0.876,0.29,157.776,179139
-0.083,-0.876,0.29,163.086,179143
-0.068,-0.807,0.258,169.922,179147
-0.068,-0.807,0.258,181.335,179151
-0.029,-0.74,0.231,197.205,179155
-0.029,-0.74,0.231,197.205,179159
-0.029,-0.74,0.231,213.623,179163
-0.002,-0.766,0.211,227.6,179167
-0.002,-0.766,0.211,241.15,179171
-0.041,-0.722,0.174,255.676,179175
-0.041,-0.722,0.174,255.676,179179
-0.041,-0.722,0.174,269.043,179183
-0.134,-0.643,0.118,282.166,179187
-0.134,-0.643,0.118,296.326,179191
-0.233,-0.599,0.026,309.021,179196
-0.233,-0.599,0.026,319.031,179200
-0.233,-0.599,0.026,319.031,179204
-0.323,-0.644,-0.022,324.951,179208
-0.323,-0.644,-0.022,327.637,179212
-0.403,-0.675,0.01,329.224,179216
-0.403,-0.675,0.01,329.407,179220
-0.403,-0.675,0.01,329.407,179224
-0.455,-0.684,0.02,326.965,179228
-0.455,-0.684,0.02,320.862,179232
-0.535,-0.726,-0.06,311.157,179236
-0.535,-0.726,-0.06,301.208,179240
-0.65,-0.688,-0.084,299.133,179244
-0.65,-0.688,-0.084,299.133,179248
-0.65,-0.688,-0.084,288.635,179252
-0.787,-0.696,-0.125,275.635,179256
-0.787,-0.696,-0.125,263.55,179260
-0.878,-0.66,-0.197,251.038,179264
-0.878,-0.66,-0.197,251.038,179268
-0.878,-0.66,-0.197,236.389,179273
-0.884,-0.534,-0.281,222.595,179277
-0.884,-0.534,-0.281,224.304,179281
-0.843,-0.368,-0.329,226.685,179285
-0.843,-0.368,-0.329,223.022,179289
-0.843,-0.368,-0.329,223.022,179293
-0.774,-0.329,-0.389,217.285,179297
-0.774,-0.329,-0.389,205.688,179301
-0.753,-0.183,-0.404,209.106,179305
-0.753,-0.183,-0.404,215.637,179309
-0.753,-0.183,-0.404,215.637,179313
-0.775,-0.133,-0.44,214.05,179317
-0.775,-0.133,-0.44,208.618,179321
-0.829,-0.165,-0.457,202.148,179325
-0.829,-0.165,-0.457,194.092,179329
-0.916,-0.17,-0.464,184.204,179334
-0.916,-0.17,-0.464,184.204,179338
-0.916,-0.17,-0.464,171.875,179342
-1.02,-0.169,-0.45,162.292,179346
-1.02,-0.169,-0.45,154.053,179350
-1.123,-0.195,-0.587,145.325,179354
-1.123,-0.195,-0.587,145.325,179358
-1.123,-0.195,-0.587,125.549,179362
-1.24,-0.179,-0.564,111.877,179366
-1.24,-0.179,-0.564,109.741,179370
-1.298,-0.175,-0.555,98.511,179374
-1.298,-0.175,-0.555,86.609,179378
-1.298,-0.175,-0.555,86.609,179382
-1.337,-0.22,-0.599,78.064,179386
-1.337,-0.22,-0.599,68.054,179390
-1.373,-0.231,-0.586,57.556,179394
-1.373,-0.231,-0.586,47.913,179398
-1.373,-0.231,-0.586,47.913,179402
-1.354,-0.22,-0.634,37.231,179407
-1.354,-0.22,-0.634,27.039,179411
-1.267,-0.168,-0.646,19.47,179415
-1.267,-0.168,-0.646,13.855,179419
-1.148,-0.146,-0.607,8.362,179423
-1.148,-0.146,-0.607,8.362,179427
-1.148,-0.146,-0.607,3.418,179431
-1.055,-0.149,-0.527,-0.366,179435
-1.055,-0.149,-0.527,-4.639,179439
-1.0,-0.179,-0.42,-8.606,179443
-1.0,-0.179,-0.42,-8.606,179447
-1.0,-0.179,-0.42,-12.329,179451
-0.959,-0.197,-0.361,-15.991,179455
-0.959,-0.197,-0.361,-19.287,179459
-0.921,-0.19,-0.371,-23.438,179463
-0.921,-0.19,-0.371,-27.893,179467
-0.921,-0.19,-0.371,-27.893,179471
-0.907,-0.176,-0.411,-32.104,179475
-0.907,-0.176,-0.411,-35.461,179479
-0.928,-0.164,-0.445,-38.269,179483
-0.928,-0.164,-0.445,-41.321,179487
-0.928,-0.164,-0.445,-41.321,179491
-0.95,-0.174,-0.458,-43.823,179496
-0.95,-0.174,-0.458,-46.265,179500
-0.972,-0.188,-0.465,-49.072,179504
-0.972,-0.188,-0.465,-51.453,179508
-1.001,-0.222,-0.457,-54.26,179512
-1.001,-0.222,-0.457,-54.26,179516
-1.001,-0.222,-0.457,-57.495,179520
-1.038,-0.248,-0.449,-60.364,179524
-1.038,-0.248,-0.449,-62.988,179528
-1.066,-0.282,-0.458,-66.528,179532
-1.066,-0.282,-0.458,-66.528,179536
-1.066,-0.282,-0.458,-71.96,179540
-1.062,-0.323,-0.445,-77.698,179544
-1.062,-0.323,-0.445,-82.092,179548
-1.022,-0.341,-0.428,-85.999,179552
-1.022,-0.341,-0.428,-85.999,179556
-1.022,-0.341,-0.428,-90.759,179560
-0.978,-0.363,-0.396,-95.52,179564
-0.978,-0.363,-0.396,-99.304,179569
-0.933,-0.365,-0.352,-101.99,179573
-0.933,-0.365,-0.352,-103.394,179577
-0.933,-0.365,-0.352,-103.394,179581
-0.875,-0.367,-0.313,-103.76,179585
-0.875,-0.367,-0.313,-103.638,179589
-0.837,-0.39,-0.274,-104.126,179593
-0.837,-0.39,-0.274,-103.088,179597
-0.804,-0.41,-0.207,-100.708,179601
-0.804,-0.41,-0.207,-100.708,179605
-0.804,-0.41,-0.207,-98.877,179609
-0.768,-0.445,-0.155,-98.45,179613
-0.768,-0.445,-0.155,-98.816,179617
-0.774,-0.422,-0.185,-98.999,179621
-0.774,-0.422,-0.185,-98.999,179625
-0.774,-0.422,-0.185,-98.511,179630
-0.803,-0.372,-0.285,-97.961,179634
-0.803,-0.372,-0.285,-97.107,179638
-0.808,-0.35,-0.363,-95.886,179642
-0.808,-0.35,-0.363,-94.727,179646
-0.808,-0.35,-0.363,-94.727,179650
-0.802,-0.364,-0.36,-93.384,179654
-0.802,-0.364,-0.36,-92.957,179658
-0.812,-0.402,-0.334,-92.834,179662
-0.812,-0.402,-0.334,-93.201,179666
-0.812,-0.402,-0.334,-93.201,179670
-0.822,-0.452,-0.299,-93.811,179674
-0.822,-0.452,-0.299,-93.323,179678
-0.827,-0.505,-0.266,-93.811,179682
-0.827,-0.505,-0.266,-96.008,179686
-0.835,-0.557,-0.265,-98.145,179690
-0.835,-0.557,-0.265,-98.145,179694
-0.835,-0.557,-0.265,-99.487,179698
-0.832,-0.581,-0.275,-101.318,179702
-0.832,-0.581,-0.275,-104.431,179707
-0.854,-0.613,-0.252,-107.666,179711
-0.854,-0.613,-0.252,-107.666,179715
-0.854,-0.613,-0.252,-109.436,179719
-0.909,-0.634,-0.233,-110.779,179723
-0.909,-0.634,-0.233,-113.77,179727
-0.957,-0.666,-0.254,-117.676,179731
-0.957,-0.666,-0.254,-121.277,179735
-0.957,-0.666,-0.254,-121.277,179739
-0.969,-0.661,-0.277,-124.756,179743
-0.969,-0.661,-0.277,-128.235,179747
-0.932,-0.645,-0.278,-131.653,179751
-0.932,-0.645,-0.278,-133.728,179756
-0.932,-0.645,-0.278,-133.728,179760
-0.837,-0.591,-0.285,-134.399,179764
-0.837,-0.591,-0.285,-133.606,179768
-0.732,-0.519,-0.282,-131.226,179772
-0.732,-0.519,-0.282,-127.136,179776
-0.644,-0.495,-0.249,-122.192,179780
-0.644,-0.495,-0.249,-122.192,179784
-0.644,-0.495,-0.249,-116.455,179788
-0.584,-0.516,-0.215,-110.657,179792
-0.584,-0.516,-0.215,-103.638,179796
-0.564,-0.578,-0.177,-97.229,179800
-0.564,-0.578,-0.177,-97.839,179804
-0.564,-0.578,-0.177,-97.839,179809
-0.578,-0.642,-0.117,-96.619,179813
-0.578,-0.642,-0.117,-94.238,179817
-0.592,-0.688,-0.081,-93.811,179821
-0.592,-0.688,-0.081,-95.032,179825
-0.592,-0.688,-0.081,-95.032,179829
-0.589,-0.711,-0.071,-94.849,179833
-0.589,-0.711,-0.071,-93.628,179837
-0.564,-0.704,-0.068,-92.224,179841
-0.564,-0.704,-0.068,-89.417,179845
-0.51,-0.691,-0.034,-84.961,179849
-0.51,-0.691,-0.034,-84.961,179853
-0.51,-0.691,-0.034,-79.529,179857
-0.439,-0.756,0.034,-72.998,179861
-0.439,-0.756,0.034,-67.932,179865
-0.407,-0.842,0.085,-63.416,179869
-0.407,-0.842,0.085,-63.416,179873
-0.407,-0.842,0.085,-61.584,179877
-0.421,-0.893,0.166,-58.472,179881
-0.421,-0.893,0.166,-54.993,179885
-0.415,-0.907,0.164,-52.124,179890
-0.415,-0.907,0.164,-52.124,179894
-0.415,-0.907,0.164,-48.584,179898
-0.37,-0.873,0.114,-44.006,179902
-0.37,-0.873,0.114,-37.415,179906
-0.302,-0.82,0.103,-28.076,179910
-0.302,-0.82,0.103,-20.081,179914
-0.302,-0.82,0.103,-20.081,179918
-0.294,-0.853,0.106,-15.564,179922
-0.294,-0.853,0.106,-10.864,179926
-0.348,-0.863,0.108,-4.517,179930
-0.348,-0.863,0.108,2.075,179934
-0.348,-0.863,0.108,2.075,179938
-0.371,-0.858,0.092,7.141,179942
-0.371,-0.858,0.092,13.184,179946
-0.359,-0.821,0.056,21.118,179950
-0.359,-0.821,0.056,29.846,179954
-0.339,-0.789,0.027,39.368,179958
-0.339,-0.789,0.027,39.368,179962
-0.339,-0.789,0.027,47.668,179966
-0.356,-0.786,0.019,54.871,179970
-0.356,-0.786,0.019,62.134,179974
-0.408,-0.786,-0.022,69.336,179978
-0.408,-0.786,-0.022,69.336,179982
-0.408,-0.786,-0.022,76.05,179986
-0.462,-0.814,-0.063,82.214,179990
-0.462,-0.814,-0.063,86.121,179994
-0.515,-0.84,-0.068,89.111,179999
-0.515,-0.84,-0.068,89.111,180003
-0.515,-0.84,-0.068,92.102,180007
-0.552,-0.822,-0.075,93.75,180011
-0.552,-0.822,-0.075,95.154,180015
-0.557,-0.783,-0.1,98.206,180019
-0.557,-0.783,-0.1,102.905,180023
-0.557,-0.783,-0.1,102.905,180027
-0.551,-0.782,-0.126,107.971,180031
-0.551,-0.782,-0.126,109.192,180035
-0.556,-0.753,-0.115,111.877,180039
-0.556,-0.753,-0.115,116.638,180043
-0.556,-0.753,-0.115,116.638,180047
-0.572,-0.727,-0.098,117.004,180051
-0.572,-0.727,-0.098,118.164,180055
-0.577,-0.705,-0.101,120.728,180059
-0.577,-0.705,-0.101,120.483,180063
-0.629,-0.707,-0.109,120.056,180067
-0.629,-0.707,-0.109,120.056,180071
-0.629,-0.707,-0.109,120.972,180076
-0.709,-0.718,-0.115,120.117,180080
-0.709,-0.718,-0.115,116.333,180084
-0.772,-0.732,-0.124,113.77,180088
-0.772,-0.732,-0.124,113.77,180092
-0.772,-0.732,-0.124,110.596,180096
-0.817,-0.713,-0.154,106.14,180100
-0.817,-0.713,-0.154,106.323,180104
-0.836,-0.663,-0.275,101.135,180108
-0.836,-0.663,-0.275,97.595,180112
-0.836,-0.663,-0.275,97.595,180116
-0.884,-0.625,-0.185,95.703,180120
-0.884,-0.625,-0.185,94.421,180124
-0.916,-0.619,-0.202,91.736,180128
-0.916,-0.619,-0.202,88.135,180132
-0.916,-0.619,-0.202,88.135,180136
-0.928,-0.609,-0.241,84.656,180140
-0.928,-0.609,-0.241,81.97,180145
-0.924,-0.57,-0.242,80.017,180149
-0.924,-0.57,-0.242,78.247,180153
-0.921,-0.546,-0.236,76.904,180157
-0.921,-0.546,-0.236,76.904,180161
-0.921,-0.546,-0.236,73.853,180165
-0.897,-0.52,-0.229,71.533,180169
-0.897,-0.52,-0.229,70.74,180173
-0.85,-0.492,-0.21,70.862,180177
-0.85,-0.492,-0.21,70.862,180181
-0.85,-0.492,-0.21,71.106,180185
-0.829,-0.51,-0.206,70.862,180189
-0.829,-0.51,-0.206,69.885,180193
-0.817,-0.498,-0.197,68.42,180197
-0.817,-0.498,-0.197,66.833,180201
-0.817,-0.498,-0.197,66.833,180205
-0.827,-0.482,-0.204,64.819,180209
-0.827,-0.482,-0.204,64.148,180213
-0.835,-0.441,-0.235,64.819,180217
-0.835,-0.441,-0.235,65.491,180221
-0.835,-0.441,-0.235,65.491,180225
-0.823,-0.445,-0.244,66.04,180229
-0.823,-0.445,-0.244,65.735,180234
-0.84,-0.476,-0.226,64.697,180238
-0.84,-0.476,-0.226,64.636,180242
-0.84,-0.476,-0.226,64.636,180246
-0.891,-0.501,-0.23,64.636,180250
-0.891,-0.501,-0.23,62.5,180254
-0.925,-0.514,-0.251,58.655,180258
-0.925,-0.514,-0.251,54.993,180262
-0.948,-0.443,-0.276,53.833,180266
-0.948,-0.443,-0.276,53.833,180270
-0.948,-0.443,-0.276,54.688,180274
-0.958,-0.355,-0.327,59.326,180278
-0.958,-0.355,-0.327,61.218,180282
-0.947,-0.374,-0.333,53.589,180286
-0.947,-0.374,-0.333,53.589,180290
-0.947,-0.374,-0.333,53.833,180294
-0.919,-0.337,-0.327,60.425,180298
-0.919,-0.337,-0.327,59.753,180302
-0.878,-0.35,-0.301,61.707,180306
-0.878,-0.35,-0.301,63.843,180311
-0.878,-0.35,-0.301,63.843,180315
-0.855,-0.369,-0.278,65.979,180319
-0.855,-0.369,-0.278,65.857,180323
-0.867,-0.389,-0.228,61.646,180327
-0.867,-0.389,-0.228,64.087,180331
-0.867,-0.389,-0.228,64.087,180335
-0.9,-0.358,-0.23,66.406,180339
-0.9,-0.358,-0.23,63.782,180343
-0.96,-0.349,-0.311,64.148,180347
-0.96,-0.349,-0.311,62.317,180351
-0.96,-0.348,-0.4,56.824,180355
-0.96,-0.348,-0.4,56.824,180359
-0.96,-0.348,-0.4,47.363,180363
-0.943,-0.28,-0.375,47.119,180367
-0.943,-0.28,-0.375,49.133,180371
-0.964,-0.26,-0.294,50.964,180375
-0.964,-0.26,-0.294,50.964,180379
-0.964,-0.26,-0.294,52.246,180383
-0.963,-0.315,-0.309,49.866,180387
-0.963,-0.315,-0.309,44.556,180391
-0.946,-0.326,-0.364,37.903,180395
-0.946,-0.326,-0.364,37.903,180399
-0.946,-0.326,-0.364,39.49,180403
-0.938,-0.195,-0.349,47.546,180408
-0.938,-0.195,-0.349,53.955,180412
-0.891,-0.211,-0.41,51.086,180416
-0.891,-0.211,-0.41,47.852,180420
-0.891,-0.211,-0.41,47.852,180424
-0.869,-0.147,-0.478,56.274,180428
-0.869,-0.147,-0.478,65.674,180432
-0.886,-0.179,-0.417,75.195,180436
-0.886,-0.179,-0.417,79.468,180440
-0.886,-0.179,-0.417,79.468,180444
-0.875,-0.228,-0.419,86.792,180448
-0.875,-0.228,-0.419,101.562,180452
-0.876,-0.165,-0.296,122.559,180456
-0.876,-0.165,-0.296,143.616,180460
-0.888,-0.152,-0.201,164.062,180464
-0.888,-0.152,-0.201,164.062,180468
-0.888,-0.152,-0.201,166.687,180473
-0.8,-0.232,-0.177,114.807,180477
-0.8,-0.232,-0.177,67.017,180481
-0.972,-0.217,-0.387,81.177,180485
-0.972,-0.217,-0.387,81.177,180489
-0.972,-0.217,-0.387,86.792,180493
-1.112,-0.362,-0.55,76.66,180497
-1.112,-0.362,-0.55,58.655,180501
-1.012,-0.371,-0.324,45.654,180505
-1.012,-0.371,-0.324,44.128,180509
-1.012,-0.371,-0.324,44.128,180513
-0.952,-0.243,-0.24,42.297,180517
-0.952,-0.243,-0.24,38.94,180521
-0.945,-0.226,-0.358,36.743,180525
-0.945,-0.226,-0.358,37.659,180529
-0.945,-0.226,-0.358,37.659,180533
-0.892,-0.172,-0.42,36.621,180537
-0.892,-0.172,-0.42,34.973,180541
-0.84,-0.15,-0.43,34.851,180545
-0.84,-0.15,-0.43,37.598,180549
-0.843,-0.18,-0.451,37.415,180554
-0.843,-0.18,-0.451,37.415,180558
-0.843,-0.18,-0.451,35.767,180562
-0.839,-0.196,-0.463,31.433,180566
-0.839,-0.196,-0.463,33.569,180570
-0.868,-0.146,-0.417,34.912,180574
-0.868,-0.146,-0.417,34.912,180578
-0.868,-0.146,-0.417,36.011,180582
-0.886,-0.176,-0.416,34.058,180586
-0.886,-0.176,-0.416,34.058,180590
-0.907,-0.189,-0.402,33.142,180594
-0.907,-0.189,-0.402,32.715,180598
-0.907,-0.189,-0.402,32.715,180602
-0.903,-0.19,-0.377,31.372,180606
-0.903,-0.19,-0.377,29.602,180610
-0.889,-0.19,-0.419,27.466,180614
-0.889,-0.19,-0.419,25.696,180618
-0.889,-0.19,-0.419,25.696,180622
-0.872,-0.178,-0.438,25.024,180626
-0.872,-0.178,-0.438,39.368,180630
-0.887,-0.215,-0.905,64.697,180634
-0.887,-0.215,-0.905,15.503,180638
-0.924,-0.191,-0.429,12.329,180643
-0.924,-0.191,-0.429,12.329,180647
-0.924,-0.191,-0.429,18.738,180651
-0.982,-0.1,-0.378,30.762,180655
-0.982,-0.1,-0.378,26.245,180659
-0.927,-0.135,-0.593,25.085,180663
-0.927,-0.135,-0.593,25.085,180667
-0.927,-0.135,-0.593,16.846,180671
-0.872,-0.116,-0.557,14.587,180675
-0.872,-0.116,-0.557,14.343,180679
-0.757,-0.051,-0.575,16.479,180683
-0.757,-0.051,-0.575,16.479,180687
-0.757,-0.051,-0.575,28.442,180691
-0.704,0.012,-0.593,44.678,180695
-0.704,0.012,-0.593,65.735,180699
-0.59,0.036,-0.568,78.674,180703
-0.59,0.036,-0.568,94.666,180707
-0.59,0.036,-0.568,94.666,180711
-0.716,0.028,-0.679,116.089,180715
-0.716,0.028,-0.679,59.937,180719
-0.887,-0.23,-0.857,5.676,180723
-0.887,-0.23,-0.857,-30.212,180727
-0.887,-0.23,-0.857,-30.212,180731
-0.887,-0.085,-0.639,-28.32,180736
-0.887,-0.085,-0.639,-19.897,180740
-0.798,0.041,-0.686,-15.381,180744
-0.798,0.041,-0.686,-15.137,180748
-0.873,0.057,-0.701,-23.621,180752
-0.873,0.057,-0.701,-23.621,180756
-0.873,0.057,-0.701,-14.526,180760
-0.773,-0.025,-0.726,-6.836,180764
-0.773,-0.025,-0.726,-3.296,180768
-0.704,-0.017,-0.687,-2.93,180772
-0.704,-0.017,-0.687,-2.93,180776
-0.704,-0.017,-0.687,-5.31,180780
-0.72,-0.004,-0.691,-4.944,180784
-0.72,-0.004,-0.691,-6.775,180788
-0.752,0.017,-0.688,-15.747,180792
-0.752,0.017,-0.688,-15.747,180796
-0.752,0.017,-0.688,-20.691,180800
-0.747,0.021,-0.713,-25.94,180804
-0.747,0.021,-0.713,-33.081,180808
-0.644,-0.053,-0.752,-21.851,180812
-0.644,-0.053,-0.752,-8.118,180816
-0.644,-0.053,-0.752,-8.118,180820
-0.625,-0.058,-0.7,-0.488,180824
-0.625,-0.058,-0.7,3.601,180828
-0.66,0.021,-0.648,-4.272,180832
-0.66,0.021,-0.648,-24.597,180836
-0.66,0.021,-0.648,-24.597,180841
-0.625,0.208,-0.692,-71.655,180845
-0.625,0.208,-0.692,-100.891,180849
-0.749,-0.049,-0.708,-87.524,180853
-0.749,-0.049,-0.708,-68.848,180857
-0.785,-0.154,-0.729,-40.527,180861
-0.785,-0.154,-0.729,-40.527,180865
-0.785,-0.154,-0.729,-27.405,180869
-0.682,-0.027,-0.745,-25.085,180873
-0.682,-0.027,-0.745,-26.123,180877
-0.659,0.049,-0.769,-31.372,180881
-0.659,0.049,-0.769,-31.372,180885
-0.659,0.049,-0.769,-38.696,180889
-0.628,0.043,-0.767,-46.509,180893
-0.628,0.043,-0.767,-50.659,180897
-0.661,0.087,-0.748,-54.321,180901
-0.661,0.087,-0.748,-54.321,180905
-0.661,0.087,-0.748,-48.645,180909
-0.643,0.232,-0.75,-44.617,180913
-0.643,0.232,-0.75,-43.091,180917
-0.445,0.322,-0.725,-62.134,180921
-0.445,0.322,-0.725,-82.947,180926
-0.445,0.322,-0.725,-82.947,180930
-0.471,0.206,-0.706,-118.896,180934
-0.471,0.206,-0.706,-162.415,180938
-0.236,0.102,-0.498,-190.552,180942
-0.236,0.102,-0.498,-281.433,180946
-0.236,0.102,-0.498,-281.433,180950
-0.219,-0.037,-0.335,-363.586,180954
-0.219,-0.037,-0.335,-412.476,180958
-0.252,0.0,-0.625,-413.452,180962
-0.252,0.0,-0.625,-399.353,180966
-0.789,-0.186,-1.902,-311.218,180970
-0.789,-0.186,-1.902,-311.218,180974
-0.789,-0.186,-1.902,-209.656,180978
-0.499,-0.166,-1.416,-30.334,180982
-0.499,-0.166,-1.416,85.51,180986
-0.094,-0.146,-1.075,118.958,180990
-0.094,-0.146,-1.075,118.958,180995
-0.094,-0.146,-1.075,230.408,180999
-0.432,0.02,-0.029,233.398,181003
-0.432,0.02,-0.029,26.733,181007
-0.465,-0.183,-1.039,-41.626,181011
-0.465,-0.183,-1.039,-49.072,181015
-0.465,-0.183,-1.039,-49.072,181019
-0.238,-0.105,-1.405,-49.866,181023
-0.238,-0.105,-1.405,-15.93,181027
-0.08,-0.109,-0.948,-26.794,181031
-0.08,-0.109,-0.948,-23.499,181035
-0.08,-0.109,-0.948,-23.499,181039
-0.213,-0.062,-0.771,5.432,181043
-0.213,-0.062,-0.771,-12.207,181047
-0.377,-0.109,-1.115,0.671,181051
-0.377,-0.109,-1.115,23.621,181055
-0.297,-0.112,-0.878,8.606,181059
-0.297,-0.112,-0.878,8.606,181063
-0.297,-0.112,-0.878,-4.272,181067
-0.336,-0.129,-0.963,-1.221,181071
-0.336,-0.129,-0.963,-3.723,181075
-0.288,-0.013,-0.972,-0.183,181079
-0.288,-0.013,-0.972,-0.183,181083
-0.288,-0.013,-0.972,0.061,181087
-0.292,0.008,-0.96,-0.244,181091
-0.292,0.008,-0.96,-0.244,181095
-0.291,-0.005,-0.961,-0.305,181100
-0.291,-0.005,-0.961,-0.305,181104
-0.291,-0.005,-0.961,-0.305,181108
-0.293,-0.004,-0.963,-0.244,181112
-0.293,-0.004,-0.963,-0.183,181116
-0.294,-0.001,-0.96,-0.305,181120
-0.294,-0.001,-0.96,-0.305,181124
-0.294,-0.001,-0.96,-0.305,181128
-0.296,-0.001,-0.96,-0.244,181132
-0.296,-0.001,-0.96,-0.427,181136
-0.297,-0.003,-0.958,-0.366,181140
-0.297,-0.003,-0.958,-0.305,181144
-0.297,-0.003,-0.958,-0.305,181148
-0.299,-0.003,-0.959,-0.305,181152
-0.299,-0.003,-0.959,-0.305,181156
-0.299,-0.005,-0.957,-0.305,181160
-0.299,-0.005,-0.957,-0.366,181164
-0.299,-0.005,-0.957,-0.366,181168
-0.3,-0.003,-0.956,-0.244,181172
-0.3,-0.003,-0.956,-0.244,181176
-0.3,-0.005,-0.956,-0.244,181180
-0.3,-0.005,-0.956,-0.244,181184
-0.3,-0.005,-0.956,-0.244,181188
-0.303,-0.007,-0.957,-0.305,181192
-0.303,-0.007,-0.957,-0.244,181196
-0.304,-0.007,-0.957,-0.183,181200
-0.304,-0.007,-0.957,-0.366,181204
-0.303,-0.007,-0.957,-0.366,181208
-0.303,-0.007,-0.957,-0.366,181212
-0.303,-0.007,-0.957,-0.305,181216
-0.302,-0.006,-0.956,-0.305,181220
-0.302,-0.006,-0.956,-0.183,181224
-0.302,-0.009,-0.956,-0.122,181228
-0.302,-0.009,-0.956,-0.122,181232
-0.302,-0.009,-0.956,-0.183,181236
-0.303,-0.008,-0.956,-0.061,181240
-0.303,-0.008,-0.956,-0.061,181244
-0.303,-0.008,-0.955,-0.122,181248
-0.303,-0.008,-0.955,-0.122,181252
-0.303,-0.008,-0.955,-0.183,181256
-0.302,-0.007,-0.956,-0.061,181260
-0.302,-0.007,-0.956,-0.244,181264
-0.302,-0.008,-0.957,-0.244,181269
-0.302,-0.008,-0.957,-0.244,181273
-0.302,-0.008,-0.957,-0.244,181277
-0.301,-0.006,-0.958,-0.122,181281
-0.301,-0.006,-0.958,-0.122,181285
-0.299,-0.006,-0.957,-0.122,181289
-0.299,-0.006,-0.957,-0.122,181293
-0.299,-0.006,-0.957,-0.122,181297
-0.299,-0.005,-0.957,-0.183,181301
-0.299,-0.005,-0.957,-0.183,181305
-0.299,-0.003,-0.959,-0.305,181309
-0.299,-0.003,-0.959,-0.122,181313
-0.299,-0.003,-0.959,-0.122,181317
-0.298,-0.005,-0.961,-0.061,181321
-0.298,-0.005,-0.961,-0.183,181325
-0.298,-0.004,-0.96,-0.183,181329
-0.298,-0.004,-0.96,-0.183,181333
-0.294,-0.003,-0.96,-0.244,181337
-0.294,-0.003,-0.96,-0.244,181341
-0.294,-0.003,-0.96,-0.183,181345
-0.296,-0.003,-0.961,-0.061,181349
-0.296,-0.003,-0.961,-0.183,181353
-0.293,-0.003,-0.961,-0.305,181357
-0.293,-0.003,-0.961,-0.305,181361
-0.293,-0.003,-0.961,-0.244,181365
-0.292,-0.003,-0.96,-0.305,181369
-0.292,-0.003,-0.96,-0.122,181373
-0.293,-0.003,-0.96,-0.183,181377
-0.293,-0.003,-0.96,-0.183,181381
-0.293,-0.003,-0.96,-0.305,181385
-0.292,-0.004,-0.962,-0.305,181389
-0.292,-0.004,-0.962,-0.244,181393
-0.292,-0.003,-0.962,-0.244,181397
-0.292,-0.003,-0.962,-0.244,181401
-0.292,-0.003,-0.962,-0.366,181405
-0.294,-0.003,-0.962,-0.244,181409
-0.294,-0.003,-0.962,-0.061,181413
-0.294,-0.006,-0.961,-0.122,181417
-0.294,-0.006,-0.961,-0.244,181421
-0.294,-0.006,-0.961,-0.244,181425
-0.294,-0.005,-0.961,-0.183,181429
-0.294,-0.005,-0.961,-0.183,181433
-0.293,-0.006,-0.961,-0.183,181437
-0.293,-0.006,-0.961,-0.244,181441
-0.293,-0.006,-0.961,-0.244,181445
-0.294,-0.006,-0.961,-0.305,181449
-0.294,-0.006,-0.961,-0.305,181453
-0.296,-0.006,-0.96,-0.183,181457
-0.296,-0.006,-0.96,-0.183,181461
-0.296,-0.006,-0.96,-0.183,181466
-0.297,-0.009,-0.959,-0.244,181470
-0.297,-0.009,-0.959,-0.183,181474
-0.298,-0.007,-0.959,-0.366,181478
-0.298,-0.007,-0.959,-0.366,181482
-0.298,-0.007,-0.959,-0.366,181486
-0.298,-0.006,-0.959,-0.244,181490
-0.298,-0.006,-0.959,-0.122,181494
-0.3,-0.008,-0.957,-0.244,181498
-0.3,-0.008,-0.957,-0.244,181502
-0.3,-0.007,-0.957,-0.244,181506
-0.3,-0.007,-0.957,-0.244,181510
-0.3,-0.007,-0.957,-0.305,181514
-0.3,-0.007,-0.956,-0.366,181518
-0.3,-0.007,-0.956,-0.122,181522
-0.302,-0.007,-0.954,-0.244,181526
-0.302,-0.007,-0.954,-0.244,181530
-0.302,-0.007,-0.954,-0.183,181534
-0.303,-0.007,-0.955,-0.183,181538
-0.303,-0.007,-0.955,-0.183,181542
-0.303,-0.007,-0.957,-0.122,181546
-0.303,-0.007,-0.957,-0.122,181550
-0.303,-0.007,-0.957,-0.305,181554
-0.304,-0.007,-0.957,-0.122,181558
-0.304,-0.007,-0.957,-0.183,181562
-0.303,-0.006,-0.956,-0.183,181566
-0.303,-0.006,-0.956,-0.122,181570
-0.303,-0.006,-0.956,-0.122,181574
-0.302,-0.004,-0.956,-0.244,181578
-0.302,-0.004,-0.956,-0.305,181582
-0.302,-0.005,-0.957,-0.366,181586
-0.302,-0.005,-0.957,-0.122,181590
-0.302,-0.005,-0.957,-0.122,181594
-0.302,-0.003,-0.957,0.0,181598
-0.302,-0.003,-0.957,-0.183,181602
-0.3,-0.002,-0.956,-0.244,181606
-0.3,-0.002,-0.956,-0.183,181610
-0.3,-0.002,-0.956,-0.183,181614
-0.3,-0.002,-0.957,-0.244,181618
-0.3,-0.002,-0.957,-0.183,181622
-0.3,-0.004,-0.958,-0.183,181626
-0.3,-0.004,-0.958,-0.244,181630
-0.3,-0.004,-0.958,-0.244,181634
-0.299,-0.004,-0.959,-0.244,181638
-0.299,-0.004,-0.959,-0.183,181642
-0.297,-0.005,-0.958,-0.244,181646
-0.297,-0.005,-0.958,-0.183,181650
-0.297,-0.004,-0.958,-0.244,181654
-0.297,-0.004,-0.958,-0.244,181658
-0.297,-0.004,-0.958,-0.183,181662
-0.297,-0.005,-0.96,-0.122,181667
-0.297,-0.005,-0.96,-0.122,181671
-0.295,-0.007,-0.961,-0.244,181675
-0.295,-0.007,-0.961,-0.244,181679
-0.295,-0.007,-0.961,-0.244,181683
-0.296,-0.006,-0.96,-0.244,181687
-0.296,-0.006,-0.96,-0.244,181691
-0.295,-0.006,-0.958,-0.183,181695
-0.295,-0.006,-0.958,-0.183,181699
-0.295,-0.006,-0.958,-0.122,181703
-0.293,-0.007,-0.959,-0.061,181707
-0.293,-0.007,-0.959,-0.061,181711
-0.294,-0.008,-0.961,-0.061,181715
-0.294,-0.008,-0.961,-0.122,181719
-0.294,-0.008,-0.961,-0.122,181723
-0.292,-0.008,-0.962,-0.183,181727
-0.292,-0.008,-0.962,-0.122,181731
-0.293,-0.008,-0.959,0.0,181735
-0.293,-0.008,-0.959,-0.122,181739
-0.293,-0.008,-0.959,-0.122,181743
-0.294,-0.007,-0.96,-0.183,181747
-0.294,-0.007,-0.96,-0.244,181751
-0.293,-0.006,-0.959,-0.244,181755
-0.293,-0.006,-0.959,-0.244,181759
-0.293,-0.006,-0.959,-0.244,181763
-0.296,-0.006,-0.959,-0.061,181767
-0.296,-0.006,-0.959,-0.061,181771
-0.296,-0.005,-0.96,-0.183,181775
-0.296,-0.005,-0.96,-0.183,181779
-0.296,-0.005,-0.96,-0.183,181783
-0.298,-0.005,-0.959,-0.183,181787
-0.298,-0.005,-0.959,-0.122,181791
-0.298,-0.005,-0.957,-0.122,181795
-0.298,-0.005,-0.957,-0.122,181799
-0.296,-0.005,-0.957,-0.122,181803
-0.296,-0.005,-0.957,-0.122,181807
-0.296,-0.005,-0.957,-0.183,181811
-0.298,-0.003,-0.956,-0.183,181815
-0.298,-0.003,-0.956,-0.061,181819
-0.297,-0.003,-0.95,-0.122,181823
-0.297,-0.003,-0.95,-0.122,181827
-0.297,-0.003,-0.95,-0.183,181831
-0.297,-0.004,-0.948,-0.061,181835
-0.297,-0.004,-0.948,-0.122,181840
-0.304,-0.001,-0.969,-0.122,181844
-0.304,-0.001,-0.969,-0.122,181848
-0.304,-0.001,-0.969,-0.183,181852
-0.311,0.0,-0.986,-0.122,181856
-0.311,0.0,-0.986,-0.305,181860
-0.303,-0.002,-0.962,-0.305,181864
-0.303,-0.002,-0.962,-0.244,181868
-0.303,-0.002,-0.962,-0.244,181872
-0.297,-0.003,-0.945,-0.183,181876
-0.297,-0.003,-0.945,-0.122,181880
-0.295,-0.003,-0.952,-0.183,181884
-0.295,-0.003,-0.952,-0.244,181888
-0.295,-0.003,-0.952,-0.244,181892
-0.299,-0.003,-0.96,-0.244,181896
-0.299,-0.003,-0.96,-0.244,181900
-0.299,-0.002,-0.96,-0.183,181904
-0.299,-0.002,-0.96,-0.244,181908
-0.299,-0.002,-0.96,-0.244,181912
-0.297,-0.002,-0.955,-0.183,181916
-0.297,-0.002,-0.955,0.0,181920
-0.298,-0.004,-0.955,-0.122,181924
-0.298,-0.004,-0.955,-0.122,181928
-0.298,-0.004,-0.955,-0.122,181932
-0.3,-0.004,-0.958,-0.183,181936
-0.3,-0.004,-0.958,-0.183,181940
-0.299,-0.005,-0.959,-0.244,181944
-0.299,-0.005,-0.959,-0.122,181948
-0.295,-0.004,-0.959,-0.122,181952
-0.295,-0.004,-0.959,-0.122,181956
-0.295,-0.004,-0.959,-0.305,181960
-0.294,-0.008,-0.96,-0.122,181964
-0.294,-0.008,-0.96,-0.122,181968
-0.294,-0.007,-0.962,-0.183,181972
-0.294,-0.007,-0.962,-0.183,181976
-0.294,-0.007,-0.962,-0.183,181980
-0.295,-0.009,-0.962,-0.122,181984
-0.295,-0.009,-0.962,-0.183,181988
-0.295,-0.008,-0.958,-0.122,181992
-0.295,-0.008,-0.958,-0.122,181996
-0.295,-0.008,-0.958,-0.061,182000
-0.293,-0.007,-0.958,-0.122,182004
-0.293,-0.007,-0.958,-0.122,182008
-0.295,-0.007,-0.964,-0.183,182012
-0.295,-0.007,-0.964,-0.183,182016
-0.295,-0.007,-0.964,-0.183,182020
-0.292,-0.007,-0.966,-0.183,182025
-0.292,-0.007,-0.966,-0.244,182029
-0.291,-0.007,-0.962,-0.183,182033
-0.291,-0.007,-0.962,-0.122,182037
-0.291,-0.007,-0.962,-0.122,182041
-0.292,-0.005,-0.962,-0.244,182045
-0.292,-0.005,-0.962,-0.305,182049
-0.292,-0.004,-0.962,-0.305,182053
-0.292,-0.004,-0.962,-0.244,182057
-0.292,-0.004,-0.962,-0.244,182061
-0.292,-0.001,-0.96,-0.366,182065
-0.292,-0.001,-0.96,-0.305,182069
-0.293,-0.002,-0.96,-0.244,182073
-0.293,-0.002,-0.96,-0.244,182077
-0.293,-0.003,-0.96,-0.305,182081
-0.293,-0.003,-0.96,-0.305,182085
-0.293,-0.003,-0.96,-0.183,182089
-0.292,-0.002,-0.961,-0.305,182093
-0.292,-0.002,-0.961,-0.305,182097
-0.297,-0.003,-0.962,-0.183,182101
-0.297,-0.003,-0.962,-0.183,182105
-0.297,-0.003,-0.962,-0.061,182109
-0.297,-0.001,-0.961,-0.122,182113
-0.297,-0.001,-0.961,-0.061,182117
-0.299,-0.002,-0.958,-0.305,182121
-0.299,-0.002,-0.958,-0.305,182125
-0.299,-0.002,-0.958,-0.305,182129
-0.3,-0.002,-0.958,-0.122,182133
-0.3,-0.002,-0.958,-0.183,182137
-0.3,-0.004,-0.955,-0.122,182141
-0.3,-0.004,-0.955,-0.122,182145
-0.3,-0.004,-0.955,-0.183,182149
-0.301,-0.005,-0.953,-0.183,182153
-0.301,-0.005,-0.953,-0.061,182157
-0.301,-0.005,-0.956,-0.183,182161
-0.301,-0.005,-0.956,-0.244,182165
-0.301,-0.005,-0.956,-0.244,182169
-0.304,-0.006,-0.955,-0.122,182173
-0.304,-0.006,-0.955,-0.244,182177
-0.303,-0.007,-0.956,-0.244,182181
-0.303,-0.007,-0.956,-0.244,182185
-0.303,-0.007,-0.956,-0.244,182189
-0.304,-0.006,-0.955,-0.305,182194
-0.304,-0.006,-0.955,-0.183,182198
-0.304,-0.007,-0.955,-0.183,182202
-0.304,-0.007,-0.955,-0.183,182206
-0.304,-0.007,-0.955,-0.183,182210
-0.303,-0.007,-0.957,-0.244,182214
-0.303,-0.007,-0.957,-0.244,182218
-0.301,-0.009,-0.956,-0.183,182222
-0.301,-0.009,-0.956,-0.244,182226
-0.301,-0.008,-0.955,-0.305,182230
-0.301,-0.008,-0.955,-0.305,182234
-0.301,-0.008,-0.955,-0.183,182238
-0.302,-0.009,-0.959,-0.061,182242
-0.302,-0.009,-0.959,-0.061,182246
-0.301,-0.008,-0.957,-0.061,182250
-0.301,-0.008,-0.957,-0.061,182254
-0.301,-0.008,-0.957,-0.122,182258
-0.3,-0.007,-0.955,-0.244,182262
-0.3,-0.007,-0.955,-0.244,182266
-0.299,-0.006,-0.959,-0.122,182270
-0.299,-0.006,-0.959,-0.122,182274
-0.299,-0.006,-0.959,-0.183,182278
-0.298,-0.003,-0.958,-0.244,182282
-0.298,-0.003,-0.958,-0.244,182286
-0.297,-0.004,-0.958,-0.305,182290
-0.297,-0.004,-0.958,-0.122,182294
-0.297,-0.004,-0.958,-0.122,182298
-0.294,-0.004,-0.959,0.061,182302
-0.294,-0.004,-0.959,-0.061,182306
-0.294,-0.001,-0.961,-0.244,182310
-0.294,-0.001,-0.961,-0.183,182314
-0.294,-0.001,-0.961,-0.183,182318
-0.294,-0.001,-0.961,-0.244,182322
-0.294,-0.001,-0.961,-0.122,182326
-0.29,-0.002,-0.962,-0.183,182330
-0.29,-0.002,-0.962,-0.183,182334
-0.29,-0.002,-0.962,-0.183,182338
-0.29,-0.0,-0.963,-0.122,182342
-0.29,-0.0,-0.963,-0.061,182346
-0.291,-0.003,-0.962,-0.061,182350
-0.291,-0.003,-0.962,-0.183,182354
-0.291,-0.003,-0.962,-0.183,182358
-0.292,-0.003,-0.965,-0.183,182362
-0.292,-0.003,-0.965,-0.244,182366
-0.289,-0.001,-0.964,-0.244,182370
-0.289,-0.001,-0.964,-0.305,182374
-0.29,-0.003,-0.963,-0.305,182378
-0.29,-0.003,-0.963,-0.305,182382
-0.29,-0.003,-0.963,-0.366,182387
-0.292,-0.003,-0.961,-0.244,182391
-0.292,-0.003,-0.961,-0.244,182395
-0.292,-0.003,-0.962,-0.244,182399
-0.292,-0.003,-0.962,-0.244,182403
-0.292,-0.003,-0.962,-0.183,182407
-0.293,-0.005,-0.962,-0.305,182411
-0.293,-0.005,-0.962,-0.305,182415
-0.293,-0.006,-0.96,-0.244,182419
-0.293,-0.006,-0.96,-0.244,182423
-0.293,-0.006,-0.96,-0.183,182427
-0.296,-0.006,-0.961,-0.244,182431
-0.296,-0.006,-0.961,-0.244,182435
-0.298,-0.007,-0.961,-0.305,182439
-0.298,-0.007,-0.961,-0.305,182443
-0.298,-0.007,-0.961,-0.244,182447
-0.298,-0.008,-0.958,-0.183,182451
-0.298,-0.008,-0.958,-0.244,182455
-0.298,-0.007,-0.959,-0.244,182459
-0.298,-0.007,-0.959,-0.244,182463
-0.298,-0.007,-0.959,-0.244,182467
-0.299,-0.008,-0.958,-0.305,182471
-0.299,-0.008,-0.958,-0.366,182475
-0.299,-0.007,-0.958,-0.183,182479
-0.299,-0.007,-0.958,-0.122,182483
-0.299,-0.007,-0.958,-0.122,182487
-0.302,-0.008,-0.958,-0.183,182491
-0.302,-0.008,-0.958,-0.183,182495
-0.3,-0.007,-0.957,-0.244,182499
-0.3,-0.007,-0.957,-0.244,182503
-0.3,-0.007,-0.957,-0.244,182507
-0.301,-0.006,-0.956,-0.244,182511
-0.301,-0.006,-0.956,-0.183,182515
-0.302,-0.005,-0.956,-0.183,182519
-0.302,-0.005,-0.956,-0.244,182523
-0.304,-0.005,-0.954,-0.183,182527
-0.304,-0.005,-0.954,-0.183,182531
-0.304,-0.005,-0.954,-0.183,182535
-0.304,-0.004,-0.955,-0.305,182539
-0.304,-0.004,-0.955,-0.183,182543
-0.302,-0.003,-0.955,-0.183,182548
-0.302,-0.003,-0.955,-0.183,182552
-0.302,-0.003,-0.955,-0.244,182556
-0.304,-0.001,-0.955,-0.183,182560
-0.304,-0.001,-0.955,-0.183,182564
-0.304,-0.0,-0.958,-0.244,182568
-0.304,-0.0,-0.958,-0.244,182572
-0.304,-0.0,-0.958,-0.122,182576
-0.303,-0.001,-0.957,-0.183,182580
-0.303,-0.001,-0.957,-0.122,182584
-0.302,-0.001,-0.956,-0.244,182588
-0.302,-0.001,-0.956,-0.305,182592
-0.302,-0.001,-0.956,-0.305,182596
-0.301,-0.002,-0.957,-0.244,182600
-0.301,-0.002,-0.957,-0.183,182604
-0.298,-0.004,-0.959,-0.183,182608
-0.298,-0.004,-0.959,-0.183,182612
-0.298,-0.004,-0.959,-0.183,182616
-0.297,-0.004,-0.961,-0.061,182620
-0.297,-0.004,-0.961,-0.244,182624
-0.296,-0.003,-0.959,-0.183,182628
-0.296,-0.003,-0.959,-0.183,182632
-0.296,-0.003,-0.959,-0.183,182636
-0.294,-0.003,-0.959,-0.244,182640
-0.294,-0.003,-0.959,-0.122,182644
-0.294,-0.005,-0.96,-0.183,182648
-0.294,-0.005,-0.96,-0.122,182652
-0.293,-0.006,-0.961,-0.183,182656
-0.293,-0.006,-0.961,-0.183,182660
-0.293,-0.006,-0.961,-0.122,182664
-0.293,-0.006,-0.962,-0.061,182668
-0.293,-0.006,-0.962,-0.122,182672
-0.292,-0.006,-0.962,-0.366,182676
-0.292,-0.006,-0.962,-0.366,182680
-0.292,-0.006,-0.962,-0.244,182684
-0.291,-0.008,-0.963,-0.244,182688
-0.291,-0.008,-0.963,-0.305,182692
-0.29,-0.007,-0.961,-0.183,182696
-0.29,-0.007,-0.961,-0.183,182700
-0.29,-0.007,-0.961,-0.244,182704
-0.291,-0.006,-0.961,-0.366,182708
-0.291,-0.006,-0.961,-0.366,182712
-0.291,-0.007,-0.963,-0.244,182716
-0.291,-0.007,-0.963,-0.244,182721
-0.291,-0.007,-0.963,-0.122,182725
-0.293,-0.006,-0.964,-0.183,182729
-0.293,-0.006,-0.964,-0.244,182733
-0.294,-0.006,-0.962,-0.183,182737
-0.294,-0.006,-0.962,-0.305,182741
-0.294,-0.006,-0.962,-0.305,182745
-0.294,-0.005,-0.961,-0.244,182749
-0.294,-0.005,-0.961,-0.305,182753
-0.293,-0.003,-0.961,-0.244,182757
-0.293,-0.003,-0.961,-0.183,182761
-0.293,-0.003,-0.961,-0.183,182765
-0.295,-0.003,-0.96,-0.122,182769
-0.295,-0.003,-0.96,-0.183,182773
-0.296,-0.003,-0.96,-0.244,182777
-0.296,-0.003,-0.96,-0.305,182781
-0.296,-0.003,-0.96,-0.305,182785
-0.296,-0.002,-0.96,-0.305,182789
-0.296,-0.002,-0.96,-0.244,182793
-0.299,-0.005,-0.957,-0.183,182797
-0.299,-0.005,-0.957,-0.244,182801
-0.3,-0.004,-0.957,-0.244,182805
-0.3,-0.004,-0.957,-0.244,182809
-0.3,-0.004,-0.957,-0.061,182813
-0.3,-0.002,-0.955,-0.244,182817
-0.3,-0.002,-0.955,-0.183,182821
-0.3,-0.001,-0.955,-0.183,182825
-0.3,-0.001,-0.955,-0.183,182829
-0.3,-0.001,-0.955,-0.305,182833
-0.301,-0.002,-0.957,-0.244,182837
-0.301,-0.002,-0.957,-0.183,182841
-0.302,-0.001,-0.958,-0.183,182845
-0.302,-0.001,-0.958,-0.183,182849
-0.302,-0.001,-0.958,-0.183,182853
-0.303,-0.003,-0.958,-0.183,182857
-0.303,-0.003,-0.958,-0.183,182861
-0.301,-0.002,-0.955,-0.183,182865
-0.301,-0.002,-0.955,-0.183,182869
-0.301,-0.002,-0.955,-0.366,182873
-0.302,-0.003,-0.955,-0.366,182877
-0.302,-0.003,-0.955,-0.122,182881
-0.304,-0.005,-0.957,-0.183,182885
-0.304,-0.005,-0.957,-0.183,182889
-0.304,-0.005,-0.957,-0.183,182893
-0.303,-0.005,-0.958,-0.305,182897
-0.303,-0.005,-0.958,-0.183,182901
-0.302,-0.006,-0.958,-0.244,182905
-0.302,-0.006,-0.958,-0.244,182909
-0.302,-0.006,-0.958,-0.244,182914
-0.301,-0.007,-0.956,-0.183,182918
-0.301,-0.007,-0.956,-0.244,182922
-0.302,-0.008,-0.954,-0.183,182926
-0.302,-0.008,-0.954,-0.183,182930
-0.302,-0.008,-0.954,-0.183,182934
-0.3,-0.008,-0.957,-0.122,182938
-0.3,-0.008,-0.957,-0.183,182942
-0.299,-0.007,-0.959,-0.122,182946
-0.299,-0.007,-0.959,-0.122,182950
-0.299,-0.006,-0.961,-0.183,182954
-0.299,-0.006,-0.961,-0.183,182958
-0.299,-0.006,-0.961,-0.122,182962
-0.298,-0.007,-0.959,-0.061,182966
-0.298,-0.007,-0.959,-0.183,182970
-0.296,-0.006,-0.959,-0.183,182974
-0.296,-0.006,-0.959,-0.183,182978
-0.296,-0.006,-0.959,-0.183,182982
-0.295,-0.005,-0.96,-0.122,182986
-0.295,-0.005,-0.96,-0.122,182990
-0.292,-0.005,-0.959,-0.244,182994
-0.292,-0.005,-0.959,-0.244,182998
-0.292,-0.005,-0.959,-0.122,183002
-0.293,-0.005,-0.96,-0.183,183006
-0.293,-0.005,-0.96,-0.244,183010
-0.293,-0.004,-0.961,-0.183,183014
-0.293,-0.004,-0.961,-0.183,183018
-0.293,-0.004,-0.961,-0.244,183022
-0.293,-0.004,-0.964,-0.122,183026
-0.293,-0.004,-0.964,-0.061,183030
-0.292,-0.003,-0.962,-0.122,183034
-0.292,-0.003,-0.962,-0.244,183038
-0.292,-0.003,-0.962,-0.244,183042
-0.293,-0.002,-0.961,-0.244,183046
-0.293,-0.002,-0.961,-0.183,183050
-0.293,-0.003,-0.962,-0.122,183054
-0.293,-0.003,-0.962,-0.244,183058
-0.293,-0.003,-0.962,-0.244,183062
-0.293,-0.004,-0.96,-0.183,183066
-0.293,-0.004,-0.96,-0.183,183070
-0.295,-0.004,-0.961,-0.183,183074
-0.295,-0.004,-0.961,-0.244,183078
-0.295,-0.004,-0.961,-0.244,183082
-0.294,-0.003,-0.96,-0.305,183087
-0.294,-0.003,-0.96,-0.366,183091
-0.294,-0.004,-0.957,-0.122,183095
-0.294,-0.004,-0.957,-0.244,183099
-0.295,-0.003,-0.96,-0.305,183103
-0.295,-0.003,-0.96,-0.305,183107
-0.295,-0.003,-0.96,-0.122,183111
-0.299,-0.004,-0.96,-0.122,183115
-0.299,-0.004,-0.96,-0.244,183119
-0.299,-0.004,-0.958,-0.244,183123
-0.299,-0.004,-0.958,-0.244,183127
-0.299,-0.004,-0.958,-0.305,183131
-0.298,-0.005,-0.959,-0.183,183135
-0.298,-0.005,-0.959,-0.122,183139
-0.3,-0.005,-0.959,-0.122,183143
-0.3,-0.005,-0.959,-0.122,183147
-0.3,-0.005,-0.959,-0.366,183151
-0.3,-0.004,-0.957,-0.244,183155
-0.3,-0.004,-0.957,-0.366,183159
-0.3,-0.004,-0.955,-0.366,183163
-0.3,-0.004,-0.955,-0.366,183167
-0.3,-0.004,-0.955,-0.244,183171
-0.301,-0.005,-0.955,-0.244,183175
-0.301,-0.005,-0.955,-0.183,183179
-0.301,-0.005,-0.957,-0.305,183183
-0.301,-0.005,-0.957,-0.244,183187
-0.301,-0.005,-0.957,-0.244,183191
-0.301,-0.005,-0.957,-0.183,183195
-0.301,-0.005,-0.957,-0.183,183199
-0.303,-0.007,-0.957,-0.122,183203
-0.303,-0.007,-0.957,-0.122,183207
-0.303,-0.007,-0.957,-0.122,183211
-0.301,-0.007,-0.956,-0.183,183215
-0.301,-0.007,-0.956,-0.244,183219
-0.301,-0.007,-0.956,-0.244,183223
-0.301,-0.007,-0.956,-0.244,183227
-0.301,-0.007,-0.956,-0.244,183231
-0.301,-0.006,-0.956,-0.122,183235
-0.301,-0.006,-0.956,-0.183,183239
-0.3,-0.005,-0.958,-0.305,183243
-0.3,-0.005,-0.958,-0.244,183247
-0.298,-0.006,-0.958,-0.366,183251
-0.298,-0.006,-0.958,-0.366,183255
-0.298,-0.006,-0.958,-0.183,183260
-0.298,-0.006,-0.96,-0.122,183264
-0.298,-0.006,-0.96,-0.366,183268
-0.299,-0.006,-0.958,-0.183,183272
-0.299,-0.006,-0.958,-0.183,183276
-0.299,-0.006,-0.958,-0.061,183280
-0.298,-0.007,-0.959,-0.122,183284
-0.298,-0.007,-0.959,-0.244,183288
-0.295,-0.006,-0.96,-0.244,183292
-0.295,-0.006,-0.96,-0.244,183296
-0.295,-0.006,-0.96,-0.183,183300
-0.295,-0.005,-0.959,-0.183,183304
-0.295,-0.005,-0.959,-0.061,183308
-0.295,-0.004,-0.961,-0.183,183312
-0.295,-0.004,-0.961,-0.122,183316
-0.295,-0.004,-0.961,-0.122,183320
-0.293,-0.003,-0.962,-0.061,183324
-0.293,-0.003,-0.962,-0.183,183328
-0.294,-0.004,-0.961,-0.305,183332
-0.294,-0.004,-0.961,-0.305,183336
-0.294,-0.004,-0.961,-0.305,183340
-0.292,-0.002,-0.961,-0.183,183344
-0.292,-0.002,-0.961,-0.244,183348
-0.292,-0.004,-0.96,-0.244,183352
-0.292,-0.004,-0.96,-0.183,183356
-0.292,-0.004,-0.96,-0.183,183360
-0.292,-0.004,-0.961,-0.183,183364
-0.292,-0.004,-0.961,-0.244,183368
-0.293,-0.004,-0.962,-0.183,183372
-0.293,-0.004,-0.962,-0.122,183376
-0.293,-0.004,-0.962,-0.122,183380
-0.293,-0.003,-0.961,-0.183,183384
-0.293,-0.003,-0.961,-0.305,183388
-0.295,-0.003,-0.96,-0.122,183392
-0.295,-0.003,-0.96,-0.244,183396
-0.294,-0.004,-0.962,-0.305,183400
-0.294,-0.004,-0.962,-0.305,183404
-0.294,-0.004,-0.962,-0.183,183408
-0.296,-0.004,-0.96,-0.244,183412
-0.296,-0.004,-0.96,-0.244,183416
-0.296,-0.004,-0.961,-0.122,183420
-0.296,-0.004,-0.961,-0.122,183424
-0.296,-0.004,-0.961,-0.061,183428
-0.296,-0.006,-0.96,-0.244,183433
-0.296,-0.006,-0.96,-0.244,183437
-0.297,-0.005,-0.961,-0.244,183441
-0.297,-0.005,-0.961,-0.244,183445
-0.297,-0.005,-0.961,-0.366,183449
-0.299,-0.005,-0.959,-0.244,183453
-0.299,-0.005,-0.959,-0.244,183457
-0.298,-0.006,-0.959,-0.366,183461
-0.298,-0.006,-0.959,-0.305,183465
-0.298,-0.006,-0.959,-0.305,183469
-0.298,-0.006,-0.959,-0.183,183473
-0.298,-0.006,-0.959,-0.244,183477
-0.297,-0.006,-0.958,-0.122,183481
-0.297,-0.006,-0.958,-0.183,183485
-0.297,-0.006,-0.958,-0.183,183489
-0.301,-0.006,-0.96,-0.244,183493
-0.301,-0.006,-0.96,-0.122,183497
-0.3,-0.006,-0.957,-0.183,183501
-0.3,-0.006,-0.957,-0.122,183505
-0.3,-0.006,-0.957,-0.122,183509
-0.299,-0.006,-0.957,-0.061,183513
-0.299,-0.006,-0.957,-0.183,183517
-0.3,-0.005,-0.958,-0.183,183521
-0.3,-0.005,-0.958,-0.122,183525
-0.3,-0.005,-0.958,-0.122,183529
-0.301,-0.006,-0.956,-0.305,183533
-0.301,-0.006,-0.956,-0.183,183537
-0.299,-0.006,-0.957,-0.061,183541
-0.299,-0.006,-0.957,-0.061,183545
-0.3,-0.006,-0.957,-0.183,183549
-0.3,-0.006,-0.957,-0.183,183553
-0.3,-0.006,-0.957,-0.183,183557
-0.301,-0.006,-0.958,-0.305,183561
-0.301,-0.006,-0.958,-0.183,183565
-0.3,-0.005,-0.959,-0.244,183569
-0.3,-0.005,-0.959,-0.244,183573
-0.3,-0.005,-0.959,-0.244,183577
-0.3,-0.006,-0.957,-0.244,183581
-0.3,-0.006,-0.957,-0.244,183585
-0.299,-0.006,-0.958,-0.183,183589
-0.299,-0.006,-0.958,-0.183,183593
-0.299,-0.006,-0.958,-0.061,183597
-0.298,-0.005,-0.959,-0.183,183601
-0.298,-0.005,-0.959,-0.122,183605
-0.296,-0.004,-0.959,-0.122,183609
-0.296,-0.004,-0.959,-0.122,183613
-0.296,-0.004,-0.959,-0.122,183617
-0.295,-0.003,-0.96,-0.183,183621
-0.295,-0.003,-0.96,-0.183,183626
-0.295,-0.003,-0.96,-0.061,183630
-0.295,-0.003,-0.96,-0.183,183634
-0.295,-0.003,-0.96,-0.183,183638
-0.294,-0.004,-0.961,-0.305,183642
-0.294,-0.004,-0.961,-0.183,183646
-0.294,-0.005,-0.961,-0.183,183650
-0.294,-0.005,-0.961,-0.305,183654
-0.294,-0.005,-0.961,-0.305,183658
-0.294,-0.004,-0.96,-0.244,183662
-0.294,-0.004,-0.96,-0.122,183666
-0.294,-0.004,-0.96,-0.122,183670
-0.294,-0.004,-0.96,-0.183,183674
-0.294,-0.004,-0.96,-0.183,183678
-0.294,-0.004,-0.96,-0.183,183682
-0.294,-0.004,-0.96,-0.183,183686
-0.294,-0.004,-0.961,-0.244,183690
-0.294,-0.004,-0.961,-0.183,183694
-0.293,-0.006,-0.961,-0.244,183698
-0.293,-0.006,-0.961,-0.244,183702
-0.293,-0.006,-0.961,-0.183,183706
-0.294,-0.006,-0.96,-0.244,183710
-0.294,-0.006,-0.96,-0.305,183714
-0.295,-0.005,-0.959,-0.183,183718
-0.295,-0.005,-0.959,-0.183,183722
-0.295,-0.005,-0.959,-0.244,183726
-0.295,-0.006,-0.961,-0.122,183730
-0.295,-0.006,-0.961,-0.183,183734
-0.297,-0.007,-0.96,-0.305,183738
-0.297,-0.007,-0.96,-0.305,183742
-0.297,-0.007,-0.96,-0.244,183746
-0.297,-0.005,-0.959,-0.244,183750
-0.297,-0.005,-0.959,-0.183,183754
-0.297,-0.005,-0.959,-0.183,183758
-0.297,-0.005,-0.959,-0.244,183762
-0.297,-0.005,-0.959,-0.244,183766
-0.296,-0.004,-0.959,-0.244,183770
-0.296,-0.004,-0.959,-0.244,183774
-0.298,-0.007,-0.959,-0.305,183778
-0.298,-0.007,-0.959,-0.244,183782
-0.298,-0.007,-0.959,-0.244,183786
-0.3,-0.005,-0.958,-0.244,183790
-0.3,-0.005,-0.958,-0.244,183794
-0.299,-0.004,-0.958,-0.183,183798
-0.299,-0.004,-0.958,-0.305,183802
-0.299,-0.004,-0.958,-0.305,183806
-0.299,-0.005,-0.957,-0.366,183811
-0.299,-0.005,-0.957,-0.244,183815
-0.3,-0.005,-0.958,-0.183,183819
-0.3,-0.005,-0.958,-0.244,183823
-0.3,-0.005,-0.958,-0.244,183827
-0.3,-0.004,-0.957,-0.122,183831
-0.3,-0.004,-0.957,-0.122,183835
-0.3,-0.006,-0.957,-0.183,183839
-0.3,-0.006,-0.957,-0.183,183843
-0.301,-0.003,-0.958,-0.305,183847
-0.301,-0.003,-0.958,-0.305,183851
-0.301,-0.003,-0.958,-0.122,183855
-0.299,-0.003,-0.957,-0.183,183859
-0.299,-0.003,-0.957,-0.183,183863
-0.298,-0.004,-0.958,-0.244,183867
-0.298,-0.004,-0.958,-0.244,183871
-0.298,-0.004,-0.958,-0.305,183875
-0.299,-0.004,-0.958,-0.183,183879
-0.299,-0.004,-0.958,-0.183,183883
-0.3,-0.004,-0.958,-0.244,183887
-0.3,-0.004,-0.958,-0.244,183891
-0.3,-0.004,-0.958,-0.244,183895
-0.299,-0.004,-0.961,-0.183,183899
-0.299,-0.004,-0.961,-0.183,183903
-0.298,-0.006,-0.958,-0.061,183907
-0.298,-0.006,-0.958,-0.122,183911
-0.298,-0.006,-0.958,-0.122,183915
-0.297,-0.005,-0.959,-0.061,183919
-0.297,-0.005,-0.959,-0.122,183923
-0.297,-0.004,-0.961,-0.305,183927
-0.297,-0.004,-0.961,-0.244,183931
-0.297,-0.004,-0.961,-0.244,183935
-0.297,-0.005,-0.961,-0.122,183939
-0.297,-0.005,-0.961,-0.183,183943
-0.297,-0.005,-0.96,-0.244,183947
-0.297,-0.005,-0.96,-0.122,183951
-0.297,-0.005,-0.96,-0.122,183955
-0.295,-0.005,-0.961,-0.122,183959
-0.295,-0.005,-0.961,-0.183,183963
-0.293,-0.006,-0.96,-0.183,183967
-0.293,-0.006,-0.96,-0.183,183971
-0.293,-0.006,-0.96,-0.183,183975
-0.293,-0.005,-0.958,-0.183,183979
-0.293,-0.005,-0.958,-0.183,183983
-0.295,-0.007,-0.961,-0.122,183987
-0.295,-0.007,-0.961,-0.122,183991
-0.293,-0.005,-0.961,-0.305,183995
-0.293,-0.005,-0.961,-0.305,184000
-0.293,-0.005,-0.961,-0.305,184004
-0.294,-0.005,-0.961,-0.183,184008
-0.294,-0.005,-0.961,-0.183,184012
-0.295,-0.006,-0.961,-0.122,184016
-0.295,-0.006,-0.961,-0.122,184020
-0.295,-0.006,-0.961,-0.244,184024
-0.295,-0.006,-0.962,-0.244,184028
-0.295,-0.006,-0.962,-0.305,184032
-0.297,-0.006,-0.959,-0.244,184036
-0.297,-0.006,-0.959,-0.244,184040
-0.297,-0.006,-0.959,-0.183,184044
-0.296,-0.004,-0.959,-0.244,184048
-0.296,-0.004,-0.959,-0.183,184052
-0.297,-0.005,-0.96,-0.183,184056
-0.297,-0.005,-0.96,-0.244,184060
-0.297,-0.005,-0.96,-0.244,184064
-0.298,-0.005,-0.959,-0.244,184068
-0.298,-0.005,-0.959,-0.244,184072
-0.296,-0.006,-0.958,-0.183,184076
-0.296,-0.006,-0.958,-0.244,184080
-0.296,-0.006,-0.958,-0.244,184084
-0.298,-0.005,-0.959,-0.061,184088
-0.298,-0.005,-0.959,-0.183,184092
-0.297,-0.005,-0.959,-0.244,184096
-0.297,-0.005,-0.959,-0.183,184100
-0.297,-0.005,-0.959,-0.183,184104
-0.298,-0.003,-0.959,-0.305,184108
-0.298,-0.003,-0.959,-0.183,184112
-0.299,-0.002,-0.96,-0.244,184116
-0.299,-0.002,-0.96,-0.244,184120
-0.299,-0.003,-0.957,-0.122,184124
-0.299,-0.003,-0.957,-0.122,184128
-0.299,-0.003,-0.957,-0.183,184132
-0.298,-0.003,-0.957,-0.183,184136
-0.298,-0.003,-0.957,-0.244,184140
-0.298,-0.003,-0.958,-0.122,184144
-0.298,-0.003,-0.958,-0.122,184148
-0.298,-0.003,-0.958,-0.061,184152
-0.3,-0.005,-0.957,-0.305,184157
-0.3,-0.005,-0.957,-0.183,184161
-0.301,-0.005,-0.958,-0.183,184165
-0.301,-0.005,-0.958,-0.183,184169
-0.301,-0.005,-0.958,-0.122,184173
-0.301,-0.004,-0.957,-0.183,184177
-0.301,-0.004,-0.957,-0.122,184181
-0.299,-0.006,-0.957,-0.061,184185
-0.299,-0.006,-0.957,-0.061,184189
-0.299,-0.006,-0.957,-0.122,184193
-0.298,-0.005,-0.958,-0.244,184197
-0.298,-0.005,-0.958,-0.244,184201
-0.298,-0.005,-0.958,-0.183,184205
-0.298,-0.005,-0.958,-0.244,184209
-0.298,-0.005,-0.958,-0.244,184213
-0.296,-0.006,-0.96,-0.183,184217
-0.296,-0.006,-0.96,-0.122,184221
-0.297,-0.006,-0.959,-0.244,184225
-0.297,-0.006,-0.959,-0.305,184229
-0.297,-0.006,-0.959,-0.305,184233
-0.296,-0.005,-0.959,-0.183,184237
-0.296,-0.005,-0.959,-0.183,184241
-0.297,-0.007,-0.959,-0.183,184245
-0.297,-0.007,-0.959,-0.122,184249
-0.297,-0.007,-0.959,-0.122,184253
-0.298,-0.005,-0.959,-0.183,184257
-0.298,-0.005,-0.959,-0.183,184261
-0.295,-0.005,-0.96,-0.122,184265
-0.295,-0.005,-0.96,-0.183,184269
-0.294,-0.006,-0.96,-0.244,184273
-0.294,-0.006,-0.96,-0.244,184277
-0.294,-0.006,-0.96,-0.183,184281
-0.296,-0.007,-0.958,0.0,184285
-0.296,-0.007,-0.958,-0.061,184289
-0.296,-0.006,-0.958,-0.183,184293
-0.296,-0.006,-0.958,-0.183,184297
-0.296,-0.006,-0.958,-0.061,184301
-0.296,-0.005,-0.962,-0.244,184305
-0.296,-0.005,-0.962,-0.183,184309
-0.296,-0.006,-0.96,-0.183,184313
-0.296,-0.006,-0.96,-0.183,184317
-0.296,-0.006,-0.96,-0.244,184321
-0.295,-0.004,-0.958,-0.244,184325
-0.295,-0.004,-0.958,-0.183,184330
-0.295,-0.005,-0.958,-0.122,184334
-0.295,-0.005,-0.958,-0.122,184338
-0.295,-0.005,-0.958,-0.122,184342
-0.294,-0.005,-0.96,-0.183,184346
-0.294,-0.005,-0.96,-0.244,184350
-0.295,-0.004,-0.959,-0.122,184354
-0.295,-0.004,-0.959,-0.183,184358
-0.295,-0.004,-0.959,-0.183,184362
-0.295,-0.003,-0.959,-0.183,184366
-0.295,-0.003,-0.959,-0.183,184370
-0.295,-0.003,-0.959,-0.244,184374
-0.295,-0.003,-0.959,-0.305,184378
-0.295,-0.003,-0.959,-0.305,184382
-0.297,-0.006,-0.959,-0.366,184386
-0.297,-0.006,-0.959,-0.244,184390
-0.297,-0.005,-0.959,-0.244,184394
-0.297,-0.005,-0.959,-0.244,184398
-0.297,-0.005,-0.959,-0.244,184402
-0.298,-0.004,-0.959,-0.244,184406
-0.298,-0.004,-0.959,-0.183,184410
-0.297,-0.004,-0.958,-0.122,184414
-0.297,-0.004,-0.958,-0.244,184418
-0.298,-0.006,-0.958,-0.366,184422
-0.298,-0.006,-0.958,-0.366,184426
-0.298,-0.006,-0.958,-0.244,184430
-0.299,-0.005,-0.958,-0.183,184434
-0.299,-0.005,-0.958,-0.366,184438
-0.298,-0.005,-0.958,-0.244,184442
-0.298,-0.005,-0.958,-0.244,184446
-0.298,-0.005,-0.958,-0.244,184450
-0.296,-0.005,-0.958,-0.244,184454
-0.296,-0.005,-0.958,-0.183,184458
-0.298,-0.004,-0.958,-0.305,184462
-0.298,-0.004,-0.958,-0.305,184466
-0.298,-0.004,-0.958,-0.183,184470
-0.299,-0.007,-0.959,-0.122,184474
-0.299,-0.007,-0.959,-0.366,184478
-0.297,-0.005,-0.958,-0.122,184482
-0.297,-0.005,-0.958,-0.061,184486
-0.297,-0.005,-0.958,-0.061,184490
-0.298,-0.005,-0.957,-0.366,184495
-0.298,-0.005,-0.957,-0.244,184499
-0.299,-0.006,-0.958,-0.244,184503
-0.299,-0.006,-0.958,-0.183,184507
-0.299,-0.006,-0.958,-0.183,184511
-0.297,-0.007,-0.958,-0.183,184515
-0.297,-0.007,-0.958,-0.122,184519
-0.298,-0.006,-0.958,-0.244,184523
-0.298,-0.006,-0.958,-0.122,184527
-0.298,-0.006,-0.958,-0.122,184531
-0.298,-0.005,-0.958,-0.122,184535
-0.298,-0.005,-0.958,-0.305,184539
-0.297,-0.005,-0.958,-0.183,184543
-0.297,-0.005,-0.958,-0.183,184547
-0.297,-0.003,-0.958,-0.183,184551
-0.297,-0.003,-0.958,-0.183,184555
-0.297,-0.003,-0.958,-0.183,184559
-0.298,-0.004,-0.959,-0.061,184563
-0.298,-0.004,-0.959,-0.183,184567
-0.295,-0.004,-0.959,-0.183,184571
-0.295,-0.004,-0.959,-0.183,184575
-0.295,-0.004,-0.959,-0.122,184579
-0.295,-0.005,-0.96,0.0,184583
-0.295,-0.005,-0.96,-0.183,184587
-0.295,-0.003,-0.959,-0.122,184591
-0.295,-0.003,-0.959,-0.122,184595
-0.295,-0.003,-0.959,-0.366,184599
-0.295,-0.004,-0.959,-0.122,184603
-0.295,-0.004,-0.959,-0.244,184607
-0.296,-0.003,-0.96,-0.244,184611
-0.296,-0.003,-0.96,-0.244,184615
-0.296,-0.003,-0.96,-0.244,184619
-0.296,-0.004,-0.961,-0.244,184623
-0.296,-0.004,-0.961,-0.244,184627
-0.296,-0.004,-0.959,-0.244,184631
-0.296,-0.004,-0.959,-0.305,184635
-0.296,-0.004,-0.959,-0.305,184639
-0.295,-0.005,-0.96,-0.244,184643
-0.295,-0.005,-0.96,-0.305,184647
-0.298,-0.005,-0.96,-0.305,184651
-0.298,-0.005,-0.96,-0.183,184655
-0.298,-0.005,-0.96,-0.183,184659
-0.298,-0.004,-0.96,-0.244,184663
-0.298,-0.004,-0.96,-0.183,184668
-0.296,-0.005,-0.96,-0.244,184672
-0.296,-0.005,-0.96,-0.244,184676
-0.296,-0.005,-0.96,-0.244,184680
-0.296,-0.006,-0.959,-0.183,184684
-0.296,-0.006,-0.959,-0.183,184688
-0.297,-0.005,-0.959,-0.305,184692
-0.297,-0.005,-0.959,-0.183,184696
-0.296,-0.006,-0.958,-0.183,184700
-0.296,-0.006,-0.958,-0.183,184704
-0.296,-0.006,-0.958,-0.183,184708
-0.298,-0.004,-0.959,-0.244,184712
-0.298,-0.004,-0.959,-0.244,184716
-0.298,-0.005,-0.96,-0.244,184720
-0.298,-0.005,-0.96,-0.244,184724
-0.298,-0.005,-0.96,-0.305,184728
-0.297,-0.004,-0.959,-0.244,184732
-0.297,-0.004,-0.959,-0.244,184736
-0.3,-0.006,-0.958,-0.244,184740
-0.3,-0.006,-0.958,-0.244,184744
-0.3,-0.006,-0.958,-0.122,184748
-0.298,-0.006,-0.959,-0.183,184752
-0.298,-0.006,-0.959,-0.183,184756
-0.299,-0.006,-0.958,-0.122,184760
-0.299,-0.006,-0.958,-0.122,184764
-0.299,-0.006,-0.958,-0.122,184768
-0.299,-0.006,-0.959,-0.183,184772
-0.299,-0.006,-0.959,-0.244,184776
-0.297,-0.007,-0.959,-0.305,184780
-0.297,-0.007,-0.959,-0.305,184784
-0.297,-0.007,-0.959,-0.305,184788
-0.298,-0.006,-0.958,-0.122,184792
-0.298,-0.006,-0.958,-0.183,184796
-0.298,-0.005,-0.959,-0.305,184800
-0.298,-0.005,-0.959,-0.122,184804
-0.298,-0.005,-0.959,-0.122,184808
-0.297,-0.005,-0.96,-0.122,184812
-0.297,-0.005,-0.96,-0.183,184816
-0.298,-0.005,-0.959,-0.183,184820
-0.298,-0.005,-0.959,-0.122,184824
-0.298,-0.005,-0.959,-0.122,184829
-0.297,-0.004,-0.958,-0.183,184833
-0.297,-0.004,-0.958,-0.183,184837
-0.297,-0.005,-0.958,-0.305,184841
-0.297,-0.005,-0.958,-0.244,184845
-0.297,-0.004,-0.957,-0.183,184849
-0.297,-0.004,-0.957,-0.183,184853
-0.297,-0.004,-0.957,-0.183,184857
-0.298,-0.005,-0.958,-0.122,184861
-0.298,-0.005,-0.958,-0.122,184865
-0.297,-0.003,-0.958,-0.122,184869
-0.297,-0.003,-0.958,-0.122,184873
-0.297,-0.003,-0.958,-0.183,184877
-0.297,-0.003,-0.958,-0.427,184881
-0.297,-0.003,-0.958,-0.183,184885
-0.296,-0.004,-0.961,-0.183,184889
-0.296,-0.004,-0.961,-0.183,184893
-0.296,-0.004,-0.961,-0.122,184897
-0.296,-0.004,-0.961,-0.244,184901
-0.296,-0.004,-0.961,-0.122,184905
-0.296,-0.004,-0.96,-0.122,184909
-0.296,-0.004,-0.96,-0.183,184913
-0.296,-0.004,-0.96,-0.183,184917
-0.296,-0.004,-0.961,-0.183,184921
-0.296,-0.004,-0.961,-0.183,184925
-0.297,-0.004,-0.959,-0.244,184929
-0.297,-0.004,-0.959,-0.183,184933
-0.297,-0.004,-0.959,-0.183,184937
-0.296,-0.004,-0.959,-0.122,184941
-0.296,-0.004,-0.959,-0.183,184945
-0.297,-0.004,-0.96,-0.244,184949
-0.297,-0.004,-0.96,0.0,184953
-0.297,-0.004,-0.96,0.0,184957
-0.298,-0.004,-0.959,-0.305,184961
-0.298,-0.004,-0.959,-0.305,184965
-0.297,-0.004,-0.96,-0.244,184969
-0.297,-0.004,-0.96,-0.183,184973
-0.297,-0.004,-0.96,-0.183,184977
-0.296,-0.005,-0.959,-0.305,184981
-0.296,-0.005,-0.959,-0.244,184985
-0.297,-0.005,-0.958,-0.061,184989
-0.297,-0.005,-0.958,-0.244,184993
-0.296,-0.006,-0.957,-0.366,184997
-0.296,-0.006,-0.957,-0.366,185001
-0.296,-0.006,-0.957,-0.244,185006
-0.296,-0.004,-0.958,-0.183,185010
-0.296,-0.004,-0.958,-0.244,185014
-0.299,-0.005,-0.958,-0.122,185018
-0.299,-0.005,-0.958,-0.122,185022
-0.299,-0.005,-0.958,-0.244,185026
-0.296,-0.007,-0.957,-0.244,185030
-0.296,-0.007,-0.957,-0.183,185034
-0.297,-0.006,-0.959,-0.122,185038
-0.297,-0.006,-0.959,-0.122,185042
-0.297,-0.006,-0.959,-0.061,185046
-0.299,-0.005,-0.958,0.0,185050
-0.299,-0.005,-0.958,-0.183,185054
-0.297,-0.006,-0.96,-0.244,185058
-0.297,-0.006,-0.96,-0.183,185062
-0.297,-0.006,-0.96,-0.183,185066
-0.297,-0.005,-0.959,-0.122,185070
-0.297,-0.005,-0.959,-0.061,185074
-0.297,-0.004,-0.958,-0.061,185078
-0.297,-0.004,-0.958,-0.183,185082
-0.297,-0.004,-0.958,-0.183,185086
-0.297,-0.005,-0.958,-0.122,185090
-0.297,-0.005,-0.958,-0.244,185094
-0.299,-0.006,-0.958,-0.183,185098
-0.299,-0.006,-0.958,-0.183,185102
-0.299,-0.006,-0.958,-0.183,185106
-0.298,-0.004,-0.959,-0.244,185110
-0.298,-0.004,-0.959,-0.122,185114
-0.297,-0.005,-0.958,-0.183,185118
-0.297,-0.005,-0.958,-0.183,185122
-0.299,-0.004,-0.959,-0.122,185126
-0.299,-0.004,-0.959,-0.122,185130
-0.299,-0.004,-0.959,-0.183,185134
-0.299,-0.005,-0.959,-0.122,185138
-0.299,-0.005,-0.959,-0.244,185142
-0.297,-0.003,-0.958,-0.366,185146
-0.297,-0.003,-0.958,-0.366,185150
-0.297,-0.003,-0.958,-0.244,185154
-0.298,-0.004,-0.96,0.0,185158
-0.298,-0.004,-0.96,-0.061,185162
-0.298,-0.004,-0.959,-0.305,185166
-0.298,-0.004,-0.959,-0.305,185170
-0.298,-0.004,-0.959,-0.305,185174
-0.297,-0.004,-0.958,-0.183,185178
-0.297,-0.004,-0.958,-0.305,185182
-0.297,-0.004,-0.959,-0.305,185187
-0.297,-0.004,-0.959,-0.305,185191
-0.297,-0.004,-0.959,-0.244,185195
-0.296,-0.005,-0.959,-0.183,185199
-0.296,-0.005,-0.959,-0.183,185203
-0.296,-0.005,-0.958,-0.183,185207
-0.296,-0.005,-0.958,-0.244,185211
-0.296,-0.005,-0.958,-0.244,185215
-0.297,-0.006,-0.957,-0.122,185219
-0.297,-0.006,-0.957,-0.122,185223
-0.297,-0.005,-0.961,-0.244,185227
-0.297,-0.005,-0.961,-0.244,185231
-0.297,-0.005,-0.961,-0.244,185235
-0.296,-0.006,-0.959,-0.366,185239
-0.296,-0.006,-0.959,-0.366,185243
-0.296,-0.005,-0.959,-0.305,185247
-0.296,-0.005,-0.959,-0.183,185251
-0.296,-0.005,-0.959,-0.183,185255
-0.295,-0.004,-0.958,-0.183,185259
-0.295,-0.004,-0.958,-0.244,185263
-0.296,-0.006,-0.959,-0.183,185267
-0.296,-0.006,-0.959,-0.183,185271
-0.297,-0.005,-0.962,-0.244,185275
-0.297,-0.005,-0.962,-0.244,185279
-0.297,-0.005,-0.962,-0.305,185283
-0.296,-0.006,-0.96,-0.305,185287
-0.296,-0.006,-0.96,-0.183,185291
-0.297,-0.006,-0.959,-0.244,185295
-0.297,-0.006,-0.959,-0.244,185299
-0.297,-0.006,-0.959,-0.183,185303
-0.296,-0.004,-0.958,-0.183,185307
-0.296,-0.004,-0.958,-0.183,185311
-0.297,-0.005,-0.958,-0.183,185315
-0.297,-0.005,-0.958,-0.183,185319
-0.297,-0.005,-0.958,-0.244,185323
-0.299,-0.005,-0.959,-0.305,185327
-0.299,-0.005,-0.959,-0.244,185331
-0.298,-0.007,-0.959,-0.305,185335
-0.298,-0.007,-0.959,-0.305,185339
-0.298,-0.007,-0.959,-0.305,185343
-0.297,-0.004,-0.958,-0.305,185347
-0.297,-0.004,-0.958,-0.183,185351
-0.298,-0.005,-0.959,-0.244,185356
-0.298,-0.005,-0.959,-0.122,185360
-0.298,-0.005,-0.959,-0.122,185364
-0.298,-0.005,-0.958,-0.244,185368
-0.298,-0.005,-0.958,-0.183,185372
-0.298,-0.004,-0.958,-0.122,185376
-0.298,-0.004,-0.958,-0.122,185380
-0.298,-0.004,-0.958,-0.122,185384
-0.298,-0.004,-0.959,-0.183,185388
-0.298,-0.004,-0.959,-0.244,185392
-0.3,-0.004,-0.959,-0.183,185396
-0.3,-0.004,-0.959,-0.122,185400
-0.3,-0.004,-0.959,-0.122,185404
-0.299,-0.004,-0.959,-0.183,185408
-0.299,-0.004,-0.959,-0.244,185412
-0.297,-0.004,-0.959,-0.183,185416
-0.297,-0.004,-0.959,-0.244,185420
-0.298,-0.004,-0.958,-0.244,185424
-0.298,-0.004,-0.958,-0.244,185428
-0.298,-0.004,-0.958,0.0,185432
-0.297,-0.004,-0.959,-0.183,185436
-0.297,-0.004,-0.959,-0.122,185440
-0.298,-0.005,-0.958,-0.183,185444
-0.298,-0.005,-0.958,-0.183,185448
-0.298,-0.005,-0.958,-0.244,185452
-0.298,-0.004,-0.958,-0.183,185456
-0.298,-0.004,-0.958,-0.183,185460
-0.298,-0.004,-0.96,-0.183,185464
-0.298,-0.004,-0.96,-0.183,185468
-0.298,-0.004,-0.96,-0.183,185472
-0.298,-0.005,-0.958,-0.305,185476
-0.298,-0.005,-0.958,-0.305,185480
-0.297,-0.006,-0.958,-0.122,185484
-0.297,-0.006,-0.958,-0.122,185488
-0.297,-0.006,-0.958,-0.122,185492
-0.296,-0.005,-0.957,-0.183,185496
-0.296,-0.005,-0.957,-0.122,185500
-0.299,-0.006,-0.96,-0.183,185504
-0.299,-0.006,-0.96,-0.244,185508
-0.299,-0.006,-0.96,-0.244,185512
-0.296,-0.006,-0.96,-0.305,185516
-0.296,-0.006,-0.96,-0.122,185520
-0.296,-0.005,-0.958,-0.183,185524
-0.296,-0.005,-0.958,-0.122,185528
-0.296,-0.005,-0.958,-0.122,185532
-0.297,-0.005,-0.959,-0.244,185537
-0.297,-0.005,-0.959,-0.183,185541
-0.296,-0.005,-0.958,-0.183,185545
-0.296,-0.005,-0.958,-0.122,185549
-0.296,-0.005,-0.958,-0.122,185553
-0.297,-0.005,-0.959,-0.122,185557
-0.297,-0.005,-0.959,-0.244,185561
-0.296,-0.005,-0.96,-0.366,185565
-0.296,-0.005,-0.96,-0.305,185569
-0.295,-0.005,-0.959,-0.244,185573
-0.295,-0.005,-0.959,-0.244,185577
-0.295,-0.005,-0.959,-0.122,185581
-0.296,-0.005,-0.96,-0.183,185585
-0.296,-0.005,-0.96,-0.244,185589
-0.297,-0.006,-0.959,-0.244,185593
-0.297,-0.006,-0.959,-0.244,185597
-0.297,-0.006,-0.959,-0.183,185601
-0.297,-0.005,-0.96,-0.061,185605
-0.297,-0.005,-0.96,-0.061,185609
-0.297,-0.005,-0.959,-0.244,185613
-0.297,-0.005,-0.959,-0.244,185617
-0.297,-0.005,-0.959,-0.305,185621
-0.297,-0.004,-0.959,-0.305,185625
-0.297,-0.004,-0.959,-0.427,185629
-0.297,-0.005,-0.959,-0.305,185633
-0.297,-0.005,-0.959,-0.183,185637
-0.297,-0.005,-0.959,-0.183,185641
-0.298,-0.004,-0.96,-0.061,185645
-0.298,-0.004,-0.96,-0.183,185649
-0.297,-0.003,-0.958,-0.183,185653
-0.297,-0.003,-0.958,-0.244,185657
-0.297,-0.003,-0.958,-0.244,185661
-0.298,-0.005,-0.958,-0.183,185665
-0.298,-0.005,-0.958,-0.122,185669
-0.299,-0.003,-0.958,-0.183,185673
-0.299,-0.003,-0.958,-0.183,185677
-0.299,-0.003,-0.958,-0.183,185681
-0.298,-0.004,-0.959,-0.183,185685
-0.298,-0.004,-0.959,-0.122,185689
-0.3,-0.003,-0.958,-0.244,185693
-0.3,-0.003,-0.958,-0.244,185697
-0.3,-0.003,-0.958,-0.244,185701
-0.298,-0.004,-0.959,-0.061,185706
-0.298,-0.004,-0.959,-0.183,185710
-0.298,-0.004,-0.957,-0.183,185714
-0.298,-0.004,-0.957,-0.183,185718
-0.298,-0.004,-0.957,-0.122,185722
-0.298,-0.004,-0.957,-0.122,185726
-0.298,-0.004,-0.957,-0.183,185730
-0.299,-0.004,-0.959,-0.244,185734
-0.299,-0.004,-0.959,-0.244,185738
-0.298,-0.005,-0.958,-0.244,185742
-0.298,-0.005,-0.958,-0.244,185746
-0.298,-0.005,-0.958,-0.183,185750
-0.298,-0.005,-0.959,-0.122,185754
-0.298,-0.005,-0.959,-0.183,185758
-0.297,-0.005,-0.96,-0.122,185762
-0.297,-0.005,-0.96,-0.122,185766
-0.297,-0.005,-0.96,-0.122,185770
-0.298,-0.005,-0.96,-0.244,185774
-0.298,-0.005,-0.96,-0.183,185778
-0.297,-0.004,-0.959,-0.183,185782
-0.297,-0.004,-0.959,-0.244,185786
-0.297,-0.004,-0.959,-0.244,185790
-0.297,-0.005,-0.958,-0.183,185794
-0.297,-0.005,-0.958,-0.244,185798
-0.297,-0.005,-0.959,-0.305,185802
-0.297,-0.005,-0.959,-0.244,185806
-0.297,-0.005,-0.959,-0.244,185810
-0.298,-0.006,-0.96,-0.183,185814
-0.298,-0.006,-0.96,0.061,185818
-0.297,-0.006,-0.96,-0.305,185822
-0.297,-0.006,-0.96,-0.366,185826
-0.297,-0.006,-0.96,-0.366,185830
-0.297,-0.005,-0.959,-0.122,185834
-0.297,-0.005,-0.959,-0.244,185838
-0.296,-0.004,-0.959,-0.366,185842
-0.296,-0.004,-0.959,-0.122,185846
-0.296,-0.004,-0.96,-0.244,185850
-0.296,-0.004,-0.96,-0.244,185854
-0.296,-0.004,-0.96,-0.183,185858
-0.296,-0.003,-0.96,-0.183,185862
-0.296,-0.003,-0.96,-0.244,185866
-0.297,-0.004,-0.958,-0.122,185870
-0.297,-0.004,-0.958,-0.122,185874
-0.297,-0.004,-0.958,-0.122,185878
-0.297,-0.004,-0.958,-0.244,185882
-0.297,-0.004,-0.958,-0.244,185887
-0.295,-0.004,-0.959,-0.183,185891
-0.295,-0.004,-0.959,-0.183,185895
-0.295,-0.004,-0.959,-0.183,185899
-0.294,-0.004,-0.959,-0.183,185903
-0.294,-0.004,-0.959,-0.244,185907
-0.297,-0.004,-0.959,-0.183,185911
-0.297,-0.004,-0.959,-0.183,185915
-0.297,-0.004,-0.959,-0.183,185919
-0.298,-0.004,-0.958,-0.366,185923
-0.298,-0.004,-0.958,-0.244,185927
-0.297,-0.004,-0.958,-0.183,185931
-0.297,-0.004,-0.958,-0.244,185935
-0.297,-0.004,-0.958,-0.244,185939
-0.297,-0.004,-0.96,-0.244,185943
-0.297,-0.004,-0.96,-0.183,185947
-0.298,-0.004,-0.959,-0.183,185951
-0.298,-0.004,-0.959,-0.183,185955
-0.298,-0.004,-0.959,-0.183,185959
-0.297,-0.003,-0.958,-0.244,185963
-0.297,-0.003,-0.958,-0.183,185967
-0.297,-0.004,-0.958,-0.122,185971
-0.297,-0.004,-0.958,-0.122,185975
-0.297,-0.004,-0.958,-0.122,185979
-0.298,-0.005,-0.959,-0.122,185983
-0.298,-0.005,-0.959,-0.305,185987
-0.296,-0.004,-0.959,-0.183,185991
-0.296,-0.004,-0.959,-0.244,185995
-0.297,-0.006,-0.959,-0.244,185999
-0.297,-0.006,-0.959,-0.244,186003
-0.297,-0.006,-0.959,-0.122,186007
-0.297,-0.006,-0.959,-0.244,186011
-0.297,-0.006,-0.959,-0.244,186015
-0.298,-0.006,-0.959,-0.122,186019
-0.298,-0.006,-0.959,-0.122,186023
-0.298,-0.006,-0.959,-0.244,186027
-0.298,-0.005,-0.959,-0.244,186031
-0.298,-0.005,-0.959,-0.183,186036
-0.296,-0.006,-0.959,-0.122,186040
-0.296,-0.006,-0.959,-0.122,186044
-0.296,-0.006,-0.959,-0.122,186048
-0.299,-0.006,-0.958,-0.122,186052
-0.299,-0.006,-0.958,-0.183,186056
-0.298,-0.006,-0.958,-0.122,186060
-0.298,-0.006,-0.958,-0.244,186064
-0.298,-0.006,-0.958,-0.244,186068
-0.297,-0.003,-0.959,-0.183,186072
-0.297,-0.003,-0.959,-0.244,186076
-0.297,-0.004,-0.96,-0.244,186080
-0.297,-0.004,-0.96,-0.305,186084
-0.297,-0.004,-0.96,-0.305,186088
-0.295,-0.003,-0.961,-0.244,186092
-0.295,-0.003,-0.961,-0.183,186096
-0.297,-0.005,-0.959,-0.122,186100
-0.297,-0.005,-0.959,-0.061,186104
-0.297,-0.005,-0.959,-0.061,186108
-0.296,-0.005,-0.957,-0.183,186112
-0.296,-0.005,-0.957,-0.122,186116
-0.296,-0.003,-0.959,-0.244,186120
-0.296,-0.003,-0.959,-0.366,186124
-0.296,-0.003,-0.959,-0.366,186128
-0.296,-0.005,-0.959,-0.366,186132
-0.296,-0.005,-0.959,-0.305,186136
-0.297,-0.005,-0.959,-0.244,186140
-0.297,-0.005,-0.959,-0.183,186144
-0.297,-0.003,-0.961,-0.122,186148
-0.297,-0.003,-0.961,-0.122,186152
-0.297,-0.003,-0.961,-0.183,186156
-0.297,-0.005,-0.958,-0.122,186160
-0.297,-0.005,-0.958,-0.061,186164
-0.298,-0.005,-0.961,-0.061,186168
-0.298,-0.005,-0.961,-0.061,186172
-0.298,-0.005,-0.961,-0.122,186176
-0.296,-0.005,-0.959,-0.244,186180
-0.296,-0.005,-0.959,-0.122,186184
-0.297,-0.006,-0.957,-0.244,186188
-0.297,-0.006,-0.957,-0.244,186192
-0.297,-0.006,-0.957,-0.183,186196
-0.297,-0.005,-0.959,-0.061,186200
-0.297,-0.005,-0.959,-0.122,186204
-0.297,-0.006,-0.96,-0.183,186208
-0.297,-0.006,-0.96,-0.183,186212
-0.297,-0.006,-0.96,-0.183,186216
-0.297,-0.005,-0.958,-0.122,186220
-0.297,-0.005,-0.958,-0.183,186224
-0.297,-0.006,-0.957,-0.061,186228
-0.297,-0.006,-0.957,-0.183,186233
-0.297,-0.006,-0.957,-0.183,186237
-0.298,-0.005,-0.959,-0.305,186241
-0.298,-0.005,-0.959,-0.183,186245
-0.296,-0.005,-0.959,-0.183,186249
-0.296,-0.005,-0.959,-0.244,186253
-0.296,-0.005,-0.959,-0.244,186257
-0.298,-0.005,-0.959,-0.183,186261
-0.298,-0.005,-0.959,-0.122,186265
-0.299,-0.005,-0.958,-0.183,186269
-0.299,-0.005,-0.958,-0.244,186273
-0.299,-0.005,-0.958,-0.244,186277
-0.299,-0.003,-0.958,-0.244,186281
-0.299,-0.003,-0.958,-0.305,186285
-0.298,-0.002,-0.957,-0.366,186289
-0.298,-0.002,-0.957,-0.244,186293
-0.298,-0.003,-0.959,-0.061,186297
-0.298,-0.003,-0.959,-0.061,186301
-0.298,-0.003,-0.959,-0.244,186305
-0.298,-0.004,-0.959,-0.183,186309
-0.298,-0.004,-0.959,-0.183,186313
-0.298,-0.003,-0.957,-0.122,186317
-0.298,-0.003,-0.957,-0.122,186321
-0.298,-0.003,-0.957,-0.122,186325
-0.297,-0.004,-0.959,-0.305,186329
-0.297,-0.004,-0.959,-0.183,186333
-0.296,-0.004,-0.958,-0.122,186337
-0.296,-0.004,-0.958,-0.122,186341
-0.296,-0.004,-0.958,-0.244,186345
-0.296,-0.004,-0.958,-0.183,186349
-0.296,-0.004,-0.958,-0.183,186353
-0.298,-0.005,-0.958,-0.183,186357
-0.298,-0.005,-0.958,-0.183,186361
-0.298,-0.005,-0.958,-0.183,186365
-0.296,-0.004,-0.957,-0.244,186369
-0.296,-0.004,-0.957,-0.366,186373
-0.297,-0.005,-0.958,-0.244,186377
-0.297,-0.005,-0.958,-0.244,186381
-0.297,-0.005,-0.958,-0.244,186385
-0.297,-0.005,-0.961,-0.305,186389
-0.297,-0.005,-0.961,-0.061,186393
-0.297,-0.005,-0.959,-0.061,186397
-0.297,-0.005,-0.959,-0.122,186402
-0.297,-0.005,-0.959,-0.122,186406
-0.297,-0.006,-0.959,-0.244,186410
-0.297,-0.006,-0.959,-0.183,186414
-0.298,-0.007,-0.96,-0.122,186418
-0.298,-0.007,-0.96,-0.244,186422
-0.298,-0.007,-0.96,-0.244,186426
-0.297,-0.006,-0.961,-0.061,186430
-0.297,-0.006,-0.961,-0.183,186434
-0.296,-0.006,-0.958,-0.244,186438
-0.296,-0.006,-0.958,-0.183,186442
-0.296,-0.006,-0.959,-0.183,186446
-0.296,-0.006,-0.959,-0.183,186450
-0.296,-0.006,-0.959,-0.244,186454
-0.298,-0.005,-0.959,-0.183,186458
-0.298,-0.005,-0.959,-0.183,186462
-0.297,-0.004,-0.959,-0.183,186466
-0.297,-0.004,-0.959,-0.183,186470
-0.297,-0.004,-0.959,-0.244,186474
-0.297,-0.005,-0.958,-0.305,186478
-0.297,-0.005,-0.958,-0.244,186482
-0.296,-0.006,-0.96,-0.183,186486
-0.296,-0.006,-0.96,-0.183,186490
-0.296,-0.006,-0.96,-0.244,186494
-0.298,-0.006,-0.959,-0.305,186498
-0.298,-0.006,-0.959,-0.183,186502
-0.297,-0.003,-0.958,-0.244,186506
-0.297,-0.003,-0.958,-0.305,186510
-0.297,-0.003,-0.958,-0.305,186514
-0.298,-0.003,-0.961,-0.183,186518
-0.298,-0.003,-0.961,-0.183,186522
-0.296,-0.003,-0.959,-0.305,186526
-0.296,-0.003,-0.959,-0.244,186530
-0.296,-0.003,-0.959,-0.244,186534
-0.298,-0.003,-0.958,-0.122,186538
-0.298,-0.003,-0.958,-0.122,186542
-0.298,-0.002,-0.959,-0.366,186546
-0.298,-0.002,-0.959,-0.244,186550
-0.298,-0.002,-0.959,-0.244,186554
-0.297,-0.002,-0.959,-0.305,186558
-0.297,-0.002,-0.959,-0.244,186562
-0.296,-0.003,-0.958,-0.122,186566
-0.296,-0.003,-0.958,-0.183,186571
-0.297,-0.003,-0.958,-0.366,186575
-0.297,-0.003,-0.958,-0.366,186579
-0.297,-0.003,-0.958,-0.305,186583
-0.297,-0.003,-0.959,-0.183,186587
-0.297,-0.003,-0.959,-0.244,186591
-0.298,-0.003,-0.958,-0.305,186595
-0.298,-0.003,-0.958,-0.305,186599
-0.298,-0.003,-0.958,-0.122,186603
-0.296,-0.004,-0.958,-0.122,186607
-0.296,-0.004,-0.958,-0.122,186611
-0.296,-0.005,-0.958,-0.061,186615
-0.296,-0.005,-0.958,-0.061,186619
-0.296,-0.005,-0.958,-0.183,186623
-0.298,-0.005,-0.958,-0.122,186627
-0.298,-0.005,-0.958,-0.122,186631
-0.298,-0.005,-0.96,-0.244,186635
-0.298,-0.005,-0.96,-0.244,186639
-0.298,-0.005,-0.96,-0.366,186643
-0.295,-0.007,-0.959,-0.183,186647
-0.295,-0.007,-0.959,-0.061,186651
-0.296,-0.009,-0.958,-0.122,186655
-0.296,-0.009,-0.958,-0.183,186659
-0.296,-0.009,-0.958,-0.183,186663
-0.298,-0.007,-0.961,-0.305,186667
-0.298,-0.007,-0.961,-0.244,186671
-0.297,-0.006,-0.96,-0.305,186675
-0.297,-0.006,-0.96,-0.427,186679
-0.297,-0.006,-0.96,-0.427,186683
-0.297,-0.006,-0.958,-0.183,186687
-0.297,-0.006,-0.958,-0.122,186691
-0.297,-0.005,-0.96,-0.244,186695
-0.297,-0.005,-0.96,-0.061,186699
-0.297,-0.005,-0.96,-0.061,186703
-0.298,-0.005,-0.961,-0.183,186707
-0.298,-0.005,-0.961,-0.244,186711
-0.296,-0.005,-0.958,-0.122,186715
-0.296,-0.005,-0.958,-0.244,186719
-0.297,-0.004,-0.958,-0.244,186723
-0.297,-0.004,-0.958,-0.244,186727
-0.297,-0.004,-0.958,-0.122,186731
-0.298,-0.005,-0.958,-0.183,186736
-0.298,-0.005,-0.958,-0.183,186740
-0.298,-0.005,-0.958,-0.183,186744
-0.298,-0.005,-0.958,-0.183,186748
-0.298,-0.005,-0.958,-0.122,186752
-0.298,-0.005,-0.961,-0.183,186756
-0.298,-0.005,-0.961,-0.122,186760
-0.297,-0.005,-0.959,-0.061,186764
-0.297,-0.005,-0.959,-0.061,186768
-0.297,-0.005,-0.959,-0.183,186772
-0.296,-0.005,-0.958,-0.244,186776
-0.296,-0.005,-0.958,-0.061,186780
-0.297,-0.004,-0.958,-0.061,186784
-0.297,-0.004,-0.958,-0.244,186788
-0.297,-0.004,-0.958,-0.244,186792
-0.297,-0.004,-0.958,-0.305,186796
-0.297,-0.004,-0.958,-0.183,186800
-0.296,-0.005,-0.957,-0.183,186804
-0.296,-0.005,-0.957,-0.122,186808
-0.296,-0.005,-0.957,-0.122,186812
-0.297,-0.003,-0.959,-0.183,186816
-0.297,-0.003,-0.959,-0.183,186820
-0.298,-0.004,-0.96,-0.122,186824
-0.298,-0.004,-0.96,-0.122,186828
-0.298,-0.004,-0.96,-0.122,186832
-0.297,-0.004,-0.959,-0.244,186836
-0.297,-0.004,-0.959,-0.122,186840
-0.295,-0.004,-0.96,-0.122,186844
-0.295,-0.004,-0.96,-0.244,186848
-0.295,-0.004,-0.96,-0.244,186852
-0.296,-0.003,-0.959,-0.183,186856
-0.296,-0.003,-0.959,-0.305,186860
-0.296,-0.004,-0.959,-0.122,186864
-0.296,-0.004,-0.959,-0.244,186868
-0.296,-0.004,-0.959,-0.183,186872
-0.296,-0.004,-0.959,-0.183,186876
-0.296,-0.004,-0.959,0.0,186880
-0.298,-0.005,-0.958,0.061,186884
-0.298,-0.005,-0.958,-0.244,186888
-0.297,-0.005,-0.957,-0.183,186892
-0.297,-0.005,-0.957,-0.183,186896
-0.297,-0.005,-0.957,-0.183,186900
-0.296,-0.006,-0.959,-0.183,186904
-0.296,-0.006,-0.959,-0.305,186908
-0.297,-0.006,-0.959,-0.061,186912
-0.297,-0.006,-0.959,-0.061,186916
-0.297,-0.006,-0.959,-0.183,186921
-0.297,-0.006,-0.959,-0.366,186925
-0.297,-0.006,-0.959,-0.183,186929
-0.297,-0.006,-0.958,-0.122,186933
-0.297,-0.006,-0.958,-0.183,186937
-0.297,-0.006,-0.958,-0.183,186941
-0.299,-0.005,-0.957,-0.244,186945
-0.299,-0.005,-0.957,0.0,186949
-0.298,-0.005,-0.959,-0.183,186953
-0.298,-0.005,-0.959,-0.122,186957
-0.298,-0.005,-0.959,-0.122,186961
-0.297,-0.005,-0.959,-0.122,186965
-0.297,-0.005,-0.959,-0.122,186969
-0.296,-0.004,-0.96,-0.305,186973
-0.296,-0.004,-0.96,-0.244,186977
-0.296,-0.004,-0.96,-0.244,186981
-0.297,-0.004,-0.959,-0.122,186985
-0.297,-0.004,-0.959,-0.183,186989
-0.298,-0.004,-0.958,-0.183,186993
-0.298,-0.004,-0.958,-0.183,186997
-0.297,-0.005,-0.958,-0.183,187001
-0.297,-0.005,-0.958,-0.183,187005
-0.297,-0.005,-0.958,-0.183,187009
-0.297,-0.003,-0.959,-0.244,187013
-0.297,-0.003,-0.959,-0.366,187017
-0.298,-0.004,-0.959,-0.305,187021
-0.298,-0.004,-0.959,-0.305,187025
-0.298,-0.004,-0.959,-0.244,187029
-0.299,-0.004,-0.959,-0.244,187033
-0.299,-0.004,-0.959,-0.122,187037
-0.299,-0.002,-0.958,-0.427,187041
-0.299,-0.002,-0.958,-0.427,187045
-0.299,-0.002,-0.958,-0.305,187049
-0.297,-0.003,-0.958,-0.122,187053
-0.297,-0.003,-0.958,-0.183,187057
-0.298,-0.004,-0.96,-0.244,187061
-0.298,-0.004,-0.96,-0.244,187065
-0.298,-0.004,-0.96,-0.366,187069
-0.298,-0.004,-0.958,-0.305,187073
-0.298,-0.004,-0.958,-0.305,187077
-0.298,-0.003,-0.958,-0.183,187081
-0.298,-0.003,-0.958,-0.183,187085
-0.298,-0.003,-0.958,-0.183,187089
-0.298,-0.006,-0.957,-0.183,187093
-0.298,-0.006,-0.957,-0.122,187097
-0.296,-0.005,-0.958,-0.183,187102
-0.296,-0.005,-0.958,-0.183,187106
-0.296,-0.005,-0.958,-0.183,187110
-0.296,-0.004,-0.959,-0.122,187114
-0.296,-0.004,-0.959,-0.305,187118
-0.298,-0.004,-0.958,-0.244,187122
-0.298,-0.004,-0.958,-0.183,187126
-0.298,-0.004,-0.958,-0.183,187130
-0.297,-0.004,-0.958,-0.183,187134
-0.297,-0.004,-0.958,-0.183,187138
-0.297,-0.005,-0.959,-0.183,187142
-0.297,-0.005,-0.959,-0.244,187146
-0.297,-0.006,-0.96,-0.122,187150
-0.297,-0.006,-0.96,-0.122,187154
-0.297,-0.006,-0.96,-0.244,187158
-0.298,-0.006,-0.96,-0.305,187162
-0.298,-0.006,-0.96,-0.122,187166
-0.296,-0.005,-0.959,-0.122,187170
-0.296,-0.005,-0.959,-0.122,187174
-0.296,-0.005,-0.959,-0.122,187178
-0.296,-0.005,-0.958,-0.122,187182
-0.296,-0.005,-0.958,-0.305,187186
-0.296,-0.005,-0.959,-0.244,187190
-0.296,-0.005,-0.959,-0.244,187194
-0.296,-0.005,-0.959,-0.244,187198
-0.298,-0.005,-0.96,-0.305,187202
-0.298,-0.005,-0.96,-0.244,187206
-0.297,-0.003,-0.958,-0.122,187210
-0.297,-0.003,-0.958,-0.122,187214
-0.297,-0.003,-0.958,-0.122,187218
-0.296,-0.006,-0.958,-0.244,187222
-0.296,-0.006,-0.958,-0.183,187226
-0.298,-0.005,-0.959,-0.183,187230
-0.298,-0.005,-0.959,-0.305,187234
-0.298,-0.005,-0.959,-0.305,187238
-0.297,-0.005,-0.958,-0.183,187242
-0.297,-0.005,-0.958,-0.061,187246
-0.296,-0.006,-0.958,-0.122,187250
-0.296,-0.006,-0.958,-0.183,187254
-0.296,-0.006,-0.958,-0.183,187258
-0.298,-0.004,-0.958,-0.305,187262
-0.298,-0.004,-0.958,-0.244,187266
-0.298,-0.003,-0.958,-0.183,187271
-0.298,-0.003,-0.958,-0.183,187275
-0.298,-0.003,-0.958,-0.183,187279
-0.297,-0.004,-0.958,-0.244,187283
-0.297,-0.004,-0.958,-0.244,187287
-0.298,-0.004,-0.957,-0.244,187291
-0.298,-0.004,-0.957,-0.244,187295
-0.299,-0.002,-0.958,-0.183,187299
-0.299,-0.002,-0.958,-0.183,187303
-0.299,-0.002,-0.958,-0.122,187307
-0.299,-0.002,-0.958,-0.183,187311
-0.299,-0.002,-0.958,-0.183,187315
-0.297,-0.003,-0.957,-0.244,187319
-0.297,-0.003,-0.957,-0.244,187323
-0.297,-0.003,-0.957,-0.305,187327
-0.298,-0.005,-0.96,-0.122,187331
-0.298,-0.005,-0.96,-0.122,187335
-0.298,-0.004,-0.959,-0.244,187339
-0.298,-0.004,-0.959,-0.244,187343
-0.298,-0.004,-0.959,-0.183,187347
-0.298,-0.005,-0.959,-0.183,187351
-0.298,-0.005,-0.959,-0.122,187355
-0.298,-0.005,-0.961,-0.122,187359
-0.298,-0.005,-0.961,-0.183,187363
-0.298,-0.005,-0.961,-0.183,187367
-0.297,-0.006,-0.958,-0.183,187371
-0.297,-0.006,-0.958,-0.122,187375
-0.298,-0.004,-0.957,-0.244,187379
-0.298,-0.004,-0.957,-0.305,187383
-0.298,-0.004,-0.957,-0.305,187387
-0.299,-0.005,-0.959,-0.244,187391
-0.299,-0.005,-0.959,-0.122,187395
-0.297,-0.005,-0.961,-0.183,187399
-0.297,-0.005,-0.961,-0.183,187403
-0.297,-0.005,-0.961,-0.183,187407
-0.296,-0.006,-0.959,-0.183,187411
-0.296,-0.006,-0.959,-0.244,187415
-0.297,-0.006,-0.959,-0.061,187419
-0.297,-0.006,-0.959,-0.122,187424
-0.297,-0.006,-0.959,-0.305,187428
-0.297,-0.006,-0.959,-0.305,187432
-0.297,-0.006,-0.959,-0.244,187436
-0.297,-0.006,-0.959,-0.061,187440
-0.297,-0.006,-0.959,-0.183,187444
-0.297,-0.006,-0.96,-0.183,187448
-0.297,-0.006,-0.96,-0.183,187452
-0.297,-0.006,-0.96,-0.305,187456
-0.297,-0.005,-0.961,-0.244,187460
-0.297,-0.005,-0.961,-0.122,187464
-0.295,-0.005,-0.961,-0.122,187468
-0.295,-0.005,-0.961,-0.122,187472
-0.295,-0.005,-0.961,-0.244,187476
-0.296,-0.004,-0.961,-0.244,187480
-0.296,-0.004,-0.961,-0.305,187484
-0.297,-0.005,-0.958,-0.183,187488
-0.297,-0.005,-0.958,-0.183,187492
-0.297,-0.005,-0.958,-0.183,187496
-0.296,-0.006,-0.959,-0.244,187500
-0.296,-0.006,-0.959,-0.183,187504
-0.297,-0.006,-0.96,-0.061,187508
-0.297,-0.006,-0.96,-0.305,187512
-0.297,-0.006,-0.96,-0.305,187516
-0.296,-0.003,-0.958,-0.366,187520
-0.296,-0.003,-0.958,-0.183,187524
-0.297,-0.003,-0.959,-0.183,187528
-0.297,-0.003,-0.959,-0.244,187532
-0.297,-0.003,-0.959,-0.244,187536
-0.297,-0.005,-0.96,-0.183,187540
-0.297,-0.005,-0.96,-0.183,187544
-0.297,-0.005,-0.96,-0.061,187548
-0.297,-0.005,-0.96,-0.183,187552
-0.297,-0.005,-0.96,-0.183,187556
-0.296,-0.004,-0.959,-0.122,187560
-0.296,-0.004,-0.959,-0.244,187564
-0.298,-0.004,-0.958,-0.183,187568
-0.298,-0.004,-0.958,-0.122,187572
-0.298,-0.005,-0.959,-0.305,187576
-0.298,-0.005,-0.959,-0.305,187580
-0.298,-0.005,-0.959,-0.305,187585
-0.298,-0.005,-0.958,-0.244,187589
-0.298,-0.005,-0.958,-0.183,187593
-0.298,-0.006,-0.958,-0.183,187597
-0.298,-0.006,-0.958,-0.183,187601
-0.298,-0.006,-0.958,-0.183,187605
-0.296,-0.005,-0.96,-0.183,187609
-0.296,-0.005,-0.96,-0.183,187613
-0.297,-0.006,-0.958,-0.122,187617
-0.297,-0.006,-0.958,-0.122,187621
-0.297,-0.006,-0.958,-0.183,187625
-0.297,-0.005,-0.957,-0.244,187629
-0.297,-0.005,-0.957,-0.183,187633
-0.296,-0.005,-0.961,-0.122,187637
-0.296,-0.005,-0.961,-0.183,187641
-0.296,-0.005,-0.961,-0.183,187645
-0.297,-0.004,-0.959,-0.244,187649
-0.297,-0.004,-0.959,-0.244,187653
-0.298,-0.005,-0.959,-0.305,187657
-0.298,-0.005,-0.959,-0.183,187661
-0.298,-0.005,-0.959,-0.183,187665
-0.296,-0.005,-0.958,-0.244,187669
-0.296,-0.005,-0.958,-0.183,187673
-0.295,-0.005,-0.958,-0.183,187677
-0.295,-0.005,-0.958,-0.183,187681
-0.295,-0.005,-0.958,-0.183,187685
-0.296,-0.005,-0.959,-0.183,187689
-0.296,-0.005,-0.959,-0.244,187693
-0.297,-0.006,-0.96,-0.122,187697
