Acc_X,Acc_Y,Acc_Z,Rot_Z,Millis
0.965,-0.013,0.29,-0.305,29006
0.965,-0.013,0.29,-0.305,29010
0.964,-0.011,0.29,-0.305,29014
0.964,-0.011,0.29,-0.244,29018
0.961,-0.012,0.294,-0.366,29022
0.961,-0.012,0.294,-0.366,29026
0.961,-0.012,0.294,-0.366,29030
0.962,-0.011,0.295,-0.244,29034
0.962,-0.011,0.295,-0.366,29038
0.962,-0.01,0.296,-0.366,29042
0.962,-0.01,0.296,-0.427,29046
0.962,-0.01,0.296,-0.427,29050
0.962,-0.011,0.298,-0.366,29054
0.962,-0.011,0.298,0.0,29058
0.962,-0.011,0.299,0.061,29062
0.962,-0.011,0.299,0.061,29066
0.962,-0.011,0.299,0.061,29070
0.961,-0.011,0.299,0.305,29074
0.961,-0.011,0.299,0.488,29078
0.962,-0.013,0.299,0.671,29082
0.962,-0.013,0.299,0.793,29086
0.962,-0.013,0.299,0.793,29090
0.961,-0.017,0.299,1.099,29094
0.961,-0.017,0.299,0.549,29098
0.96,-0.022,0.296,-0.427,29102
0.96,-0.022,0.296,-0.549,29106
0.963,-0.021,0.294,-0.427,29110
0.963,-0.021,0.294,-0.427,29114
0.963,-0.021,0.294,-0.488,29118
0.963,-0.02,0.296,-0.366,29122
0.963,-0.02,0.296,-0.122,29126
0.963,-0.02,0.297,-0.244,29130
0.963,-0.02,0.297,-0.244,29134
0.963,-0.02,0.297,-0.122,29138
0.963,-0.019,0.298,0.0,29142
0.963,-0.019,0.298,-0.183,29146
0.961,-0.02,0.296,-0.244,29150
0.961,-0.02,0.296,-0.244,29154
0.961,-0.02,0.296,-0.488,29158
0.962,-0.019,0.294,-0.61,29162
0.962,-0.019,0.294,-0.549,29166
0.964,-0.016,0.296,-0.305,29170
0.964,-0.016,0.296,-0.305,29174
0.964,-0.016,0.296,-0.061,29178
0.964,-0.015,0.295,-0.061,29182
0.964,-0.015,0.295,-0.305,29186
0.964,-0.016,0.294,-0.305,29190
0.964,-0.016,0.294,-0.305,29194
0.964,-0.016,0.294,-0.366,29198
0.964,-0.014,0.293,-0.488,29202
0.964,-0.014,0.293,-0.366,29206
0.965,-0.016,0.293,-0.122,29210
0.965,-0.016,0.293,-0.122,29214
0.965,-0.016,0.293,-0.183,29218
0.965,-0.018,0.295,-0.244,29222
0.965,-0.018,0.295,-0.366,29226
0.965,-0.018,0.292,-0.244,29230
0.965,-0.018,0.292,-0.244,29234
0.965,-0.018,0.292,-0.122,29238
0.964,-0.016,0.292,-0.366,29242
0.964,-0.016,0.292,-0.244,29246
0.963,-0.016,0.292,-0.244,29250
0.963,-0.016,0.292,-0.244,29254
0.963,-0.016,0.292,-0.244,29258
0.964,-0.014,0.295,-0.183,29262
0.964,-0.014,0.295,-0.183,29266
0.963,-0.014,0.293,-0.366,29270
0.963,-0.014,0.293,-0.305,29274
0.963,-0.014,0.293,-0.305,29278
0.962,-0.013,0.294,-0.305,29282
0.962,-0.013,0.294,-0.305,29286
0.961,-0.013,0.294,-0.244,29290
0.961,-0.013,0.294,-0.305,29294
0.961,-0.013,0.294,-0.305,29298
0.962,-0.013,0.295,-0.305,29302
0.962,-0.013,0.295,-0.183,29306
0.963,-0.011,0.297,-0.305,29310
0.963,-0.011,0.297,-0.244,29314
0.963,-0.011,0.297,-0.244,29318
0.961,-0.014,0.299,0.0,29322
0.961,-0.014,0.299,0.0,29326
0.96,-0.014,0.297,0.061,29330
0.96,-0.014,0.297,0.0,29334
0.96,-0.014,0.297,0.0,29338
0.961,-0.013,0.298,0.122,29342
0.961,-0.013,0.298,0.305,29346
0.96,-0.016,0.299,0.305,29350
0.96,-0.016,0.299,0.183,29354
0.96,-0.016,0.299,0.183,29358
0.962,-0.016,0.301,-0.183,29362
0.962,-0.016,0.301,-0.305,29366
0.963,-0.015,0.298,-0.305,29370
0.963,-0.015,0.298,-0.244,29374
0.963,-0.015,0.298,-0.244,29378
0.962,-0.016,0.295,-0.366,29382
0.962,-0.016,0.295,-0.366,29386
0.962,-0.016,0.295,-0.244,29390
0.962,-0.016,0.295,-0.244,29394
0.963,-0.014,0.296,-0.061,29398
0.963,-0.014,0.296,-0.061,29402
0.963,-0.014,0.296,-0.061,29406
0.964,-0.015,0.297,-0.122,29410
0.964,-0.015,0.297,-0.122,29414
0.963,-0.016,0.294,-0.244,29418
0.963,-0.016,0.294,-0.244,29422
0.963,-0.016,0.294,-0.305,29426
0.962,-0.017,0.296,-0.244,29430
0.962,-0.017,0.296,-0.061,29434
0.963,-0.016,0.295,-0.183,29438
0.963,-0.016,0.295,-0.183,29442
0.963,-0.016,0.295,-0.122,29446
0.963,-0.016,0.298,-0.366,29450
0.963,-0.016,0.298,-0.305,29454
0.964,-0.016,0.294,-0.305,29458
0.964,-0.016,0.294,-0.305,29462
0.964,-0.016,0.294,-0.305,29466
0.964,-0.017,0.293,-0.244,29470
0.964,-0.017,0.293,-0.305,29474
0.964,-0.016,0.292,-0.244,29478
0.964,-0.016,0.292,-0.244,29482
0.964,-0.016,0.292,-0.183,29486
0.965,-0.017,0.291,-0.244,29490
0.965,-0.017,0.291,-0.305,29494
0.964,-0.017,0.291,-0.244,29498
0.964,-0.017,0.291,-0.244,29502
0.964,-0.017,0.291,-0.366,29506
0.964,-0.017,0.294,-0.305,29510
0.964,-0.017,0.294,-0.183,29514
0.964,-0.016,0.293,-0.183,29518
0.964,-0.016,0.293,-0.122,29522
0.964,-0.016,0.293,-0.122,29526
0.963,-0.015,0.295,-0.122,29530
0.963,-0.015,0.295,-0.122,29534
0.963,-0.015,0.295,-0.183,29538
0.963,-0.015,0.295,-0.122,29542
0.963,-0.015,0.295,-0.122,29546
0.963,-0.016,0.296,-0.183,29550
0.963,-0.016,0.296,-0.122,29554
0.961,-0.014,0.296,-0.061,29558
0.961,-0.014,0.296,0.061,29562
0.961,-0.014,0.296,0.061,29566
0.963,-0.016,0.296,-0.061,29570
0.963,-0.016,0.296,-0.061,29574
0.961,-0.016,0.298,0.0,29578
0.961,-0.016,0.298,-0.122,29582
0.961,-0.016,0.298,-0.122,29586
0.962,-0.015,0.298,-0.122,29590
0.962,-0.015,0.298,0.061,29594
0.96,-0.016,0.297,-0.122,29598
0.96,-0.016,0.297,-0.122,29602
0.96,-0.016,0.297,-0.122,29606
0.961,-0.017,0.296,0.0,29610
0.961,-0.017,0.296,-0.244,29614
0.962,-0.016,0.296,-0.305,29618
0.962,-0.016,0.296,-0.366,29622
0.962,-0.016,0.296,-0.366,29626
0.963,-0.016,0.296,-0.305,29630
0.963,-0.016,0.296,-0.183,29634
0.962,-0.016,0.295,-0.244,29638
0.962,-0.016,0.295,-0.122,29642
0.962,-0.016,0.295,-0.122,29646
0.961,-0.015,0.297,-0.122,29650
0.961,-0.015,0.297,-0.122,29654
0.963,-0.014,0.295,-0.183,29658
0.963,-0.014,0.295,-0.244,29662
0.963,-0.015,0.296,-0.366,29666
0.963,-0.015,0.296,-0.366,29670
0.963,-0.015,0.296,-0.244,29674
0.962,-0.015,0.296,-0.061,29678
0.962,-0.015,0.296,0.061,29682
0.962,-0.014,0.295,-0.061,29686
0.962,-0.014,0.295,-0.061,29690
0.962,-0.014,0.295,-0.183,29694
0.963,-0.014,0.294,0.0,29698
0.963,-0.014,0.294,-0.183,29702
0.961,-0.014,0.295,-0.122,29706
0.961,-0.014,0.295,-0.122,29710
0.961,-0.014,0.295,-0.122,29714
0.962,-0.015,0.295,-0.244,29718
0.962,-0.015,0.295,-0.183,29722
0.963,-0.015,0.295,-0.122,29726
0.963,-0.015,0.295,-0.122,29730
0.963,-0.015,0.295,-0.061,29734
0.965,-0.016,0.294,0.0,29738
0.965,-0.016,0.294,-0.183,29741
0.963,-0.016,0.294,-0.183,29746
0.963,-0.016,0.294,-0.183,29750
0.963,-0.016,0.294,-0.122,29754
0.963,-0.016,0.295,-0.122,29758
0.963,-0.016,0.295,0.0,29761
0.962,-0.016,0.293,-0.122,29765
0.962,-0.016,0.293,-0.122,29769
0.962,-0.016,0.293,-0.061,29773
0.963,-0.016,0.295,0.0,29777
0.963,-0.016,0.295,-0.244,29781
0.964,-0.015,0.296,-0.244,29785
0.964,-0.015,0.296,-0.244,29789
0.964,-0.015,0.296,-0.061,29793
0.961,-0.017,0.296,-0.122,29797
0.961,-0.017,0.296,-0.122,29801
0.963,-0.018,0.293,-0.305,29805
0.963,-0.018,0.293,-0.183,29809
0.963,-0.018,0.293,-0.183,29813
0.965,-0.017,0.293,0.0,29817
0.965,-0.017,0.293,-0.122,29821
0.964,-0.017,0.295,-0.183,29825
0.964,-0.017,0.295,-0.061,29829
0.964,-0.017,0.295,-0.061,29833
0.961,-0.019,0.295,-0.122,29837
0.961,-0.019,0.295,-0.183,29841
0.963,-0.018,0.295,-0.244,29845
0.963,-0.018,0.295,-0.122,29849
0.963,-0.018,0.295,-0.122,29853
0.964,-0.019,0.296,-0.183,29857
0.964,-0.019,0.296,-0.244,29861
0.962,-0.017,0.296,-0.122,29865
0.962,-0.017,0.296,-0.244,29869
0.962,-0.017,0.296,-0.244,29873
0.964,-0.017,0.293,-0.183,29877
0.964,-0.017,0.293,-0.244,29881
0.963,-0.018,0.293,-0.122,29885
0.963,-0.018,0.293,-0.122,29889
0.963,-0.018,0.293,-0.122,29893
0.962,-0.016,0.295,-0.183,29897
0.962,-0.016,0.295,-0.183,29901
0.962,-0.015,0.297,-0.183,29905
0.962,-0.015,0.297,-0.183,29909
0.962,-0.015,0.297,-0.183,29913
0.962,-0.015,0.297,-0.305,29917
0.962,-0.015,0.297,-0.366,29921
0.962,-0.014,0.292,-0.366,29925
0.962,-0.014,0.292,-0.488,29929
0.962,-0.014,0.293,-0.549,29933
0.962,-0.014,0.293,-0.549,29937
0.962,-0.014,0.293,-0.305,29941
0.966,-0.014,0.294,-0.122,29945
0.966,-0.014,0.294,-0.183,29949
0.962,-0.016,0.294,-0.183,29953
0.962,-0.016,0.294,-0.183,29957
0.962,-0.016,0.294,-0.366,29961
0.962,-0.018,0.292,-0.549,29965
0.962,-0.018,0.292,-0.305,29969
0.964,-0.017,0.292,-0.122,29973
0.964,-0.017,0.292,-0.122,29977
0.964,-0.017,0.292,0.122,29981
0.964,-0.018,0.294,0.122,29985
0.964,-0.018,0.294,-0.061,29989
0.961,-0.014,0.296,-0.244,29993
0.961,-0.014,0.296,-0.244,29997
0.961,-0.014,0.296,-0.305,30001
0.961,-0.015,0.296,-0.488,30005
0.961,-0.015,0.296,-0.549,30009
0.964,-0.014,0.296,-0.366,30013
0.964,-0.014,0.296,-0.366,30017
0.964,-0.014,0.296,-0.244,30021
0.961,-0.012,0.295,-0.244,30025
0.961,-0.012,0.295,-0.305,30029
0.961,-0.012,0.296,-0.122,30033
0.961,-0.012,0.296,-0.122,30037
0.961,-0.012,0.296,-0.183,30041
0.964,-0.013,0.296,-0.183,30045
0.964,-0.013,0.296,0.0,30049
0.965,-0.013,0.295,0.122,30053
0.965,-0.013,0.295,0.305,30057
0.965,-0.013,0.295,0.305,30061
0.963,-0.017,0.297,0.671,30065
0.963,-0.017,0.297,0.488,30069
0.96,-0.019,0.297,-0.122,30073
0.96,-0.019,0.297,-0.244,30077
0.96,-0.019,0.297,-0.244,30081
0.963,-0.017,0.299,-0.305,30085
0.963,-0.017,0.299,-0.549,30089
0.961,-0.018,0.297,-0.305,30093
0.961,-0.018,0.297,-0.244,30097
0.961,-0.018,0.297,-0.244,30101
0.965,-0.017,0.293,-0.183,30105
0.965,-0.017,0.293,-0.183,30109
0.964,-0.016,0.292,-0.061,30113
0.964,-0.016,0.292,-0.183,30117
0.964,-0.016,0.292,-0.183,30121
0.965,-0.017,0.292,-0.305,30125
0.965,-0.017,0.292,-0.366,30129
0.965,-0.017,0.292,-0.427,30133
0.965,-0.017,0.292,-0.549,30137
0.965,-0.017,0.292,-0.549,30141
0.964,-0.018,0.293,-0.305,30145
0.964,-0.018,0.293,-0.183,30149
0.967,-0.021,0.294,-0.244,30153
0.967,-0.021,0.294,-0.122,30157
0.967,-0.021,0.294,-0.122,30161
0.965,-0.022,0.292,-0.549,30165
0.965,-0.022,0.292,-0.671,30169
0.971,-0.02,0.29,-0.671,30173
0.971,-0.02,0.29,-0.427,30177
0.964,-0.02,0.288,-0.427,30181
0.964,-0.02,0.288,-0.427,30185
0.964,-0.02,0.288,-0.61,30189
0.964,-0.02,0.288,-0.671,30193
0.964,-0.02,0.288,-0.305,30197
0.965,-0.018,0.291,-0.122,30201
0.965,-0.018,0.291,-0.122,30205
0.965,-0.018,0.291,-0.305,30209
0.962,-0.018,0.293,-0.427,30213
0.962,-0.018,0.293,-0.366,30217
0.968,-0.015,0.294,-0.305,30221
0.968,-0.015,0.294,-0.305,30225
0.968,-0.015,0.294,-0.244,30229
0.962,-0.016,0.294,-0.244,30233
0.962,-0.016,0.294,-0.488,30237
0.966,-0.016,0.295,-0.549,30241
0.966,-0.016,0.295,-0.549,30245
0.966,-0.016,0.295,-0.183,30249
0.96,-0.016,0.295,0.0,30253
0.96,-0.016,0.295,-0.366,30257
0.955,-0.016,0.297,-0.916,30261
0.955,-0.016,0.297,-0.916,30265
0.955,-0.016,0.297,-0.916,30269
0.971,-0.011,0.298,-0.183,30273
0.971,-0.011,0.298,0.183,30277
0.959,-0.013,0.299,0.244,30281
0.959,-0.013,0.299,0.244,30285
0.959,-0.013,0.299,-0.183,30289
0.96,-0.016,0.297,-0.488,30293
0.96,-0.016,0.297,-0.549,30297
0.955,-0.016,0.298,-0.793,30301
0.955,-0.016,0.298,-0.793,30305
0.955,-0.016,0.298,-0.977,30309
0.962,-0.012,0.3,-0.977,30313
0.962,-0.012,0.3,-0.549,30317
0.969,-0.012,0.301,-0.305,30321
0.969,-0.012,0.301,-0.244,30325
0.969,-0.012,0.301,-0.244,30329
0.962,-0.013,0.298,-0.122,30333
0.962,-0.013,0.298,-0.549,30337
0.956,-0.016,0.296,-0.488,30341
0.956,-0.016,0.296,-0.732,30345
0.956,-0.016,0.296,-0.732,30349
0.943,-0.024,0.291,-1.953,30353
0.943,-0.024,0.291,-2.747,30357
0.989,-0.011,0.301,-1.465,30361
0.989,-0.011,0.301,0.793,30365
0.989,-0.011,0.301,0.793,30369
0.964,-0.013,0.299,1.892,30373
0.964,-0.013,0.299,1.038,30377
0.948,-0.023,0.291,-1.038,30381
0.948,-0.023,0.291,-1.099,30385
0.948,-0.023,0.291,-1.099,30389
0.962,-0.017,0.293,-1.038,30393
0.962,-0.017,0.293,-1.77,30397
0.966,-0.01,0.299,-0.916,30401
0.966,-0.01,0.299,0.793,30405
0.966,-0.01,0.299,0.793,30409
0.968,-0.011,0.297,1.038,30413
0.968,-0.011,0.297,-0.122,30417
0.951,-0.015,0.292,-0.854,30421
0.951,-0.015,0.292,-0.977,30425
0.951,-0.015,0.292,-0.977,30429
0.968,-0.011,0.297,-1.282,30433
0.968,-0.011,0.297,-0.61,30437
0.958,-0.008,0.294,-0.305,30441
0.958,-0.008,0.294,-1.038,30445
0.958,-0.008,0.294,-1.038,30449
0.963,-0.011,0.29,-1.892,30453
0.963,-0.011,0.29,-1.892,30457
0.962,-0.008,0.293,-1.953,30461
0.962,-0.008,0.293,-1.892,30465
0.96,-0.006,0.295,-1.709,30469
0.96,-0.006,0.295,-1.709,30473
0.96,-0.006,0.295,-1.282,30477
0.967,-0.008,0.295,-0.854,30481
0.967,-0.008,0.295,-0.427,30485
0.958,-0.01,0.294,-0.305,30489
0.958,-0.01,0.294,-0.305,30493
0.958,-0.01,0.294,-0.122,30497
0.963,-0.008,0.296,0.854,30501
0.963,-0.008,0.296,1.526,30505
0.957,-0.01,0.296,1.526,30509
0.957,-0.01,0.296,1.526,30513
0.957,-0.01,0.296,1.282,30517
0.965,-0.008,0.3,1.648,30521
0.965,-0.008,0.3,2.075,30525
0.961,-0.012,0.3,2.38,30529
0.961,-0.012,0.3,2.38,30533
0.961,-0.012,0.3,2.075,30537
0.957,-0.018,0.3,1.099,30541
0.957,-0.018,0.3,-0.305,30545
0.96,-0.014,0.304,-0.549,30549
0.96,-0.014,0.304,-0.549,30553
0.96,-0.014,0.304,-0.916,30557
0.959,-0.013,0.303,-1.282,30561
0.959,-0.013,0.303,-1.099,30565
0.964,-0.011,0.299,-0.793,30569
0.964,-0.011,0.299,-0.793,30573
0.964,-0.011,0.299,-1.038,30577
0.959,-0.012,0.295,-1.16,30581
0.959,-0.012,0.295,-0.732,30585
0.963,-0.014,0.295,-0.061,30589
0.963,-0.014,0.295,-0.061,30593
0.963,-0.014,0.295,0.183,30597
0.965,-0.018,0.293,0.366,30601
0.965,-0.018,0.293,0.366,30605
0.964,-0.022,0.29,-0.122,30609
0.964,-0.022,0.29,-0.244,30613
0.964,-0.022,0.29,-0.244,30617
0.965,-0.02,0.289,-0.244,30621
0.965,-0.02,0.289,-0.427,30625
0.963,-0.019,0.29,-0.244,30629
0.963,-0.019,0.29,0.0,30633
0.963,-0.019,0.29,0.0,30637
0.966,-0.018,0.292,0.183,30641
0.966,-0.018,0.292,0.244,30645
0.962,-0.017,0.296,0.122,30649
0.962,-0.017,0.296,-0.122,30653
0.962,-0.017,0.296,-0.122,30657
0.964,-0.018,0.295,-0.244,30661
0.964,-0.018,0.295,-0.305,30665
0.966,-0.016,0.293,-0.549,30669
0.966,-0.016,0.293,-0.549,30673
0.966,-0.016,0.293,-0.549,30677
0.965,-0.013,0.291,-0.549,30681
0.965,-0.013,0.291,-0.549,30685
0.965,-0.015,0.289,-0.488,30689
0.965,-0.015,0.289,-0.488,30693
0.965,-0.015,0.289,-0.488,30697
0.965,-0.015,0.289,-0.366,30701
0.965,-0.015,0.289,-0.122,30705
0.966,-0.016,0.292,-0.183,30709
0.966,-0.016,0.292,-0.305,30713
0.966,-0.016,0.292,-0.305,30717
0.964,-0.017,0.294,-0.244,30721
0.964,-0.017,0.294,-0.183,30725
0.963,-0.016,0.294,-0.061,30729
0.963,-0.016,0.294,0.061,30733
0.963,-0.017,0.295,0.183,30737
0.963,-0.017,0.295,0.183,30741
0.963,-0.017,0.295,0.183,30745
0.963,-0.014,0.297,-0.122,30749
0.963,-0.014,0.297,-0.122,30753
0.963,-0.015,0.3,-0.122,30757
0.963,-0.015,0.3,-0.122,30761
0.963,-0.015,0.3,-0.183,30765
0.96,-0.014,0.297,-0.366,30769
0.96,-0.014,0.297,-0.488,30773
0.96,-0.011,0.299,-0.549,30777
0.96,-0.011,0.299,-0.549,30781
0.96,-0.011,0.299,-0.732,30785
0.961,-0.008,0.302,-0.732,30789
0.961,-0.008,0.302,-0.793,30793
0.959,-0.009,0.3,-1.038,30797
0.959,-0.009,0.3,-1.038,30801
0.959,-0.009,0.3,-1.16,30805
0.957,-0.008,0.299,-1.282,30809
0.957,-0.008,0.299,-1.282,30813
0.959,-0.009,0.3,-1.282,30817
0.959,-0.009,0.3,-1.282,30821
0.959,-0.009,0.3,-1.16,30825
0.961,-0.009,0.298,-0.793,30829
0.961,-0.009,0.298,-0.61,30833
0.962,-0.009,0.298,-0.305,30837
0.962,-0.009,0.298,-0.305,30841
0.962,-0.009,0.298,-0.061,30845
0.962,-0.01,0.295,0.305,30849
0.962,-0.01,0.295,0.61,30853
0.961,-0.012,0.295,0.732,30857
0.961,-0.012,0.295,0.977,30861
0.961,-0.012,0.295,0.977,30865
0.964,-0.013,0.295,1.343,30869
0.964,-0.013,0.295,1.465,30873
0.962,-0.014,0.295,1.404,30877
0.962,-0.014,0.295,0.732,30881
0.962,-0.014,0.295,0.732,30885
0.96,-0.017,0.297,-0.305,30889
0.96,-0.017,0.297,-0.366,30893
0.961,-0.014,0.296,-0.366,30897
0.961,-0.014,0.296,-0.854,30901
0.961,-0.014,0.296,-0.854,30905
0.964,-0.012,0.296,-0.732,30909
0.964,-0.012,0.296,-0.427,30913
0.964,-0.014,0.294,-0.427,30917
0.964,-0.014,0.294,-0.366,30921
0.964,-0.014,0.294,-0.366,30925
0.966,-0.014,0.294,0.122,30929
0.966,-0.014,0.294,0.488,30933
0.962,-0.018,0.289,0.122,30937
0.962,-0.018,0.289,-0.427,30941
0.962,-0.018,0.289,-0.427,30945
0.965,-0.018,0.288,-0.427,30949
0.965,-0.018,0.288,-0.366,30953
0.967,-0.019,0.289,-0.427,30957
0.967,-0.019,0.289,-0.061,30961
0.967,-0.019,0.289,-0.061,30965
0.966,-0.02,0.291,-0.061,30969
0.966,-0.02,0.291,-0.244,30973
0.965,-0.017,0.293,-0.061,30977
0.965,-0.017,0.293,0.183,30981
0.963,-0.019,0.294,0.0,30985
0.963,-0.019,0.294,0.0,30988
0.963,-0.019,0.294,-0.122,30992
0.962,-0.02,0.296,-0.244,30996
0.962,-0.02,0.296,-0.366,31000
0.964,-0.017,0.297,-0.366,31004
0.964,-0.017,0.297,-0.366,31008
0.964,-0.017,0.297,-0.244,31013
0.963,-0.018,0.296,-0.305,31017
0.963,-0.018,0.296,-0.366,31021
0.963,-0.017,0.296,-0.366,31025
0.963,-0.017,0.296,-0.366,31029
0.963,-0.017,0.296,-0.366,31033
0.963,-0.015,0.297,-0.183,31037
0.963,-0.015,0.297,-0.122,31041
0.962,-0.014,0.297,-0.183,31045
0.962,-0.014,0.297,-0.183,31049
0.962,-0.014,0.297,-0.122,31053
0.962,-0.014,0.297,-0.305,31057
0.962,-0.014,0.297,-0.244,31061
0.961,-0.012,0.298,-0.244,31065
0.961,-0.012,0.298,-0.244,31069
0.961,-0.012,0.298,-0.305,31073
0.962,-0.012,0.298,-0.366,31077
0.962,-0.012,0.298,-0.488,31081
0.962,-0.012,0.298,-0.305,31085
0.962,-0.012,0.298,-0.305,31089
0.962,-0.012,0.298,-0.366,31093
0.962,-0.014,0.296,-0.549,31097
0.962,-0.014,0.296,-0.549,31101
0.961,-0.012,0.295,-0.732,31105
0.961,-0.012,0.295,-0.793,31109
0.961,-0.012,0.295,-0.793,31113
0.961,-0.011,0.296,-0.977,31117
0.961,-0.011,0.296,-1.16,31121
0.962,-0.009,0.296,-1.16,31125
0.962,-0.009,0.296,-1.16,31129
0.962,-0.009,0.296,-1.16,31133
0.962,-0.008,0.297,-1.16,31137
0.962,-0.008,0.297,-1.16,31141
0.96,-0.008,0.296,-1.16,31145
0.96,-0.008,0.296,-1.038,31149
0.96,-0.008,0.296,-1.038,31153
0.961,-0.008,0.295,-0.916,31157
0.961,-0.008,0.295,-0.732,31160
0.964,-0.008,0.297,-0.549,31164
0.964,-0.008,0.297,-0.122,31168
0.964,-0.008,0.297,-0.122,31172
0.964,-0.007,0.296,0.0,31176
0.964,-0.007,0.296,0.366,31180
0.964,-0.01,0.294,0.793,31184
0.964,-0.01,0.294,1.099,31188
0.964,-0.01,0.294,1.099,31192
0.964,-0.012,0.293,1.343,31196
0.964,-0.012,0.293,1.465,31200
0.963,-0.013,0.293,1.709,31204
0.963,-0.013,0.293,1.648,31208
0.963,-0.013,0.293,1.648,31212
0.96,-0.02,0.292,0.61,31216
0.96,-0.02,0.292,-0.427,31220
0.962,-0.017,0.295,-0.427,31224
0.962,-0.017,0.295,-0.488,31228
0.962,-0.017,0.295,-0.488,31232
0.964,-0.016,0.294,-0.793,31236
0.964,-0.016,0.294,-0.488,31240
0.964,-0.015,0.292,-0.061,31244
0.964,-0.015,0.292,-0.061,31248
0.965,-0.016,0.296,0.122,31252
0.965,-0.016,0.296,0.122,31256
0.965,-0.016,0.296,0.854,31260
0.963,-0.018,0.295,1.099,31264
0.963,-0.018,0.295,-0.061,31268
0.963,-0.019,0.296,-0.549,31272
0.963,-0.019,0.296,-0.549,31276
0.963,-0.019,0.296,-0.305,31280
0.964,-0.019,0.296,-0.549,31284
0.964,-0.019,0.296,-0.366,31288
0.964,-0.017,0.296,0.122,31292
0.964,-0.017,0.296,0.122,31296
0.964,-0.017,0.296,-0.122,31300
0.965,-0.019,0.294,-0.427,31304
0.965,-0.019,0.294,-0.061,31308
0.964,-0.019,0.295,-0.122,31312
0.964,-0.019,0.295,-0.122,31316
0.964,-0.019,0.295,-0.244,31320
0.963,-0.02,0.296,-0.305,31324
0.963,-0.02,0.296,-0.366,31328
0.965,-0.018,0.295,-0.305,31332
0.965,-0.018,0.295,-0.305,31336
0.965,-0.018,0.295,-0.305,31340
0.964,-0.016,0.295,-0.183,31344
0.964,-0.016,0.295,-0.183,31348
0.963,-0.015,0.295,-0.366,31352
0.963,-0.015,0.295,-0.366,31356
0.963,-0.015,0.295,-0.427,31360
0.963,-0.014,0.294,-0.427,31364
0.963,-0.014,0.294,-0.488,31368
0.963,-0.014,0.294,-0.549,31372
0.963,-0.014,0.294,-0.549,31376
0.963,-0.014,0.294,-0.549,31380
0.962,-0.01,0.295,-0.488,31384
0.962,-0.01,0.295,-0.427,31388
0.962,-0.01,0.295,-0.427,31392
0.962,-0.01,0.295,-0.488,31396
0.962,-0.01,0.295,-0.488,31400
0.96,-0.01,0.296,-0.671,31404
0.96,-0.01,0.296,-0.854,31408
0.961,-0.009,0.295,-0.916,31412
0.961,-0.009,0.295,-0.854,31416
0.961,-0.009,0.295,-0.854,31420
0.962,-0.009,0.296,-0.977,31424
0.962,-0.009,0.296,-0.916,31428
0.961,-0.009,0.297,-0.916,31432
0.961,-0.009,0.297,-0.793,31436
0.961,-0.009,0.297,-0.793,31440
0.963,-0.01,0.295,-0.732,31444
0.963,-0.01,0.295,-0.671,31448
0.962,-0.007,0.296,-0.61,31452
0.962,-0.007,0.296,-0.366,31456
0.962,-0.007,0.296,-0.366,31460
0.963,-0.009,0.296,-0.244,31464
0.963,-0.009,0.296,-0.061,31468
0.961,-0.01,0.294,0.0,31472
0.961,-0.01,0.294,0.183,31476
0.961,-0.01,0.294,0.183,31480
0.963,-0.01,0.295,0.305,31484
0.963,-0.01,0.295,0.671,31488
0.962,-0.011,0.296,0.793,31492
0.962,-0.011,0.296,0.854,31496
0.962,-0.011,0.296,0.854,31500
0.961,-0.01,0.295,0.977,31504
0.961,-0.01,0.295,1.099,31508
0.961,-0.014,0.296,1.099,31512
0.961,-0.014,0.296,1.038,31516
0.961,-0.014,0.296,1.038,31520
0.964,-0.017,0.299,0.488,31524
0.964,-0.017,0.299,-0.122,31528
0.961,-0.016,0.301,-0.122,31532
0.961,-0.016,0.301,-0.305,31536
0.962,-0.016,0.299,-0.427,31540
0.962,-0.016,0.299,-0.427,31544
0.962,-0.016,0.299,-0.244,31548
0.965,-0.015,0.297,0.0,31552
0.965,-0.015,0.297,0.0,31556
0.963,-0.016,0.297,0.061,31560
0.963,-0.016,0.297,0.061,31564
0.963,-0.016,0.297,0.061,31568
0.962,-0.018,0.294,-0.183,31572
0.962,-0.018,0.294,-0.427,31576
0.962,-0.016,0.292,-0.61,31580
0.962,-0.016,0.292,-0.61,31584
0.962,-0.016,0.292,-0.549,31588
0.965,-0.017,0.294,-0.183,31592
0.965,-0.017,0.294,-0.122,31596
0.965,-0.019,0.295,0.061,31600
0.965,-0.019,0.295,0.061,31604
0.965,-0.019,0.295,-0.061,31608
0.963,-0.018,0.293,-0.183,31612
0.963,-0.018,0.293,-0.183,31616
0.965,-0.018,0.291,-0.183,31620
0.965,-0.018,0.291,-0.183,31624
0.965,-0.018,0.291,-0.244,31628
0.966,-0.018,0.292,-0.183,31632
0.966,-0.018,0.292,-0.244,31636
0.965,-0.016,0.295,-0.122,31640
0.965,-0.016,0.295,-0.122,31644
0.965,-0.016,0.295,-0.244,31648
0.965,-0.016,0.296,-0.305,31652
0.965,-0.016,0.296,-0.305,31656
0.964,-0.016,0.295,-0.366,31660
0.964,-0.016,0.295,-0.366,31664
0.964,-0.016,0.295,-0.427,31668
0.962,-0.015,0.294,-0.488,31672
0.962,-0.015,0.294,-0.427,31676
0.963,-0.015,0.295,-0.244,31680
0.963,-0.015,0.295,-0.183,31684
0.963,-0.015,0.295,-0.183,31688
0.966,-0.014,0.294,-0.244,31692
0.966,-0.014,0.294,-0.183,31696
0.965,-0.016,0.295,-0.244,31700
0.965,-0.016,0.295,-0.427,31704
0.965,-0.016,0.295,-0.427,31708
0.961,-0.014,0.296,-0.549,31712
0.961,-0.014,0.296,-0.427,31716
0.96,-0.015,0.297,-0.427,31720
0.96,-0.015,0.297,-0.61,31724
0.96,-0.015,0.297,-0.61,31728
0.963,-0.014,0.296,-0.427,31732
0.963,-0.014,0.296,-0.366,31736
0.963,-0.012,0.297,-0.183,31740
0.963,-0.012,0.297,-0.183,31744
0.963,-0.012,0.297,-0.183,31748
0.959,-0.01,0.298,-0.305,31752
0.959,-0.01,0.298,-0.427,31756
0.96,-0.009,0.297,-0.549,31760
0.96,-0.009,0.297,-0.671,31764
0.96,-0.009,0.297,-0.671,31768
0.961,-0.009,0.299,-0.61,31772
0.961,-0.009,0.299,-0.61,31776
0.96,-0.009,0.301,-0.549,31780
0.96,-0.009,0.301,-0.671,31784
0.96,-0.009,0.301,-0.671,31788
0.961,-0.009,0.302,-0.854,31792
0.961,-0.009,0.302,-0.854,31796
0.96,-0.006,0.299,-0.732,31800
0.96,-0.006,0.299,-0.671,31804
0.962,-0.008,0.3,-0.61,31808
0.962,-0.008,0.3,-0.61,31812
0.962,-0.008,0.3,-0.488,31816
0.963,-0.01,0.297,-0.305,31820
0.963,-0.01,0.297,-0.122,31824
0.962,-0.009,0.294,0.122,31828
0.962,-0.009,0.294,0.122,31832
0.962,-0.009,0.294,0.61,31836
0.963,-0.011,0.294,0.854,31840
0.963,-0.011,0.294,0.854,31844
0.964,-0.013,0.293,1.038,31848
0.964,-0.013,0.293,1.038,31852
0.964,-0.013,0.293,1.282,31856
0.962,-0.016,0.292,1.404,31860
0.962,-0.016,0.292,0.549,31864
0.962,-0.019,0.294,-0.305,31868
0.962,-0.019,0.294,-0.305,31872
0.962,-0.019,0.294,-0.122,31876
0.962,-0.016,0.295,-0.366,31880
0.962,-0.016,0.295,-0.793,31884
0.964,-0.015,0.294,-0.305,31888
0.964,-0.015,0.294,-0.305,31892
0.964,-0.015,0.294,-0.061,31896
0.964,-0.015,0.292,-0.183,31900
0.964,-0.015,0.292,0.122,31904
0.965,-0.014,0.294,0.732,31908
0.965,-0.014,0.294,0.732,31912
0.965,-0.014,0.294,0.916,31916
0.963,-0.02,0.294,0.0,31919
0.963,-0.02,0.294,-0.549,31923
0.965,-0.017,0.293,-0.183,31927
0.965,-0.017,0.293,-0.183,31931
0.965,-0.017,0.293,-0.427,31935
0.965,-0.017,0.293,-0.305,31939
0.965,-0.017,0.293,0.0,31943
0.965,-0.019,0.293,0.0,31947
0.965,-0.019,0.293,0.0,31951
0.965,-0.019,0.293,-0.183,31955
0.964,-0.019,0.294,0.0,31959
0.964,-0.019,0.294,-0.183,31963
0.962,-0.019,0.294,-0.244,31967
0.962,-0.019,0.294,-0.244,31971
0.962,-0.019,0.294,-0.183,31975
0.963,-0.015,0.294,-0.305,31979
0.963,-0.015,0.294,-0.305,31983
0.963,-0.017,0.294,-0.244,31987
0.963,-0.017,0.294,-0.183,31991
0.963,-0.017,0.294,-0.183,31995
0.961,-0.018,0.297,-0.183,31999
0.961,-0.018,0.297,-0.244,32003
0.962,-0.018,0.296,-0.427,32007
0.962,-0.018,0.296,-0.427,32011
0.962,-0.018,0.296,-0.427,32015
0.964,-0.015,0.296,-0.122,32019
0.964,-0.015,0.296,-0.183,32023
0.963,-0.016,0.297,-0.183,32027
0.963,-0.016,0.297,-0.244,32031
0.963,-0.016,0.297,-0.244,32035
0.963,-0.017,0.299,-0.366,32039
0.963,-0.017,0.299,-0.427,32043
0.96,-0.015,0.297,-0.427,32047
0.96,-0.015,0.297,-0.488,32051
0.96,-0.015,0.297,-0.488,32055
0.961,-0.013,0.295,-0.427,32059
0.961,-0.013,0.295,-0.427,32063
0.961,-0.013,0.298,-0.305,32067
0.961,-0.013,0.298,-0.305,32071
0.961,-0.013,0.298,-0.305,32075
0.96,-0.01,0.296,-0.488,32079
0.96,-0.01,0.296,-0.366,32083
0.961,-0.011,0.295,-0.61,32087
0.961,-0.011,0.295,-0.61,32091
0.961,-0.011,0.295,-0.61,32095
0.962,-0.01,0.296,-0.793,32099
0.962,-0.01,0.296,-0.732,32103
0.962,-0.01,0.297,-0.854,32107
0.962,-0.01,0.297,-0.916,32111
0.962,-0.011,0.296,-1.038,32115
0.962,-0.011,0.296,-1.038,32119
0.962,-0.011,0.296,-1.282,32123
0.961,-0.009,0.296,-1.038,32127
0.961,-0.009,0.296,-1.038,32131
0.962,-0.008,0.296,-1.038,32135
0.962,-0.008,0.296,-1.038,32139
0.962,-0.008,0.296,-0.793,32143
0.962,-0.008,0.296,-0.732,32147
0.962,-0.008,0.296,-0.732,32151
0.961,-0.009,0.296,-0.549,32155
0.961,-0.009,0.296,-0.549,32159
0.961,-0.009,0.296,-0.183,32163
0.963,-0.009,0.296,-0.061,32167
0.963,-0.009,0.296,0.183,32171
0.963,-0.009,0.296,0.732,32175
0.963,-0.009,0.296,0.732,32179
0.963,-0.009,0.296,0.977,32183
0.962,-0.011,0.295,1.099,32187
0.962,-0.011,0.295,1.465,32191
0.963,-0.011,0.295,1.526,32195
0.963,-0.011,0.295,1.526,32199
0.963,-0.011,0.295,1.709,32203
0.963,-0.015,0.298,1.892,32207
0.963,-0.015,0.298,1.16,32211
0.961,-0.02,0.298,-0.244,32215
0.961,-0.02,0.298,-0.244,32219
0.961,-0.02,0.298,-0.366,32223
0.962,-0.017,0.299,-0.305,32227
0.962,-0.017,0.299,-0.732,32231
0.962,-0.014,0.296,-0.61,32235
0.962,-0.014,0.296,-0.61,32239
0.962,-0.014,0.296,-0.122,32243
0.964,-0.018,0.294,0.061,32247
0.964,-0.018,0.294,0.244,32251
0.964,-0.019,0.297,0.488,32255
0.964,-0.019,0.297,0.061,32259
0.964,-0.019,0.297,0.061,32263
0.962,-0.022,0.296,-0.488,32267
0.962,-0.022,0.296,-0.488,32271
0.964,-0.019,0.292,-0.366,32275
0.964,-0.019,0.292,-0.244,32279
0.964,-0.019,0.292,-0.244,32283
0.966,-0.015,0.294,-0.061,32287
0.966,-0.015,0.294,0.183,32291
0.965,-0.019,0.295,-0.061,32295
0.965,-0.019,0.295,-0.122,32299
0.965,-0.019,0.295,-0.122,32303
0.964,-0.019,0.297,-0.305,32307
0.964,-0.019,0.297,-0.427,32311
0.963,-0.016,0.295,-0.427,32315
0.963,-0.016,0.295,-0.366,32319
0.963,-0.016,0.295,-0.366,32323
0.965,-0.017,0.292,-0.488,32327
0.965,-0.017,0.292,-0.305,32331
0.964,-0.017,0.293,-0.366,32335
0.964,-0.017,0.293,-0.305,32339
0.964,-0.017,0.293,-0.305,32343
0.964,-0.016,0.294,-0.305,32347
0.964,-0.016,0.294,-0.305,32351
0.965,-0.014,0.293,-0.305,32355
0.965,-0.014,0.293,-0.427,32359
0.965,-0.014,0.293,-0.427,32363
0.964,-0.013,0.294,-0.549,32367
0.964,-0.013,0.294,-0.488,32371
0.963,-0.014,0.293,-0.427,32375
0.963,-0.014,0.293,-0.366,32379
0.963,-0.012,0.292,-0.427,32383
0.963,-0.012,0.292,-0.427,32387
0.963,-0.012,0.292,-0.549,32391
0.961,-0.012,0.294,-0.732,32395
0.961,-0.012,0.294,-0.854,32399
0.963,-0.011,0.295,-0.916,32403
0.963,-0.011,0.295,-0.916,32407
0.963,-0.011,0.295,-1.038,32411
0.962,-0.009,0.294,-0.977,32415
0.962,-0.009,0.294,-0.916,32419
0.961,-0.01,0.296,-0.854,32423
0.961,-0.01,0.296,-0.854,32427
0.961,-0.01,0.296,-0.916,32431
0.96,-0.009,0.297,-0.916,32435
0.96,-0.009,0.297,-0.793,32439
0.96,-0.009,0.298,-0.549,32443
0.96,-0.009,0.298,-0.549,32447
0.96,-0.009,0.298,-0.488,32451
0.963,-0.008,0.299,-0.244,32455
0.963,-0.008,0.299,0.0,32459
0.962,-0.009,0.299,0.244,32463
0.962,-0.009,0.299,0.244,32467
0.962,-0.009,0.299,0.61,32471
0.961,-0.01,0.299,0.854,32475
0.961,-0.01,0.299,0.916,32479
0.961,-0.01,0.298,1.038,32483
0.961,-0.01,0.298,1.038,32487
0.961,-0.01,0.298,1.16,32491
0.961,-0.011,0.298,1.343,32495
0.961,-0.011,0.298,1.404,32499
0.959,-0.018,0.298,0.977,32503
0.959,-0.018,0.298,0.977,32507
0.959,-0.018,0.298,-0.122,32511
0.96,-0.015,0.298,-0.488,32515
0.96,-0.015,0.298,-0.488,32519
0.96,-0.016,0.298,-0.793,32523
0.96,-0.016,0.298,-0.916,32527
0.96,-0.016,0.298,-0.916,32531
0.963,-0.014,0.298,-0.488,32535
0.963,-0.014,0.298,-0.244,32539
0.963,-0.016,0.297,-0.427,32543
0.963,-0.016,0.297,0.122,32547
0.963,-0.016,0.297,0.122,32551
0.963,-0.015,0.296,0.732,32555
0.963,-0.015,0.296,0.488,32559
0.961,-0.02,0.293,-0.488,32563
0.961,-0.02,0.293,-0.488,32567
0.961,-0.02,0.293,-0.488,32571
0.964,-0.017,0.29,-0.122,32575
0.964,-0.017,0.29,-0.366,32579
0.964,-0.017,0.293,-0.183,32583
0.964,-0.017,0.293,0.061,32587
0.964,-0.017,0.293,0.061,32591
0.965,-0.018,0.293,-0.244,32595
0.965,-0.018,0.293,-0.183,32599
0.966,-0.019,0.292,-0.061,32603
0.966,-0.019,0.292,-0.061,32607
0.966,-0.019,0.292,-0.061,32611
0.963,-0.019,0.292,-0.305,32615
0.963,-0.019,0.292,-0.427,32619
0.963,-0.017,0.293,-0.488,32623
0.963,-0.017,0.293,-0.427,32627
0.963,-0.017,0.293,-0.427,32631
0.965,-0.016,0.293,-0.366,32635
0.965,-0.016,0.293,-0.366,32639
0.964,-0.015,0.295,-0.366,32643
0.964,-0.015,0.295,-0.305,32647
0.964,-0.015,0.295,-0.305,32651
0.963,-0.015,0.293,-0.305,32655
0.963,-0.015,0.293,-0.427,32659
0.964,-0.015,0.292,-0.427,32663
0.964,-0.015,0.292,-0.366,32667
0.962,-0.014,0.293,-0.305,32671
0.962,-0.014,0.293,-0.305,32675
0.962,-0.014,0.293,-0.183,32679
0.961,-0.013,0.297,-0.183,32683
0.961,-0.013,0.297,-0.061,32687
0.962,-0.013,0.297,-0.122,32691
0.962,-0.013,0.297,-0.122,32695
0.962,-0.013,0.297,-0.183,32699
0.96,-0.012,0.297,-0.183,32703
0.96,-0.012,0.297,-0.183,32707
0.961,-0.012,0.297,-0.122,32711
0.961,-0.012,0.297,-0.122,32715
0.961,-0.012,0.297,-0.183,32719
0.962,-0.013,0.3,-0.183,32723
0.962,-0.013,0.3,-0.061,32727
0.961,-0.012,0.301,0.122,32731
0.961,-0.012,0.301,0.122,32735
0.961,-0.012,0.301,-0.122,32739
0.958,-0.012,0.299,-0.244,32743
0.958,-0.012,0.299,0.0,32747
0.96,-0.012,0.3,-0.183,32751
0.96,-0.012,0.3,-0.183,32755
0.96,-0.012,0.3,-0.244,32759
0.96,-0.011,0.3,-0.366,32763
0.96,-0.011,0.3,-0.427,32767
0.959,-0.012,0.298,-0.549,32771
0.959,-0.012,0.298,-0.549,32775
0.959,-0.012,0.298,-0.549,32779
0.959,-0.011,0.298,-0.488,32783
0.959,-0.011,0.298,-0.732,32787
0.959,-0.01,0.298,-0.793,32791
0.959,-0.01,0.298,-0.732,32795
0.959,-0.01,0.298,-0.732,32799
0.96,-0.011,0.296,-0.671,32803
0.96,-0.011,0.296,-0.549,32807
0.962,-0.012,0.295,-0.427,32811
0.962,-0.012,0.295,-0.366,32815
0.962,-0.012,0.295,-0.366,32819
0.962,-0.011,0.295,-0.122,32823
0.962,-0.011,0.295,0.0,32827
0.963,-0.011,0.293,0.061,32831
0.963,-0.011,0.293,0.183,32835
0.963,-0.011,0.293,0.183,32839
0.964,-0.013,0.293,0.366,32843
0.964,-0.013,0.293,0.427,32847
0.965,-0.015,0.291,0.244,32851
0.965,-0.015,0.291,-0.244,32855
0.965,-0.015,0.291,-0.244,32859
0.964,-0.017,0.291,-0.305,32863
0.964,-0.017,0.291,-0.488,32867
0.963,-0.017,0.29,-0.366,32871
0.963,-0.017,0.29,-0.183,32875
0.963,-0.017,0.29,-0.183,32879
0.964,-0.016,0.291,-0.061,32883
0.964,-0.016,0.291,-0.122,32887
0.966,-0.018,0.292,-0.183,32891
0.966,-0.018,0.292,-0.122,32895
0.966,-0.018,0.292,-0.122,32899
0.966,-0.018,0.295,-0.122,32903
0.966,-0.018,0.295,-0.305,32907
0.966,-0.019,0.293,-0.305,32911
0.966,-0.019,0.293,-0.305,32915
0.964,-0.016,0.291,-0.244,32919
0.964,-0.016,0.291,-0.244,32923
0.964,-0.016,0.291,-0.122,32927
0.964,-0.018,0.291,-0.061,32931
0.964,-0.018,0.291,-0.305,32935
0.965,-0.018,0.293,-0.244,32939
0.965,-0.018,0.293,-0.244,32943
0.965,-0.018,0.293,-0.183,32947
0.963,-0.019,0.293,-0.183,32951
0.963,-0.019,0.293,-0.183,32955
0.963,-0.018,0.294,-0.305,32959
0.963,-0.018,0.294,-0.305,32963
0.963,-0.018,0.294,-0.122,32967
0.964,-0.014,0.294,0.061,32971
0.964,-0.014,0.294,0.0,32975
0.963,-0.016,0.299,-0.061,32979
0.963,-0.016,0.299,-0.061,32983
0.963,-0.016,0.299,-0.122,32987
0.962,-0.016,0.299,-0.244,32991
0.962,-0.016,0.299,-0.366,32995
0.962,-0.015,0.297,-0.244,32999
0.962,-0.015,0.297,-0.244,33003
0.962,-0.015,0.297,-0.244,33007
0.963,-0.013,0.297,-0.427,33011
0.963,-0.013,0.297,-0.305,33015
0.96,-0.011,0.299,-0.183,33019
0.96,-0.011,0.299,-0.183,33023
0.96,-0.011,0.299,-0.305,33027
0.959,-0.012,0.299,-0.366,33031
0.959,-0.012,0.299,-0.549,33035
0.961,-0.012,0.299,-0.61,33039
0.961,-0.012,0.299,-0.488,33043
0.961,-0.012,0.299,-0.488,33047
0.96,-0.01,0.298,-0.549,33051
0.96,-0.01,0.298,-0.793,33055
0.96,-0.01,0.297,-0.916,33059
0.96,-0.01,0.297,-0.854,33063
0.96,-0.01,0.297,-0.854,33067
0.96,-0.01,0.296,-0.854,33071
0.96,-0.01,0.296,-0.916,33075
0.96,-0.01,0.296,-0.977,33079
0.96,-0.01,0.296,-1.038,33083
0.96,-0.01,0.296,-1.038,33087
0.962,-0.01,0.297,-0.977,33091
0.962,-0.01,0.297,-0.793,33095
0.963,-0.01,0.296,-0.793,33099
0.963,-0.01,0.296,-0.671,33103
0.963,-0.01,0.296,-0.671,33107
0.962,-0.009,0.295,-0.427,33111
0.962,-0.009,0.295,-0.183,33115
0.964,-0.011,0.292,-0.061,33119
0.964,-0.011,0.292,0.122,33123
0.964,-0.011,0.292,0.122,33127
0.965,-0.011,0.292,0.366,33131
0.965,-0.011,0.292,0.671,33135
0.964,-0.012,0.293,0.854,33139
0.964,-0.012,0.293,0.977,33143
0.964,-0.012,0.293,0.977,33147
0.965,-0.013,0.292,1.099,33151
0.965,-0.013,0.292,1.16,33155
0.962,-0.015,0.292,0.61,33159
0.962,-0.015,0.292,-0.183,33163
0.962,-0.018,0.295,-0.183,33167
0.962,-0.018,0.295,-0.183,33171
0.962,-0.018,0.295,-0.305,33175
0.963,-0.016,0.296,-0.244,33179
0.963,-0.016,0.296,-0.122,33183
0.963,-0.015,0.293,0.183,33187
0.963,-0.015,0.293,0.183,33191
0.963,-0.015,0.293,0.305,33195
0.962,-0.018,0.294,0.244,33199
0.962,-0.018,0.294,0.183,33203
0.962,-0.021,0.296,-0.061,33207
0.962,-0.021,0.296,-0.061,33211
0.962,-0.021,0.296,-0.488,33215
0.962,-0.02,0.296,-0.549,33219
0.962,-0.02,0.296,-0.427,33223
0.964,-0.019,0.293,-0.244,33227
0.964,-0.019,0.293,-0.244,33231
0.964,-0.019,0.293,-0.122,33235
0.964,-0.019,0.296,-0.061,33239
0.964,-0.019,0.296,-0.366,33243
0.964,-0.019,0.296,-0.244,33247
0.964,-0.019,0.296,-0.244,33251
0.964,-0.019,0.296,-0.305,33255
0.964,-0.017,0.294,-0.549,33259
0.964,-0.017,0.294,-0.427,33263
0.962,-0.014,0.295,-0.427,33267
0.962,-0.014,0.295,-0.305,33271
0.962,-0.014,0.295,-0.305,33275
0.963,-0.012,0.296,-0.183,33279
0.963,-0.012,0.296,-0.244,33283
0.962,-0.014,0.297,-0.244,33287
0.962,-0.014,0.297,-0.488,33291
0.962,-0.014,0.297,-0.488,33295
0.962,-0.013,0.295,-0.549,33299
0.962,-0.013,0.295,-0.671,33303
0.963,-0.012,0.295,-0.732,33307
0.963,-0.012,0.295,-0.732,33311
0.963,-0.012,0.295,-0.732,33315
0.964,-0.012,0.294,-0.916,33319
0.964,-0.012,0.294,-0.916,33323
0.963,-0.01,0.294,-0.732,33327
0.963,-0.01,0.294,-0.793,33331
0.963,-0.01,0.294,-0.793,33335
0.963,-0.01,0.293,-0.793,33339
0.963,-0.01,0.293,-0.793,33343
0.964,-0.01,0.294,-0.671,33347
0.964,-0.01,0.294,-0.549,33351
0.964,-0.01,0.294,-0.549,33355
0.963,-0.01,0.291,-0.366,33359
0.963,-0.01,0.291,-0.305,33363
0.962,-0.011,0.293,-0.244,33367
0.962,-0.011,0.293,-0.183,33371
0.962,-0.011,0.293,-0.183,33375
0.963,-0.01,0.293,0.0,33379
0.963,-0.01,0.293,0.183,33383
0.962,-0.009,0.294,0.366,33387
0.962,-0.009,0.294,0.488,33391
0.962,-0.01,0.294,0.488,33395
0.962,-0.01,0.294,0.488,33399
0.962,-0.01,0.294,0.61,33403
0.961,-0.012,0.295,0.61,33407
0.961,-0.012,0.295,0.549,33411
0.963,-0.013,0.296,0.671,33415
0.963,-0.013,0.296,0.671,33419
0.963,-0.013,0.296,0.366,33423
0.962,-0.015,0.299,0.0,33427
0.962,-0.015,0.299,-0.183,33431
0.962,-0.014,0.298,-0.244,33435
0.962,-0.014,0.298,-0.244,33439
0.962,-0.014,0.298,-0.183,33443
0.961,-0.015,0.297,-0.122,33447
0.961,-0.015,0.297,0.0,33450
0.961,-0.018,0.298,0.0,33454
0.961,-0.018,0.298,0.0,33458
0.961,-0.018,0.298,-0.061,33462
0.963,-0.017,0.297,0.0,33466
0.963,-0.017,0.297,-0.183,33470
0.962,-0.016,0.296,-0.305,33474
0.962,-0.016,0.296,-0.305,33478
0.962,-0.016,0.296,-0.244,33482
0.962,-0.016,0.297,-0.061,33486
0.962,-0.016,0.297,-0.122,33490
0.963,-0.017,0.296,-0.183,33494
0.963,-0.017,0.296,-0.183,33498
0.963,-0.017,0.296,-0.183,33502
0.964,-0.016,0.297,-0.183,33506
0.964,-0.016,0.297,-0.122,33510
0.963,-0.015,0.296,-0.244,33514
0.963,-0.015,0.296,-0.244,33518
0.963,-0.015,0.296,-0.305,33522
0.961,-0.016,0.295,-0.427,33526
0.961,-0.016,0.295,-0.488,33530
0.962,-0.014,0.295,-0.488,33534
0.962,-0.014,0.295,-0.488,33538
0.962,-0.014,0.295,-0.366,33542
0.963,-0.013,0.294,-0.244,33546
0.963,-0.013,0.294,-0.122,33550
0.964,-0.015,0.294,-0.183,33554
0.964,-0.015,0.294,-0.366,33558
0.964,-0.015,0.294,-0.366,33562
0.963,-0.015,0.292,-0.488,33566
0.963,-0.015,0.292,-0.427,33570
0.962,-0.012,0.294,-0.366,33574
0.962,-0.012,0.294,-0.305,33578
0.962,-0.012,0.294,-0.305,33582
0.964,-0.014,0.295,-0.244,33586
0.964,-0.014,0.295,-0.061,33590
0.963,-0.015,0.293,-0.061,33594
0.963,-0.015,0.293,-0.183,33598
0.963,-0.015,0.293,-0.183,33602
0.963,-0.015,0.292,-0.183,33606
0.963,-0.015,0.292,-0.305,33610
0.965,-0.014,0.294,-0.305,33614
0.965,-0.014,0.294,-0.244,33618
0.965,-0.014,0.294,-0.244,33622
0.961,-0.014,0.293,-0.122,33626
0.961,-0.014,0.293,-0.183,33630
0.963,-0.013,0.294,-0.244,33634
0.963,-0.013,0.294,0.0,33638
0.963,-0.013,0.294,0.0,33642
0.963,-0.014,0.295,-0.061,33646
0.963,-0.014,0.295,-0.061,33650
0.962,-0.014,0.295,-0.122,33654
0.962,-0.014,0.295,-0.183,33658
0.962,-0.014,0.295,-0.183,33662
0.961,-0.014,0.295,-0.183,33666
0.961,-0.014,0.295,-0.244,33670
0.961,-0.014,0.297,-0.061,33674
0.961,-0.014,0.297,0.0,33678
0.961,-0.014,0.297,0.0,33682
0.962,-0.014,0.296,0.0,33686
0.962,-0.014,0.296,0.0,33690
0.96,-0.016,0.298,-0.061,33694
0.96,-0.016,0.298,-0.244,33698
0.96,-0.016,0.298,-0.244,33702
0.96,-0.016,0.298,-0.305,33706
0.96,-0.016,0.298,-0.366,33710
0.961,-0.014,0.297,-0.366,33714
0.961,-0.014,0.297,-0.183,33718
0.961,-0.014,0.298,-0.122,33722
0.961,-0.014,0.298,-0.122,33726
0.961,-0.014,0.298,-0.183,33730
0.961,-0.014,0.297,-0.244,33734
0.961,-0.014,0.297,-0.244,33738
0.962,-0.014,0.298,-0.183,33742
0.962,-0.014,0.298,-0.183,33746
0.962,-0.014,0.298,-0.427,33750
0.961,-0.014,0.296,-0.366,33754
0.961,-0.014,0.296,-0.305,33758
0.961,-0.014,0.296,-0.244,33762
0.961,-0.014,0.296,-0.244,33766
0.961,-0.014,0.296,-0.305,33770
0.963,-0.013,0.297,-0.122,33774
0.963,-0.013,0.297,-0.183,33778
0.963,-0.013,0.297,-0.183,33782
0.963,-0.013,0.297,-0.183,33786
0.963,-0.013,0.297,-0.244,33790
0.964,-0.013,0.294,-0.305,33794
0.964,-0.013,0.294,-0.305,33798
0.963,-0.015,0.292,-0.122,33802
0.963,-0.015,0.292,-0.122,33806
0.963,-0.015,0.292,-0.183,33810
0.964,-0.014,0.293,-0.366,33814
0.964,-0.014,0.293,-0.366,33818
0.965,-0.014,0.292,-0.305,33822
0.965,-0.014,0.292,-0.305,33826
0.965,-0.014,0.292,-0.305,33830
0.964,-0.014,0.292,-0.244,33834
0.964,-0.014,0.292,-0.244,33838
0.964,-0.014,0.293,-0.183,33842
0.964,-0.014,0.293,-0.305,33846
0.964,-0.014,0.293,-0.305,33850
0.963,-0.015,0.293,-0.183,33854
0.963,-0.015,0.293,-0.122,33858
0.964,-0.014,0.293,-0.122,33862
0.964,-0.014,0.293,-0.122,33866
0.964,-0.014,0.293,-0.122,33870
0.963,-0.015,0.295,-0.122,33874
0.963,-0.015,0.295,-0.244,33878
0.963,-0.015,0.295,-0.305,33882
0.963,-0.015,0.295,-0.244,33886
0.963,-0.015,0.295,-0.244,33890
0.962,-0.015,0.294,-0.244,33894
0.962,-0.015,0.294,-0.183,33898
0.963,-0.016,0.296,-0.183,33902
0.963,-0.016,0.296,-0.122,33906
0.963,-0.016,0.296,-0.122,33910
0.962,-0.015,0.296,-0.183,33914
0.962,-0.015,0.296,-0.183,33918
0.963,-0.015,0.295,-0.183,33922
0.963,-0.015,0.295,-0.244,33926
0.963,-0.015,0.295,-0.244,33930
0.961,-0.015,0.296,-0.122,33934
0.961,-0.015,0.296,-0.122,33938
0.961,-0.016,0.297,-0.244,33942
0.961,-0.016,0.297,-0.183,33946
0.961,-0.015,0.297,-0.122,33950
0.961,-0.015,0.297,-0.122,33954
0.961,-0.015,0.297,-0.244,33958
0.962,-0.014,0.295,-0.244,33962
0.962,-0.014,0.295,-0.244,33966
0.963,-0.014,0.294,-0.244,33970
0.963,-0.014,0.294,-0.244,33974
0.963,-0.014,0.294,-0.122,33978
0.961,-0.013,0.297,-0.061,33982
0.961,-0.013,0.297,-0.122,33986
0.962,-0.011,0.297,-0.244,33990
0.962,-0.011,0.297,-0.244,33994
0.962,-0.011,0.297,-0.122,33998
0.961,-0.012,0.297,-0.244,34002
0.961,-0.012,0.297,-0.305,34006
0.964,-0.013,0.296,-0.305,34010
0.964,-0.013,0.296,-0.305,34014
0.964,-0.013,0.296,-0.366,34018
0.962,-0.011,0.296,-0.366,34022
0.962,-0.011,0.296,-0.305,34026
0.963,-0.011,0.296,-0.366,34030
0.963,-0.011,0.296,-0.366,34034
0.963,-0.011,0.296,-0.244,34038
0.962,-0.011,0.296,-0.305,34042
0.962,-0.011,0.296,-0.305,34046
0.962,-0.012,0.293,-0.244,34050
0.962,-0.012,0.293,-0.244,34054
0.962,-0.012,0.293,-0.305,34058
0.962,-0.012,0.294,-0.305,34062
0.962,-0.012,0.294,-0.366,34066
0.964,-0.011,0.294,-0.244,34070
0.964,-0.011,0.294,-0.244,34074
0.964,-0.011,0.294,-0.244,34078
0.964,-0.013,0.293,-0.244,34082
0.964,-0.013,0.293,-0.061,34086
0.962,-0.013,0.293,0.061,34090
0.962,-0.013,0.293,-0.061,34094
0.962,-0.013,0.293,-0.061,34098
0.962,-0.011,0.294,-0.244,34102
0.962,-0.011,0.294,-0.183,34106
0.963,-0.013,0.294,-0.122,34110
0.963,-0.013,0.294,0.0,34114
0.963,-0.013,0.294,0.0,34118
0.964,-0.014,0.294,-0.061,34122
0.964,-0.014,0.294,-0.061,34126
0.963,-0.016,0.295,0.061,34130
0.963,-0.016,0.295,-0.122,34134
0.963,-0.016,0.295,-0.122,34138
0.962,-0.016,0.297,-0.183,34142
0.962,-0.016,0.297,-0.122,34146
0.963,-0.017,0.296,-0.122,34150
0.963,-0.017,0.296,-0.183,34154
0.963,-0.017,0.296,-0.183,34158
0.963,-0.017,0.294,-0.122,34162
0.963,-0.017,0.294,-0.183,34166
0.964,-0.018,0.296,-0.061,34170
0.964,-0.018,0.296,-0.183,34174
0.964,-0.018,0.296,-0.183,34178
0.962,-0.018,0.297,-0.183,34182
0.962,-0.018,0.297,-0.183,34186
0.96,-0.017,0.295,-0.244,34190
0.96,-0.017,0.295,-0.366,34194
0.96,-0.017,0.295,-0.366,34198
0.963,-0.016,0.295,-0.305,34202
0.963,-0.016,0.295,-0.305,34206
0.962,-0.017,0.296,-0.061,34210
0.962,-0.017,0.296,-0.244,34214
0.963,-0.017,0.295,-0.244,34218
0.963,-0.017,0.295,-0.244,34222
0.963,-0.017,0.295,-0.305,34226
0.963,-0.014,0.295,-0.427,34230
0.963,-0.014,0.295,-0.305,34234
0.962,-0.013,0.295,-0.244,34238
0.962,-0.013,0.295,-0.244,34242
0.962,-0.013,0.295,-0.244,34246
0.958,-0.015,0.294,-0.183,34250
0.958,-0.015,0.294,-0.366,34254
0.966,-0.013,0.294,-0.427,34258
0.966,-0.013,0.294,-0.427,34262
0.966,-0.013,0.294,-0.122,34266
0.967,-0.012,0.294,0.061,34270
0.967,-0.012,0.294,-0.183,34274
0.958,-0.013,0.294,-0.305,34278
0.958,-0.013,0.294,-0.305,34282
0.958,-0.013,0.294,-0.366,34286
0.963,-0.013,0.294,-1.038,34290
0.963,-0.013,0.294,-1.038,34294
0.965,-0.008,0.294,-0.916,34298
0.965,-0.008,0.294,-0.916,34302
0.965,-0.008,0.294,-0.916,34306
0.96,-0.007,0.294,-0.977,34310
0.96,-0.007,0.294,-1.221,34314
0.959,-0.008,0.292,-1.587,34318
0.959,-0.008,0.292,-1.587,34322
0.959,-0.008,0.292,-1.77,34326
0.963,-0.007,0.293,-2.014,34330
0.963,-0.007,0.293,-1.709,34334
0.964,-0.003,0.296,-1.526,34338
0.964,-0.003,0.296,-1.221,34342
0.964,-0.003,0.296,-1.221,34346
0.961,-0.003,0.294,-0.854,34350
0.961,-0.003,0.294,-0.793,34354
0.961,-0.005,0.292,-0.671,34358
0.961,-0.005,0.292,-0.305,34362
0.961,-0.005,0.292,-0.305,34366
0.964,-0.004,0.293,0.305,34370
0.964,-0.004,0.293,0.854,34374
0.964,-0.007,0.294,1.404,34378
0.964,-0.007,0.294,1.953,34382
0.964,-0.007,0.294,1.953,34386
0.961,-0.008,0.293,2.075,34390
0.961,-0.008,0.293,2.563,34394
0.963,-0.009,0.295,2.93,34398
0.963,-0.009,0.295,3.357,34402
0.963,-0.009,0.295,3.357,34406
0.965,-0.015,0.295,3.784,34410
0.965,-0.015,0.295,3.174,34414
0.959,-0.027,0.3,0.61,34418
0.959,-0.027,0.3,-0.366,34422
0.959,-0.027,0.3,-0.366,34426
0.961,-0.021,0.304,-0.244,34430
0.961,-0.021,0.304,-0.854,34434
0.961,-0.021,0.3,-0.732,34438
0.961,-0.021,0.3,0.244,34442
0.961,-0.021,0.3,0.244,34446
0.962,-0.024,0.296,0.793,34450
0.962,-0.024,0.296,0.427,34454
0.961,-0.029,0.299,0.366,34457
0.961,-0.029,0.299,0.366,34461
0.961,-0.029,0.299,0.366,34465
0.962,-0.032,0.3,-0.366,34469
0.962,-0.032,0.3,-1.038,34473
0.964,-0.03,0.293,-0.732,34477
0.964,-0.03,0.293,-0.427,34482
0.966,-0.028,0.291,-0.183,34486
0.966,-0.028,0.291,-0.183,34490
0.966,-0.028,0.291,0.305,34494
0.966,-0.029,0.296,0.0,34497
0.966,-0.029,0.296,-0.427,34501
0.964,-0.026,0.294,-0.549,34505
0.964,-0.026,0.294,-0.549,34509
0.964,-0.026,0.294,-0.977,34513
0.963,-0.02,0.292,-1.16,34517
0.963,-0.02,0.292,-1.221,34521
0.964,-0.014,0.293,-1.343,34525
0.964,-0.014,0.293,-1.343,34529
0.964,-0.014,0.293,-1.282,34533
0.967,-0.01,0.293,-1.16,34537
0.967,-0.01,0.293,-1.099,34541
0.963,-0.009,0.29,-1.343,34545
0.963,-0.009,0.29,-1.343,34549
0.963,-0.009,0.29,-1.892,34553
0.962,-0.009,0.286,-2.441,34557
0.962,-0.009,0.286,-2.808,34561
0.965,-0.003,0.287,-2.808,34565
0.965,-0.003,0.287,-2.808,34569
0.965,-0.003,0.287,-2.747,34573
0.962,-0.005,0.286,-2.747,34577
0.962,-0.005,0.286,-2.686,34581
0.96,-0.004,0.286,-2.625,34585
0.96,-0.004,0.286,-2.625,34589
0.96,-0.004,0.286,-2.869,34593
0.966,0.0,0.291,-2.625,34597
0.966,0.0,0.291,-1.465,34601
0.953,-0.0,0.291,-1.099,34605
0.953,-0.0,0.291,-1.099,34609
0.953,-0.0,0.291,-1.526,34613
0.991,0.003,0.3,-0.671,34617
0.991,0.003,0.3,2.991,34621
0.924,-0.007,0.296,3.723,34625
0.924,-0.007,0.296,3.723,34629
0.924,-0.007,0.296,0.671,34633
0.99,-0.006,0.302,1.404,34637
0.99,-0.006,0.302,5.676,34641
0.956,-0.007,0.306,6.409,34645
0.956,-0.007,0.306,4.395,34649
0.956,-0.007,0.306,4.395,34653
0.955,-0.012,0.305,5.31,34657
0.955,-0.012,0.305,6.47,34661
0.94,-0.034,0.302,1.526,34665
0.94,-0.034,0.302,-2.563,34669
0.94,-0.034,0.302,-2.563,34673
0.961,-0.016,0.315,-0.427,34677
0.961,-0.016,0.315,0.549,34681
0.966,-0.013,0.312,0.305,34685
0.966,-0.013,0.312,0.732,34689
0.966,-0.013,0.312,0.732,34693
0.949,-0.023,0.304,0.122,34697
0.949,-0.023,0.304,-1.099,34701
0.964,-0.019,0.308,-0.549,34705
0.964,-0.019,0.308,0.732,34709
0.964,-0.019,0.308,0.732,34713
0.96,-0.023,0.303,0.305,34717
0.96,-0.023,0.303,-0.854,34721
0.966,-0.021,0.293,-1.404,34725
0.966,-0.021,0.293,-2.014,34729
0.966,-0.021,0.293,-2.014,34733
0.966,-0.018,0.294,-2.136,34737
0.966,-0.018,0.294,-1.282,34741
0.954,-0.018,0.292,-1.16,34745
0.954,-0.018,0.292,-1.648,34749
0.954,-0.018,0.292,-1.648,34753
0.97,-0.016,0.288,-1.526,34757
0.97,-0.016,0.288,-0.854,34761
0.974,-0.012,0.285,-0.549,34765
0.974,-0.012,0.285,-0.549,34769
0.968,-0.015,0.281,-0.366,34773
0.968,-0.015,0.281,-0.366,34777
0.968,-0.015,0.281,-0.732,34781
0.959,-0.02,0.276,-1.648,34785
0.959,-0.02,0.276,-2.197,34789
0.973,-0.012,0.282,-2.136,34793
0.973,-0.012,0.282,-2.136,34797
0.973,-0.012,0.282,-1.343,34801
0.975,-0.008,0.286,-0.427,34805
0.975,-0.008,0.286,-0.061,34809
0.966,-0.014,0.284,0.183,34813
0.966,-0.014,0.284,0.183,34817
0.966,-0.014,0.284,0.366,34821
0.963,-0.014,0.284,0.61,34825
0.963,-0.014,0.284,0.549,34829
0.966,-0.013,0.289,0.732,34833
0.966,-0.013,0.289,0.732,34837
0.966,-0.013,0.289,1.282,34841
0.972,-0.012,0.294,2.014,34845
0.972,-0.012,0.294,1.831,34849
0.957,-0.02,0.295,0.366,34853
0.957,-0.02,0.295,0.366,34857
0.957,-0.02,0.295,-0.366,34861
0.952,-0.017,0.299,-0.366,34865
0.952,-0.017,0.299,-0.916,34869
0.961,-0.013,0.301,-1.343,34873
0.961,-0.013,0.301,-1.343,34877
0.961,-0.013,0.301,-0.854,34881
0.963,-0.009,0.305,-0.244,34885
0.963,-0.009,0.305,-0.488,34889
0.959,-0.009,0.307,-0.183,34893
0.959,-0.009,0.307,-0.183,34897
0.959,-0.009,0.307,0.427,34901
0.953,-0.011,0.306,0.427,34905
0.953,-0.011,0.306,-0.061,34909
0.958,-0.01,0.308,0.061,34913
0.958,-0.01,0.308,0.061,34917
0.958,-0.01,0.308,0.549,34921
0.959,-0.009,0.308,0.732,34925
0.959,-0.009,0.308,0.732,34929
0.958,-0.01,0.308,1.038,34933
0.958,-0.01,0.308,1.16,34937
0.958,-0.01,0.308,1.16,34941
0.954,-0.016,0.302,0.549,34945
0.954,-0.016,0.302,-0.488,34949
0.958,-0.015,0.302,-0.732,34953
0.958,-0.015,0.302,-0.671,34957
0.958,-0.015,0.302,-0.671,34961
0.962,-0.014,0.301,-0.793,34965
0.962,-0.014,0.301,-0.732,34969
0.96,-0.014,0.3,-0.549,34973
0.96,-0.014,0.3,-0.61,34977
0.96,-0.014,0.3,-0.61,34981
0.962,-0.016,0.3,-0.427,34985
0.962,-0.016,0.3,0.122,34989
0.963,-0.018,0.297,0.366,34993
0.963,-0.018,0.297,-0.061,34997
0.963,-0.018,0.297,-0.061,35001
0.963,-0.019,0.294,-0.427,35005
0.963,-0.019,0.294,-0.305,35009
0.964,-0.018,0.294,-0.61,35013
0.964,-0.018,0.294,-0.732,35017
0.964,-0.018,0.294,-0.732,35021
0.967,-0.015,0.292,-0.427,35025
0.967,-0.015,0.292,-0.244,35029
0.967,-0.016,0.291,-0.305,35033
0.967,-0.016,0.291,-0.366,35037
0.967,-0.016,0.291,-0.366,35041
0.965,-0.017,0.29,-0.305,35045
0.965,-0.017,0.29,-0.549,35049
0.964,-0.016,0.288,-0.732,35053
0.964,-0.016,0.288,-0.671,35057
0.964,-0.016,0.287,-0.671,35061
0.964,-0.016,0.287,-0.671,35065
0.964,-0.016,0.287,-0.61,35069
0.968,-0.016,0.288,-0.488,35073
0.968,-0.016,0.288,-0.305,35077
0.969,-0.015,0.285,-0.244,35081
0.969,-0.015,0.285,-0.244,35085
0.969,-0.015,0.285,-0.305,35089
0.967,-0.018,0.283,-0.366,35093
0.967,-0.018,0.283,-0.488,35097
0.968,-0.017,0.284,-0.427,35101
0.968,-0.017,0.284,-0.427,35105
0.968,-0.017,0.284,-0.122,35109
0.967,-0.017,0.287,-0.061,35113
0.967,-0.017,0.287,-0.244,35117
0.967,-0.015,0.291,-0.061,35121
0.967,-0.015,0.291,-0.061,35125
0.967,-0.015,0.291,0.183,35129
0.958,-0.012,0.291,0.427,35133
0.958,-0.012,0.291,0.244,35137
0.97,-0.016,0.295,-0.671,35141
0.97,-0.016,0.295,-0.671,35145
0.97,-0.016,0.295,-0.427,35149
0.95,-0.009,0.299,2.38,35153
0.95,-0.009,0.299,1.77,35157
0.956,-0.027,0.297,-2.747,35161
0.956,-0.027,0.297,-2.747,35165
0.956,-0.027,0.297,-1.587,35169
0.994,0.001,0.314,3.418,35173
0.994,0.001,0.314,3.357,35177
0.917,-0.022,0.304,-0.61,35181
0.917,-0.022,0.304,-0.854,35185
0.917,-0.022,0.304,-0.854,35189
0.968,-0.016,0.305,0.061,35193
0.968,-0.016,0.305,-1.343,35197
0.958,-0.013,0.309,-2.014,35201
0.958,-0.013,0.309,-0.61,35205
0.958,-0.013,0.309,-0.61,35209
0.972,-0.001,0.315,1.16,35213
0.972,-0.001,0.315,1.221,35217
0.942,-0.019,0.3,-0.793,35221
0.942,-0.019,0.3,-2.563,35225
0.942,-0.019,0.3,-2.563,35229
0.946,-0.016,0.3,-3.418,35233
0.946,-0.016,0.3,-3.174,35237
0.98,-0.002,0.31,-1.648,35241
0.98,-0.002,0.31,0.305,35245
0.98,-0.002,0.31,0.305,35249
0.954,-0.01,0.301,0.671,35253
0.954,-0.01,0.301,-0.427,35257
0.961,-0.014,0.295,-0.977,35261
0.961,-0.014,0.295,-0.366,35265
0.961,-0.014,0.295,-0.366,35269
0.957,-0.01,0.299,0.183,35273
0.957,-0.01,0.299,0.183,35277
0.965,-0.008,0.294,0.549,35281
0.965,-0.008,0.294,1.16,35285
0.965,-0.008,0.294,1.16,35289
0.972,-0.013,0.289,0.916,35293
0.972,-0.013,0.289,0.061,35297
0.96,-0.014,0.287,-0.366,35301
0.96,-0.014,0.287,-0.305,35305
0.96,-0.014,0.287,-0.305,35309
0.959,-0.013,0.284,-0.916,35313
0.959,-0.013,0.284,-1.648,35317
0.971,-0.012,0.284,-2.075,35321
0.971,-0.012,0.284,-2.075,35325
0.979,-0.01,0.288,-1.282,35329
0.979,-0.01,0.288,-1.282,35333
0.979,-0.01,0.288,-0.122,35337
0.962,-0.017,0.285,0.488,35341
0.962,-0.017,0.285,0.671,35345
0.965,-0.021,0.278,0.916,35349
0.965,-0.021,0.278,0.916,35353
0.965,-0.021,0.278,1.221,35357
0.963,-0.023,0.283,0.732,35361
0.963,-0.023,0.283,0.305,35365
0.972,-0.021,0.294,0.793,35369
0.972,-0.021,0.294,0.793,35373
0.972,-0.021,0.294,0.671,35376
0.968,-0.019,0.293,0.305,35380
0.968,-0.019,0.293,0.305,35384
0.956,-0.017,0.293,0.122,35388
0.956,-0.017,0.293,0.122,35392
0.956,-0.017,0.293,-0.366,35396
0.962,-0.009,0.3,-0.061,35400
0.962,-0.009,0.3,0.305,35404
0.961,-0.008,0.306,0.305,35408
0.961,-0.008,0.306,0.305,35412
0.961,-0.008,0.306,0.488,35416
0.959,-0.008,0.308,0.488,35420
0.959,-0.008,0.308,0.427,35424
0.954,-0.011,0.307,0.061,35428
0.954,-0.011,0.307,0.061,35432
0.954,-0.011,0.307,-0.183,35436
0.959,-0.011,0.304,0.061,35440
0.959,-0.011,0.304,0.549,35444
0.963,-0.018,0.301,0.671,35448
0.963,-0.018,0.301,0.671,35452
0.963,-0.018,0.301,-0.061,35456
0.961,-0.024,0.296,-0.854,35460
0.961,-0.024,0.296,-0.732,35464
0.962,-0.022,0.295,-0.793,35468
0.962,-0.022,0.295,-1.343,35472
0.962,-0.022,0.295,-1.343,35476
0.962,-0.018,0.299,-0.977,35480
0.962,-0.018,0.299,-0.549,35484
0.964,-0.012,0.299,-0.488,35488
0.964,-0.012,0.299,-0.427,35492
0.964,-0.012,0.299,-0.427,35496
0.959,-0.012,0.302,0.0,35500
0.959,-0.012,0.302,0.183,35504
0.962,-0.013,0.3,-0.061,35508
0.962,-0.013,0.3,-0.061,35512
0.962,-0.013,0.3,-0.061,35516
0.967,-0.011,0.3,0.061,35520
0.967,-0.011,0.3,-0.061,35524
0.962,-0.014,0.3,-0.427,35528
0.962,-0.014,0.3,-0.427,35532
0.962,-0.014,0.3,-0.427,35536
0.961,-0.018,0.293,-0.732,35540
0.961,-0.018,0.293,-1.282,35544
0.96,-0.019,0.291,-1.038,35548
0.96,-0.019,0.291,-0.977,35552
0.96,-0.019,0.291,-0.977,35556
0.968,-0.018,0.292,-1.16,35560
0.968,-0.018,0.292,-0.488,35564
0.972,-0.019,0.292,0.244,35568
0.972,-0.019,0.292,-0.427,35572
0.972,-0.019,0.292,-0.427,35576
0.961,-0.022,0.288,-0.854,35580
0.961,-0.022,0.288,-0.671,35584
0.967,-0.021,0.286,-0.732,35588
0.967,-0.021,0.286,-0.549,35592
0.967,-0.021,0.286,-0.549,35596
0.965,-0.022,0.289,-0.122,35600
0.965,-0.022,0.289,-0.305,35604
0.973,-0.019,0.295,-0.305,35608
0.973,-0.019,0.295,-0.183,35612
0.966,-0.018,0.292,-0.488,35616
0.966,-0.018,0.292,-0.488,35620
0.966,-0.018,0.292,-0.916,35624
0.961,-0.014,0.287,-1.343,35628
0.961,-0.014,0.287,-1.953,35632
0.962,-0.009,0.289,-2.075,35636
0.962,-0.009,0.289,-2.075,35640
0.962,-0.009,0.289,-2.136,35644
0.965,-0.005,0.292,-2.319,35648
0.965,-0.005,0.292,-2.258,35652
0.969,-0.003,0.293,-1.892,35656
0.969,-0.003,0.293,-1.892,35660
0.969,-0.003,0.293,-1.77,35664
0.96,-0.004,0.29,-1.892,35668
0.96,-0.004,0.29,-1.953,35672
0.962,-0.004,0.292,-1.648,35676
0.962,-0.004,0.292,-1.648,35680
0.962,-0.004,0.292,-0.977,35684
0.964,-0.003,0.294,-0.427,35688
0.964,-0.003,0.294,0.061,35692
0.964,-0.006,0.295,0.916,35696
0.964,-0.006,0.295,0.916,35700
0.964,-0.006,0.295,1.709,35704
0.96,-0.008,0.296,2.258,35708
0.96,-0.008,0.296,2.38,35712
0.958,-0.009,0.297,2.869,35716
0.958,-0.009,0.297,2.869,35720
0.958,-0.009,0.297,3.418,35724
0.957,-0.012,0.301,3.601,35728
0.957,-0.012,0.301,3.418,35732
0.953,-0.019,0.304,2.991,35736
0.953,-0.019,0.304,2.991,35740
0.953,-0.019,0.304,1.038,35744
0.955,-0.019,0.309,-0.488,35748
0.955,-0.019,0.309,-0.122,35752
0.958,-0.014,0.308,-0.671,35756
0.958,-0.014,0.308,-0.671,35760
0.958,-0.014,0.308,-1.465,35764
0.958,-0.01,0.307,-1.221,35768
0.958,-0.01,0.307,-1.16,35772
0.955,-0.011,0.305,-1.831,35776
0.955,-0.011,0.305,-1.953,35780
0.955,-0.011,0.305,-1.953,35784
0.958,-0.007,0.305,-1.221,35788
0.958,-0.007,0.305,-0.732,35792
0.964,-0.011,0.298,-0.671,35796
0.964,-0.011,0.298,-0.549,35800
0.964,-0.011,0.298,-0.549,35804
0.964,-0.012,0.294,-0.183,35808
0.964,-0.012,0.294,0.305,35812
0.963,-0.016,0.288,0.671,35816
0.963,-0.016,0.288,0.427,35820
0.963,-0.016,0.288,0.427,35824
0.962,-0.023,0.282,-0.488,35828
0.962,-0.023,0.282,-0.732,35832
0.964,-0.02,0.285,-0.488,35836
0.964,-0.02,0.285,-0.488,35840
0.964,-0.02,0.285,-0.488,35844
0.967,-0.015,0.283,-0.305,35848
0.967,-0.015,0.283,0.122,35852
0.967,-0.015,0.287,0.549,35856
0.967,-0.015,0.287,0.488,35860
0.967,-0.015,0.287,0.488,35864
0.966,-0.015,0.292,0.793,35868
0.966,-0.015,0.292,0.854,35872
0.964,-0.017,0.295,0.122,35876
0.964,-0.017,0.295,-0.366,35880
0.964,-0.017,0.295,-0.366,35884
0.967,-0.016,0.296,-0.427,35888
0.967,-0.016,0.296,-0.488,35892
0.966,-0.016,0.293,-0.549,35896
0.966,-0.016,0.293,-0.183,35900
0.966,-0.016,0.292,-0.305,35904
0.966,-0.016,0.292,-0.305,35908
0.966,-0.016,0.292,-0.488,35912
0.964,-0.017,0.29,-0.427,35916
0.964,-0.017,0.29,-0.305,35920
0.962,-0.016,0.288,-0.244,35924
0.962,-0.016,0.288,-0.244,35928
0.962,-0.016,0.288,-0.366,35932
0.964,-0.015,0.291,-0.244,35936
0.964,-0.015,0.291,-0.122,35940
0.964,-0.015,0.292,-0.061,35944
0.964,-0.015,0.292,-0.061,35948
0.964,-0.015,0.292,0.061,35952
0.961,-0.017,0.295,0.061,35956
0.961,-0.017,0.295,0.0,35960
0.962,-0.015,0.297,0.0,35964
0.962,-0.015,0.297,0.0,35968
0.962,-0.015,0.297,0.061,35972
0.962,-0.017,0.296,0.183,35976
0.962,-0.017,0.296,0.122,35980
0.959,-0.018,0.298,0.305,35984
0.959,-0.018,0.298,0.305,35988
0.959,-0.018,0.298,0.061,35992
0.96,-0.016,0.301,-0.183,35995
0.96,-0.016,0.301,0.0,35999
0.96,-0.014,0.304,0.122,36003
0.96,-0.014,0.304,0.122,36007
0.96,-0.014,0.304,0.183,36011
0.958,-0.011,0.304,0.061,36015
0.958,-0.011,0.304,-0.122,36019
0.958,-0.011,0.303,-0.305,36023
0.958,-0.011,0.303,-0.305,36027
0.958,-0.011,0.303,-0.61,36031
0.959,-0.01,0.303,-0.793,36035
0.959,-0.01,0.303,-0.977,36039
0.961,-0.008,0.303,-1.038,36043
0.961,-0.008,0.303,-1.038,36047
0.961,-0.008,0.303,-0.977,36051
0.961,-0.009,0.301,-1.221,36055
0.961,-0.009,0.301,-1.16,36059
0.959,-0.01,0.296,-1.16,36063
0.959,-0.01,0.296,-1.16,36067
0.959,-0.01,0.296,-1.343,36071
0.962,-0.01,0.294,-1.221,36075
0.962,-0.01,0.294,-0.977,36079
0.965,-0.01,0.293,-0.793,36083
0.965,-0.01,0.293,-0.427,36087
0.965,-0.01,0.293,-0.427,36091
0.963,-0.011,0.292,-0.305,36095
0.963,-0.011,0.292,-0.244,36099
0.964,-0.01,0.29,0.0,36103
0.964,-0.01,0.29,0.061,36107
0.964,-0.01,0.29,0.061,36111
0.965,-0.009,0.29,0.244,36115
0.965,-0.009,0.29,0.366,36119
0.964,-0.011,0.289,0.61,36123
0.964,-0.011,0.289,0.366,36127
0.964,-0.011,0.289,0.366,36131
0.962,-0.011,0.29,0.183,36135
0.962,-0.011,0.29,0.183,36139
0.964,-0.011,0.291,0.122,36143
0.964,-0.011,0.291,0.244,36147
0.964,-0.011,0.291,0.244,36151
0.965,-0.01,0.294,0.427,36155
0.965,-0.01,0.294,0.549,36159
0.966,-0.013,0.295,0.732,36163
0.966,-0.013,0.295,0.793,36167
0.966,-0.013,0.295,0.793,36171
0.962,-0.019,0.295,0.183,36175
0.962,-0.019,0.295,-0.427,36179
0.964,-0.017,0.295,-0.549,36183
0.964,-0.017,0.295,-0.488,36187
0.964,-0.017,0.295,-0.488,36191
0.967,-0.018,0.292,-0.305,36195
0.967,-0.018,0.292,-0.061,36199
0.965,-0.023,0.291,-0.061,36203
0.965,-0.023,0.291,-0.244,36207
0.965,-0.023,0.291,-0.244,36211
0.957,-0.021,0.294,-0.183,36215
0.957,-0.021,0.294,-0.305,36219
0.949,-0.017,0.295,-0.671,36223
0.949,-0.017,0.295,-0.854,36227
0.964,-0.013,0.298,-0.488,36231
0.964,-0.013,0.298,-0.488,36235
0.964,-0.013,0.298,-0.061,36239
0.973,-0.013,0.301,0.244,36243
0.973,-0.013,0.301,1.221,36247
0.97,-0.014,0.305,2.258,36251
0.97,-0.014,0.305,2.258,36255
0.97,-0.014,0.305,1.038,36259
0.958,-0.026,0.304,-0.793,36263
0.958,-0.026,0.304,-0.671,36267
0.974,-0.022,0.303,-0.732,36271
0.974,-0.022,0.303,-0.732,36275
0.974,-0.022,0.303,-0.793,36279
0.977,-0.02,0.299,0.183,36283
0.977,-0.02,0.299,-0.061,36287
0.968,-0.023,0.292,-0.61,36291
0.968,-0.023,0.292,-0.61,36295
0.968,-0.023,0.292,-0.671,36299
0.942,-0.021,0.286,-1.526,36303
0.942,-0.021,0.286,-2.686,36307
0.941,-0.017,0.29,-3.296,36311
0.941,-0.017,0.29,-3.296,36315
0.941,-0.017,0.29,-3.784,36319
0.96,-0.012,0.294,-3.54,36323
0.96,-0.012,0.294,-2.625,36327
0.969,-0.011,0.294,-1.587,36331
0.969,-0.011,0.294,-1.587,36335
0.969,-0.011,0.294,-0.61,36339
0.98,-0.012,0.292,0.793,36343
0.98,-0.012,0.292,1.953,36347
0.971,-0.016,0.288,2.502,36351
0.971,-0.016,0.288,2.502,36355
0.971,-0.016,0.288,2.625,36359
0.962,-0.026,0.286,0.732,36363
0.962,-0.026,0.286,-1.282,36367
0.964,-0.012,0.293,-0.977,36371
0.964,-0.012,0.293,-1.648,36375
0.964,-0.012,0.293,-1.648,36379
0.96,-0.006,0.293,-3.418,36383
0.96,-0.006,0.293,-3.784,36387
0.957,0.002,0.298,-3.601,36391
0.957,0.002,0.298,-4.578,36395
0.957,0.002,0.298,-4.578,36399
0.95,0.004,0.305,-5.554,36403
0.95,0.004,0.305,-4.822,36407
0.957,0.007,0.308,-3.845,36411
0.957,0.007,0.308,-3.418,36415
0.957,0.007,0.308,-3.418,36419
0.961,0.001,0.308,-2.808,36423
0.961,0.001,0.308,-1.404,36427
0.966,0.002,0.302,0.427,36431
0.966,0.002,0.302,1.831,36435
0.966,0.002,0.302,1.831,36439
0.968,-0.002,0.296,3.357,36443
0.968,-0.002,0.296,4.761,36447
0.96,-0.009,0.287,5.615,36451
0.96,-0.009,0.287,5.859,36455
0.96,-0.009,0.287,5.859,36459
0.96,-0.013,0.284,6.287,36463
0.96,-0.013,0.284,5.798,36467
0.951,-0.03,0.288,1.953,36471
0.951,-0.03,0.288,-0.854,36475
0.951,-0.03,0.288,-0.854,36479
0.963,-0.015,0.3,0.366,36483
0.963,-0.015,0.3,-0.305,36487
0.959,-0.015,0.299,-1.953,36491
0.959,-0.015,0.299,-1.038,36495
0.959,-0.015,0.299,-1.038,36499
0.959,-0.009,0.303,-0.366,36503
0.959,-0.009,0.303,-1.343,36507
0.964,-0.007,0.314,-0.854,36511
0.964,-0.007,0.314,1.282,36515
0.964,-0.008,0.313,2.441,36519
0.964,-0.008,0.313,2.441,36523
0.964,-0.008,0.313,1.953,36527
0.956,-0.013,0.302,1.648,36531
0.956,-0.013,0.302,1.831,36534
0.953,-0.018,0.296,1.404,36538
0.953,-0.018,0.296,1.404,36542
0.953,-0.018,0.296,-0.488,36546
0.96,-0.023,0.286,-1.465,36550
0.96,-0.023,0.286,-1.404,36554
0.968,-0.023,0.282,-2.075,36558
0.968,-0.023,0.282,-2.075,36562
0.968,-0.023,0.282,-2.38,36566
0.971,-0.021,0.287,-1.526,36570
0.971,-0.021,0.287,-0.427,36574
0.971,-0.022,0.289,0.244,36578
0.971,-0.022,0.289,0.244,36582
0.971,-0.022,0.289,1.343,36586
0.971,-0.026,0.29,2.075,36590
0.971,-0.026,0.29,0.488,36594
0.965,-0.029,0.293,-0.854,36598
0.965,-0.029,0.293,-0.854,36602
0.965,-0.029,0.293,-0.61,36606
0.963,-0.018,0.291,-1.221,36610
0.963,-0.018,0.291,-1.892,36614
0.962,-0.014,0.287,-1.709,36618
0.962,-0.014,0.287,-1.709,36622
0.962,-0.014,0.287,-1.77,36626
0.96,-0.009,0.291,-2.136,36630
0.96,-0.009,0.291,-2.136,36634
0.965,-0.005,0.295,-1.465,36638
0.965,-0.005,0.295,-1.465,36642
0.965,-0.005,0.295,-0.732,36646
0.966,-0.011,0.292,-0.488,36650
0.966,-0.011,0.292,-0.427,36654
0.967,-0.014,0.292,0.122,36658
0.967,-0.014,0.292,1.038,36662
0.967,-0.014,0.292,1.038,36666
0.97,-0.014,0.293,1.831,36670
0.97,-0.014,0.293,2.686,36674
0.965,-0.019,0.292,2.991,36678
0.965,-0.019,0.292,0.549,36682
0.965,-0.019,0.292,0.549,36686
0.959,-0.02,0.296,-1.221,36690
0.959,-0.02,0.296,-0.549,36694
0.956,-0.013,0.297,-1.221,36698
0.956,-0.013,0.297,-2.38,36702
0.956,-0.013,0.297,-2.38,36706
0.956,-0.005,0.298,-1.953,36710
0.956,-0.005,0.298,-1.831,36714
0.955,-0.008,0.3,-2.747,36718
0.955,-0.008,0.3,-2.93,36722
0.955,-0.008,0.3,-2.93,36726
0.959,-0.002,0.308,-1.648,36730
0.959,-0.002,0.308,-0.854,36734
0.961,-0.005,0.308,-0.854,36738
0.961,-0.005,0.308,-0.61,36742
0.961,-0.005,0.308,-0.61,36746
0.963,-0.003,0.307,0.122,36750
0.963,-0.003,0.307,0.732,36754
0.962,-0.005,0.303,1.282,36758
0.962,-0.005,0.303,2.014,36762
0.962,-0.005,0.303,2.014,36766
0.96,-0.007,0.298,2.319,36770
0.96,-0.007,0.298,1.953,36774
0.958,-0.01,0.293,1.526,36778
0.958,-0.01,0.293,1.343,36782
0.958,-0.01,0.293,1.343,36786
0.958,-0.008,0.293,1.16,36790
0.958,-0.008,0.293,0.793,36794
0.961,-0.014,0.295,0.122,36798
0.961,-0.014,0.295,-0.183,36802
0.961,-0.014,0.295,-0.183,36806
0.963,-0.014,0.295,-0.061,36810
0.963,-0.014,0.295,-0.366,36814
0.968,-0.013,0.296,0.0,36818
0.968,-0.013,0.296,0.671,36822
0.968,-0.013,0.296,0.671,36826
0.97,-0.015,0.297,0.977,36830
0.97,-0.015,0.297,0.916,36834
0.967,-0.019,0.296,0.732,36838
0.967,-0.019,0.296,-0.061,36842
0.957,-0.018,0.294,-0.732,36846
0.957,-0.018,0.294,-0.732,36850
0.957,-0.018,0.294,-1.038,36854
0.958,-0.015,0.292,-1.831,36858
0.958,-0.015,0.292,-2.136,36862
0.967,-0.011,0.293,-1.892,36866
0.967,-0.011,0.293,-1.892,36870
0.967,-0.011,0.293,-1.465,36874
0.965,-0.012,0.293,-0.793,36878
0.965,-0.012,0.293,0.183,36882
0.955,-0.019,0.287,0.854,36886
0.955,-0.019,0.287,0.854,36890
0.955,-0.019,0.287,0.854,36894
0.962,-0.025,0.284,0.916,36898
0.962,-0.025,0.284,1.099,36902
0.979,-0.028,0.292,0.427,36906
0.979,-0.028,0.292,0.427,36910
0.979,-0.028,0.292,-0.122,36914
0.981,-0.024,0.3,-0.305,36918
0.981,-0.024,0.3,-0.793,36922
0.963,-0.022,0.292,-0.977,36926
0.963,-0.022,0.292,-0.977,36930
0.963,-0.022,0.292,-1.038,36934
0.949,-0.023,0.283,-1.648,36938
0.949,-0.023,0.283,-2.38,36942
0.964,-0.013,0.292,-1.831,36946
0.964,-0.013,0.292,-1.831,36950
0.964,-0.013,0.292,-0.977,36954
0.979,-0.004,0.3,0.366,36958
0.979,-0.004,0.3,1.404,36962
0.958,-0.009,0.294,1.526,36966
0.958,-0.009,0.294,1.526,36970
0.958,-0.009,0.294,0.732,36974
0.947,-0.018,0.293,-0.061,36978
0.947,-0.018,0.293,-0.244,36982
0.965,-0.013,0.298,0.305,36986
0.965,-0.013,0.298,0.854,36990
0.965,-0.013,0.298,0.854,36994
0.972,-0.01,0.3,1.526,36998
0.972,-0.01,0.3,1.16,37002
0.963,-0.017,0.298,-0.366,37006
0.963,-0.017,0.298,-0.916,37010
0.963,-0.017,0.298,-0.916,37014
0.952,-0.014,0.299,-0.977,37018
0.952,-0.014,0.299,-1.831,37022
0.955,-0.009,0.3,-2.197,37026
0.955,-0.009,0.3,-1.77,37030
0.955,-0.009,0.3,-1.77,37034
0.965,-0.006,0.304,-1.892,37038
0.965,-0.006,0.304,-2.075,37042
0.962,-0.004,0.303,-1.587,37046
0.962,-0.004,0.303,-1.099,37050
0.962,-0.004,0.303,-1.099,37054
0.955,-0.006,0.3,-0.977,37058
0.955,-0.006,0.3,-1.465,37061
0.956,-0.005,0.298,-1.587,37065
0.956,-0.005,0.298,-1.526,37069
0.956,-0.005,0.298,-1.526,37073
0.962,-0.003,0.298,-1.099,37077
0.962,-0.003,0.298,-0.61,37081
0.963,-0.002,0.296,-0.244,37085
0.963,-0.002,0.296,-0.061,37089
0.963,-0.002,0.296,-0.061,37093
0.96,-0.006,0.29,-0.305,37097
0.96,-0.006,0.29,-0.488,37101
0.958,-0.005,0.29,-0.244,37105
0.958,-0.005,0.29,0.244,37109
0.958,-0.005,0.29,0.244,37113
0.966,-0.008,0.292,0.671,37117
0.966,-0.008,0.292,1.16,37121
0.969,-0.01,0.292,2.014,37125
0.969,-0.01,0.292,2.563,37129
0.969,-0.01,0.292,2.563,37133
0.965,-0.012,0.291,2.808,37137
0.965,-0.012,0.291,3.174,37141
0.962,-0.02,0.293,3.235,37145
0.962,-0.02,0.293,1.526,37149
0.961,-0.024,0.298,-0.671,37153
0.961,-0.024,0.298,-0.671,37157
0.961,-0.024,0.298,-0.549,37161
0.964,-0.017,0.301,-0.488,37165
0.964,-0.017,0.301,-1.343,37169
0.965,-0.015,0.295,-0.977,37173
0.965,-0.015,0.295,-0.977,37177
0.965,-0.015,0.295,-0.549,37181
0.962,-0.017,0.293,-0.793,37185
0.962,-0.017,0.293,-0.61,37189
0.964,-0.012,0.295,0.366,37193
0.964,-0.012,0.295,0.366,37197
0.964,-0.012,0.295,1.465,37201
0.965,-0.021,0.292,0.854,37205
0.965,-0.021,0.292,-0.61,37209
0.967,-0.022,0.29,-0.366,37213
0.967,-0.022,0.29,-0.366,37217
0.967,-0.022,0.29,-0.305,37221
0.968,-0.02,0.29,-0.549,37225
0.968,-0.02,0.29,0.183,37229
0.963,-0.021,0.295,0.183,37233
0.963,-0.021,0.295,0.183,37237
0.963,-0.021,0.295,-0.427,37241
0.962,-0.02,0.292,-0.305,37245
0.962,-0.02,0.292,-0.061,37249
0.962,-0.02,0.296,0.183,37253
0.962,-0.02,0.296,0.183,37257
0.962,-0.02,0.296,0.244,37261
0.961,-0.02,0.299,-0.244,37265
0.961,-0.02,0.299,-0.793,37269
0.959,-0.017,0.299,-0.671,37273
0.959,-0.017,0.299,-0.671,37277
0.959,-0.017,0.299,-0.671,37281
0.963,-0.015,0.296,-0.549,37285
0.963,-0.015,0.296,-0.244,37289
0.966,-0.015,0.296,-0.366,37293
0.966,-0.015,0.296,-0.488,37297
0.966,-0.015,0.296,-0.488,37301
0.965,-0.013,0.296,-0.305,37305
0.965,-0.013,0.296,-0.305,37309
0.961,-0.011,0.295,-0.671,37313
0.961,-0.011,0.295,-1.038,37317
0.961,-0.011,0.295,-1.038,37321
0.959,-0.011,0.295,-1.404,37325
0.959,-0.011,0.295,-1.892,37329
0.962,-0.005,0.298,-2.014,37333
0.962,-0.005,0.298,-1.892,37337
0.962,-0.005,0.298,-1.892,37341
0.962,-0.005,0.298,-1.831,37345
0.962,-0.005,0.298,-1.892,37349
0.959,-0.006,0.297,-1.77,37353
0.959,-0.006,0.297,-1.709,37357
0.959,-0.006,0.297,-1.709,37361
0.96,-0.007,0.297,-1.526,37365
0.96,-0.007,0.297,-1.465,37369
0.962,-0.005,0.297,-0.977,37373
0.962,-0.005,0.297,-0.427,37377
0.962,-0.005,0.297,-0.427,37381
0.961,-0.004,0.297,0.0,37385
0.961,-0.004,0.297,0.183,37389
0.961,-0.006,0.293,0.427,37393
0.961,-0.006,0.293,0.854,37397
0.961,-0.006,0.293,0.854,37401
0.962,-0.007,0.293,1.16,37405
0.962,-0.007,0.293,1.343,37409
0.962,-0.006,0.295,1.526,37413
0.962,-0.006,0.295,1.77,37417
0.962,-0.006,0.295,1.77,37421
0.962,-0.009,0.296,1.831,37425
0.962,-0.009,0.296,1.77,37429
0.963,-0.011,0.297,1.709,37433
0.963,-0.011,0.297,1.77,37437
0.962,-0.012,0.299,1.831,37441
0.962,-0.012,0.299,1.831,37445
0.962,-0.012,0.299,1.282,37449
0.961,-0.018,0.299,0.244,37453
0.961,-0.018,0.299,-0.366,37457
0.962,-0.018,0.301,-0.244,37461
0.962,-0.018,0.301,-0.244,37465
0.962,-0.018,0.301,-0.488,37469
0.962,-0.017,0.298,-0.671,37473
0.962,-0.017,0.298,-0.305,37477
0.964,-0.018,0.296,-0.122,37481
0.964,-0.018,0.296,-0.122,37485
0.964,-0.018,0.296,-0.244,37489
0.964,-0.019,0.293,-0.122,37493
0.964,-0.019,0.293,0.122,37497
0.963,-0.021,0.291,-0.244,37501
0.963,-0.021,0.291,-0.244,37505
0.963,-0.021,0.291,-0.366,37509
0.966,-0.022,0.291,-0.244,37513
0.966,-0.022,0.291,-0.183,37517
0.965,-0.021,0.294,0.122,37521
0.965,-0.021,0.294,0.122,37525
0.965,-0.021,0.294,0.244,37529
0.966,-0.022,0.296,0.122,37533
0.966,-0.022,0.296,-0.183,37537
0.964,-0.02,0.296,-0.244,37541
0.964,-0.02,0.296,-0.244,37545
0.964,-0.02,0.296,-0.366,37549
0.961,-0.018,0.294,-0.488,37553
0.961,-0.018,0.294,-0.366,37557
0.963,-0.018,0.292,-0.488,37561
0.963,-0.018,0.292,-0.488,37565
0.963,-0.018,0.292,-0.671,37569
0.963,-0.015,0.29,-0.61,37573
0.963,-0.015,0.29,-0.427,37577
0.965,-0.014,0.292,-0.366,37581
0.965,-0.014,0.292,-0.366,37585
0.965,-0.014,0.292,-0.366,37589
0.965,-0.016,0.293,-0.366,37593
0.965,-0.016,0.293,-0.366,37597
0.967,-0.016,0.292,-0.244,37601
0.967,-0.016,0.292,-0.305,37605
0.967,-0.016,0.292,-0.305,37609
0.963,-0.016,0.293,-0.427,37613
0.963,-0.016,0.293,-0.366,37617
0.961,-0.013,0.293,-0.671,37621
0.961,-0.013,0.293,-0.916,37625
0.961,-0.013,0.293,-0.916,37629
0.961,-0.01,0.294,-0.916,37633
0.961,-0.01,0.294,-0.854,37637
0.962,-0.009,0.296,-0.854,37641
0.962,-0.009,0.296,-1.038,37645
0.962,-0.009,0.296,-1.038,37649
0.962,-0.008,0.297,-1.038,37653
0.962,-0.008,0.297,-1.099,37657
0.956,-0.01,0.296,-1.221,37661
0.956,-0.01,0.296,-1.404,37665
0.956,-0.01,0.296,-1.404,37669
0.958,-0.008,0.298,-1.465,37673
0.958,-0.008,0.298,-1.282,37677
0.961,-0.005,0.302,-1.038,37681
0.961,-0.005,0.302,-0.793,37685
0.961,-0.005,0.302,-0.793,37689
0.961,-0.005,0.301,-0.366,37693
0.961,-0.005,0.301,-0.061,37697
0.958,-0.006,0.297,0.305,37701
0.958,-0.006,0.297,0.427,37705
0.96,-0.007,0.298,0.549,37709
0.96,-0.007,0.298,0.549,37713
0.96,-0.007,0.298,0.732,37717
0.961,-0.008,0.299,1.099,37721
0.961,-0.008,0.299,1.282,37725
0.962,-0.01,0.298,1.404,37729
0.962,-0.01,0.298,1.404,37733
0.962,-0.01,0.298,1.404,37737
0.961,-0.01,0.297,1.404,37741
0.961,-0.01,0.297,1.404,37744
0.96,-0.014,0.296,1.038,37748
0.96,-0.014,0.296,1.038,37752
0.96,-0.014,0.296,0.061,37756
0.96,-0.016,0.3,-0.244,37760
0.96,-0.016,0.3,-0.244,37764
0.961,-0.016,0.3,-0.549,37768
0.961,-0.016,0.3,-0.549,37772
0.961,-0.016,0.3,-0.793,37776
0.963,-0.012,0.296,-0.366,37780
0.963,-0.012,0.296,-0.183,37784
0.966,-0.015,0.297,-0.183,37788
0.966,-0.015,0.297,-0.183,37792
0.966,-0.015,0.297,0.122,37797
0.964,-0.014,0.296,0.549,37801
0.964,-0.014,0.296,0.183,37805
0.963,-0.019,0.291,-0.549,37809
0.963,-0.019,0.291,-0.549,37812
0.963,-0.019,0.291,-0.427,37816
0.965,-0.019,0.291,-0.427,37820
0.965,-0.019,0.291,-0.549,37824
0.966,-0.017,0.29,-0.183,37829
0.966,-0.017,0.29,0.061,37833
0.966,-0.017,0.29,0.061,37837
0.965,-0.018,0.29,-0.366,37841
0.965,-0.018,0.29,-0.244,37845
0.966,-0.019,0.292,-0.122,37849
0.966,-0.019,0.292,-0.183,37853
0.966,-0.019,0.292,-0.183,37857
0.962,-0.019,0.293,-0.244,37861
0.962,-0.019,0.293,-0.305,37865
0.964,-0.018,0.29,-0.366,37869
0.964,-0.018,0.29,-0.305,37873
0.964,-0.018,0.29,-0.305,37877
0.965,-0.017,0.29,-0.244,37881
0.965,-0.017,0.29,-0.183,37885
0.965,-0.019,0.291,-0.305,37889
0.965,-0.019,0.291,-0.305,37893
0.965,-0.019,0.291,-0.305,37897
0.965,-0.016,0.293,-0.305,37901
0.965,-0.016,0.293,-0.244,37905
0.964,-0.014,0.294,-0.305,37909
0.964,-0.014,0.294,-0.183,37913
0.964,-0.014,0.294,-0.183,37917
0.961,-0.015,0.295,-0.244,37921
0.961,-0.015,0.295,-0.244,37925
0.962,-0.013,0.296,-0.183,37929
0.962,-0.013,0.296,-0.061,37932
0.962,-0.013,0.296,-0.061,37937
0.962,-0.012,0.299,0.0,37940
0.962,-0.012,0.299,0.061,37944
0.961,-0.012,0.297,-0.061,37948
0.961,-0.012,0.297,-0.244,37952
0.961,-0.012,0.297,-0.244,37956
0.959,-0.011,0.301,-0.183,37960
0.959,-0.011,0.301,-0.305,37964
0.958,-0.012,0.301,-0.488,37968
0.958,-0.012,0.301,-0.488,37972
0.961,-0.01,0.301,-0.61,37976
0.961,-0.01,0.301,-0.61,37980
0.961,-0.01,0.301,-0.61,37984
0.961,-0.011,0.301,-0.61,37988
0.961,-0.011,0.301,-0.732,37992
0.961,-0.008,0.301,-0.732,37996
0.961,-0.008,0.301,-0.732,38000
0.961,-0.008,0.301,-0.854,38004
0.96,-0.008,0.3,-1.038,38008
0.96,-0.008,0.3,-1.099,38012
0.958,-0.007,0.297,-1.282,38016
0.958,-0.007,0.297,-1.282,38020
0.958,-0.007,0.297,-1.343,38024
0.959,-0.005,0.3,-1.343,38028
0.959,-0.005,0.3,-1.404,38032
0.954,-0.007,0.297,-1.465,38036
0.954,-0.007,0.297,-1.465,38040
0.954,-0.007,0.297,-1.587,38044
0.955,-0.008,0.295,-1.587,38048
0.955,-0.008,0.295,-1.587,38052
0.968,-0.004,0.297,-1.282,38056
0.968,-0.004,0.297,-1.282,38060
0.968,-0.004,0.297,-0.488,38064
0.973,-0.005,0.298,0.732,38068
0.973,-0.005,0.298,1.587,38072
0.965,-0.009,0.294,2.319,38076
0.965,-0.009,0.294,2.319,38080
0.965,-0.009,0.294,2.625,38084
0.961,-0.015,0.29,2.563,38088
0.961,-0.015,0.29,2.502,38092
0.963,-0.017,0.292,2.38,38096
0.963,-0.017,0.292,2.38,38100
0.963,-0.017,0.292,0.61,38104
0.958,-0.015,0.292,-0.671,38108
0.958,-0.015,0.292,-0.671,38112
0.959,-0.015,0.292,-1.16,38116
0.959,-0.015,0.292,-1.16,38120
0.959,-0.015,0.292,-2.014,38124
0.968,-0.013,0.294,-1.343,38128
0.968,-0.013,0.294,-0.244,38132
0.969,-0.017,0.295,0.366,38136
0.969,-0.017,0.295,0.366,38140
0.969,-0.017,0.295,1.526,38144
0.962,-0.02,0.294,2.808,38148
0.962,-0.02,0.294,2.686,38152
0.96,-0.033,0.289,0.0,38156
0.96,-0.033,0.289,-1.038,38160
0.96,-0.033,0.289,-1.038,38164
0.97,-0.021,0.294,-0.183,38168
0.97,-0.021,0.294,-0.916,38172
0.969,-0.016,0.295,-0.732,38176
0.969,-0.016,0.295,0.0,38180
0.969,-0.016,0.295,0.0,38184
0.961,-0.02,0.293,-0.549,38188
0.961,-0.02,0.293,-1.16,38192
0.958,-0.017,0.298,-0.854,38196
0.958,-0.017,0.298,-0.122,38200
0.958,-0.017,0.298,-0.122,38204
0.966,-0.012,0.298,0.671,38208
0.966,-0.012,0.298,1.038,38212
0.966,-0.017,0.297,0.488,38216
0.966,-0.017,0.297,-0.427,38220
0.966,-0.017,0.297,-0.427,38224
0.962,-0.017,0.298,-0.793,38228
0.962,-0.017,0.298,-0.916,38232
0.96,-0.015,0.294,-0.977,38236
0.96,-0.015,0.294,-0.916,38240
0.96,-0.015,0.294,-0.916,38244
0.964,-0.013,0.295,-0.732,38248
0.964,-0.013,0.295,-0.916,38252
0.963,-0.013,0.297,-0.977,38256
0.963,-0.013,0.297,-0.244,38260
0.963,-0.013,0.297,-0.244,38264
0.961,-0.011,0.296,0.183,38268
0.961,-0.011,0.296,0.122,38272
0.961,-0.012,0.294,-0.061,38276
0.961,-0.012,0.294,-0.183,38280
0.961,-0.012,0.294,-0.183,38284
0.963,-0.01,0.297,-0.427,38288
0.963,-0.01,0.297,-0.305,38292
0.964,-0.009,0.299,-0.122,38296
0.964,-0.009,0.299,-0.122,38300
0.958,-0.01,0.296,-0.488,38304
0.958,-0.01,0.296,-0.488,38308
0.958,-0.01,0.296,-0.977,38312
0.958,-0.009,0.297,-1.404,38316
0.958,-0.009,0.297,-1.526,38320
0.963,-0.003,0.298,-1.465,38324
0.963,-0.003,0.298,-1.465,38328
0.963,-0.003,0.298,-1.465,38332
0.961,-0.003,0.3,-1.404,38336
0.961,-0.003,0.3,-1.526,38340
0.958,-0.007,0.297,-1.892,38344
0.958,-0.007,0.297,-1.892,38348
0.958,-0.007,0.297,-1.953,38352
0.96,-0.006,0.297,-1.709,38356
0.96,-0.006,0.297,-1.16,38360
0.964,-0.006,0.296,-0.488,38364
0.964,-0.006,0.296,-0.488,38368
0.964,-0.006,0.296,0.183,38372
0.963,-0.009,0.292,0.732,38376
0.963,-0.009,0.292,1.099,38380
0.965,-0.01,0.292,1.77,38384
0.965,-0.01,0.292,1.77,38388
0.965,-0.01,0.292,2.502,38392
0.964,-0.011,0.293,2.991,38396
0.964,-0.011,0.293,3.174,38400
0.96,-0.021,0.291,2.625,38404
0.96,-0.021,0.291,2.625,38408
0.96,-0.021,0.291,0.183,38412
0.958,-0.019,0.297,-0.732,38416
0.958,-0.019,0.297,-0.244,38420
0.961,-0.015,0.297,-1.038,38424
0.961,-0.015,0.297,-1.343,38428
0.961,-0.015,0.297,-1.343,38432
0.963,-0.012,0.296,-0.427,38436
0.963,-0.012,0.296,-0.061,38440
0.962,-0.015,0.299,-0.549,38444
0.962,-0.015,0.299,0.061,38448
0.962,-0.015,0.299,0.061,38452
0.963,-0.012,0.301,1.282,38456
0.963,-0.012,0.301,1.587,38460
0.965,-0.02,0.295,1.343,38464
0.965,-0.02,0.295,0.793,38468
0.965,-0.02,0.295,0.793,38472
0.965,-0.023,0.294,-0.427,38476
0.965,-0.023,0.294,-0.977,38480
0.963,-0.021,0.29,-0.916,38484
0.963,-0.021,0.29,-1.343,38488
0.963,-0.021,0.29,-1.343,38492
0.964,-0.018,0.29,-1.282,38496
0.964,-0.018,0.29,-0.854,38500
0.966,-0.016,0.292,-0.854,38504
0.966,-0.016,0.292,-0.305,38508
0.966,-0.016,0.292,-0.305,38512
0.967,-0.014,0.297,0.671,38516
0.967,-0.014,0.297,1.221,38520
0.962,-0.02,0.293,0.61,38524
0.962,-0.02,0.293,-0.732,38527
0.962,-0.02,0.293,-0.732,38531
0.962,-0.019,0.293,-0.732,38535
0.962,-0.019,0.293,-0.671,38539
0.966,-0.014,0.294,-0.977,38543
0.966,-0.014,0.294,-0.488,38547
0.966,-0.014,0.294,-0.488,38551
0.965,-0.013,0.294,0.061,38555
0.965,-0.013,0.294,-0.305,38559
0.961,-0.014,0.293,-0.793,38563
0.961,-0.014,0.293,-0.671,38567
0.963,-0.01,0.296,-0.549,38571
0.963,-0.01,0.296,-0.549,38575
0.963,-0.01,0.296,-0.305,38579
0.963,-0.011,0.296,-0.366,38583
0.963,-0.011,0.296,-0.122,38587
0.961,-0.012,0.296,-0.366,38591
0.961,-0.012,0.296,-0.366,38596
0.961,-0.012,0.296,-0.793,38600
0.959,-0.01,0.296,-0.916,38604
0.959,-0.01,0.296,-0.488,38608
0.962,-0.01,0.296,-0.305,38612
0.962,-0.01,0.296,-0.305,38616
0.962,-0.01,0.296,-0.488,38620
0.961,-0.01,0.295,-0.427,38624
0.961,-0.01,0.295,-0.305,38628
0.962,-0.011,0.297,-0.366,38632
0.962,-0.011,0.297,-0.366,38636
0.962,-0.011,0.297,-0.366,38640
0.961,-0.009,0.298,-0.183,38644
0.961,-0.009,0.298,-0.305,38648
0.96,-0.01,0.297,-0.183,38652
0.96,-0.01,0.297,-0.183,38656
0.96,-0.01,0.297,-0.122,38660
0.96,-0.01,0.297,-0.305,38664
0.96,-0.01,0.297,-0.305,38668
0.961,-0.008,0.298,-0.183,38672
0.961,-0.008,0.298,-0.122,38676
0.961,-0.008,0.298,-0.122,38680
0.961,-0.009,0.299,-0.183,38684
0.961,-0.009,0.299,-0.183,38688
0.96,-0.009,0.299,-0.061,38692
0.96,-0.009,0.299,0.0,38696
0.96,-0.009,0.299,0.0,38699
0.961,-0.009,0.297,0.183,38703
0.961,-0.009,0.297,0.305,38707
0.961,-0.012,0.298,0.305,38711
0.961,-0.012,0.298,0.61,38715
0.961,-0.012,0.298,0.61,38719
0.962,-0.012,0.299,0.793,38723
0.962,-0.012,0.299,1.038,38727
0.962,-0.019,0.296,0.916,38731
0.962,-0.019,0.296,-0.061,38735
0.962,-0.019,0.296,-0.061,38739
0.96,-0.017,0.295,-0.427,38743
0.96,-0.017,0.295,-0.305,38747
0.963,-0.017,0.294,-0.549,38751
0.963,-0.017,0.294,-0.549,38755
0.963,-0.017,0.294,-0.549,38759
0.966,-0.014,0.294,-0.061,38763
0.966,-0.014,0.294,0.122,38767
0.966,-0.015,0.293,0.122,38771
0.966,-0.015,0.293,0.305,38775
0.966,-0.015,0.293,0.305,38779
0.965,-0.018,0.295,0.244,38783
0.965,-0.018,0.295,-0.305,38787
0.963,-0.016,0.292,-0.549,38791
0.963,-0.016,0.292,-0.427,38795
0.963,-0.016,0.292,-0.427,38799
0.964,-0.015,0.293,-0.427,38803
0.964,-0.015,0.293,-0.366,38807
0.965,-0.014,0.293,-0.061,38811
0.965,-0.014,0.293,-0.061,38815
0.963,-0.017,0.292,0.061,38819
0.963,-0.017,0.292,0.061,38823
0.963,-0.017,0.292,-0.061,38827
0.963,-0.017,0.295,-0.183,38831
0.963,-0.017,0.295,-0.305,38835
0.964,-0.016,0.295,-0.366,38839
0.964,-0.016,0.295,-0.366,38843
0.964,-0.016,0.295,-0.244,38847
0.964,-0.019,0.294,-0.183,38851
0.964,-0.019,0.294,-0.366,38855
0.964,-0.017,0.292,-0.427,38859
0.964,-0.017,0.292,-0.427,38863
0.964,-0.017,0.292,-0.366,38867
0.965,-0.016,0.294,-0.366,38871
0.965,-0.016,0.294,-0.366,38875
0.963,-0.014,0.295,-0.305,38879
0.963,-0.014,0.295,-0.305,38883
0.963,-0.014,0.295,-0.244,38887
0.964,-0.013,0.295,-0.305,38891
0.964,-0.013,0.295,-0.305,38895
0.96,-0.011,0.296,-0.183,38899
0.96,-0.011,0.296,-0.183,38903
0.96,-0.011,0.296,-0.061,38907
0.959,-0.011,0.296,-0.244,38911
0.959,-0.011,0.296,-0.244,38915
0.958,-0.011,0.297,-0.549,38919
0.958,-0.011,0.297,-0.549,38923
0.958,-0.011,0.297,-0.793,38927
0.944,-0.01,0.296,-1.343,38931
0.944,-0.01,0.296,-2.258,38935
0.948,-0.007,0.301,-3.052,38939
0.948,-0.007,0.301,-3.052,38943
0.948,-0.007,0.301,-3.357,38947
0.972,-0.003,0.306,-2.93,38951
0.972,-0.003,0.306,-1.709,38955
0.975,-0.0,0.307,-0.732,38959
0.975,-0.0,0.307,0.183,38963
0.975,-0.0,0.307,0.183,38967
0.954,-0.006,0.302,0.61,38971
0.954,-0.006,0.302,0.366,38975
0.957,-0.006,0.298,-0.122,38979
0.957,-0.006,0.298,0.061,38983
0.957,-0.006,0.298,0.061,38987
0.973,-0.0,0.302,1.038,38991
0.973,-0.0,0.302,1.587,38995
0.97,-0.003,0.3,1.953,38999
0.97,-0.003,0.3,1.892,39003
0.97,-0.003,0.3,1.892,39007
0.955,-0.007,0.29,1.404,39011
0.955,-0.007,0.29,0.488,39015
0.941,-0.011,0.286,-0.793,39019
0.941,-0.011,0.286,-1.404,39023
0.941,-0.011,0.286,-1.404,39027
0.97,-0.009,0.294,-1.099,39031
0.97,-0.009,0.294,0.061,39035
0.979,-0.011,0.297,1.099,39039
0.979,-0.011,0.297,2.075,39043
0.979,-0.011,0.297,2.075,39047
0.968,-0.019,0.293,3.052,39051
0.968,-0.019,0.293,3.357,39055
0.953,-0.035,0.29,0.916,39059
0.953,-0.035,0.29,-1.099,39063
0.953,-0.035,0.29,-1.099,39067
0.959,-0.025,0.289,-0.488,39071
0.959,-0.025,0.289,-0.305,39075
0.957,-0.035,0.284,-0.61,39079
0.957,-0.035,0.284,0.61,39083
0.957,-0.035,0.284,0.61,39087
0.999,-0.047,0.292,1.587,39091
0.999,-0.047,0.292,0.061,39095
0.99,-0.024,0.308,-0.488,39099
0.99,-0.024,0.308,-0.488,39103
0.99,-0.024,0.308,-0.488,39107
0.907,-0.019,0.294,-3.357,39111
0.907,-0.019,0.294,-7.263,39115
0.955,-0.018,0.28,-9.399,39119
0.955,-0.018,0.28,-9.155,39123
0.955,-0.018,0.28,-9.155,39127
0.989,-0.002,0.298,-8.24,39131
0.989,-0.002,0.298,-5.066,39135
0.998,0.01,0.305,0.122,39139
0.998,0.01,0.305,3.784,39143
0.94,-0.014,0.276,3.174,39147
0.94,-0.014,0.276,3.174,39151
0.94,-0.014,0.276,0.549,39155
0.961,-0.015,0.276,-0.122,39159
0.961,-0.015,0.276,2.441,39163
0.978,-0.0,0.291,5.798,39167
0.978,-0.0,0.291,5.798,39171
0.978,-0.0,0.291,7.202,39175
0.962,-0.018,0.285,7.996,39179
0.962,-0.018,0.285,5.127,39183
0.95,-0.037,0.288,-0.854,39187
0.95,-0.037,0.288,-0.854,39191
0.95,-0.037,0.288,-1.038,39195
0.96,-0.016,0.304,0.549,39199
0.96,-0.016,0.304,-0.305,39203
0.972,-0.008,0.307,1.038,39207
0.972,-0.008,0.307,1.038,39211
0.972,-0.008,0.307,2.441,39215
0.955,-0.018,0.303,0.427,39219
0.955,-0.018,0.303,-1.953,39223
0.961,-0.006,0.314,-1.038,39227
0.961,-0.006,0.314,-1.038,39231
0.961,-0.006,0.314,0.549,39235
0.954,-0.004,0.312,0.183,39239
0.954,-0.004,0.312,-1.465,39243
0.947,-0.007,0.303,-2.686,39247
0.947,-0.007,0.303,-2.686,39251
0.947,-0.007,0.303,-3.662,39255
0.956,-0.004,0.301,-4.944,39259
0.956,-0.004,0.301,-5.005,39263
0.971,-0.0,0.302,-3.357,39267
0.971,-0.0,0.302,-2.014,39271
0.971,-0.0,0.302,-2.014,39275
0.957,-0.01,0.287,-1.709,39279
0.957,-0.01,0.287,-1.587,39283
0.959,-0.013,0.281,-1.404,39287
0.959,-0.013,0.281,-0.732,39291
0.959,-0.013,0.281,-0.732,39295
0.978,-0.011,0.285,0.854,39299
0.978,-0.011,0.285,3.174,39303
0.968,-0.013,0.286,4.883,39307
0.968,-0.013,0.286,5.249,39311
0.968,-0.013,0.286,5.249,39315
0.964,-0.021,0.283,5.188,39319
0.964,-0.021,0.283,3.357,39323
0.955,-0.023,0.294,0.488,39326
0.955,-0.023,0.294,0.183,39330
0.955,-0.023,0.294,0.183,39334
0.962,-0.013,0.304,0.183,39338
0.962,-0.013,0.304,-0.671,39342
0.966,-0.01,0.303,-0.977,39346
0.966,-0.01,0.303,-0.854,39350
0.966,-0.01,0.303,-0.854,39354
0.954,-0.012,0.303,-1.404,39358
0.954,-0.012,0.303,-1.892,39362
0.961,-0.008,0.309,-1.16,39366
0.961,-0.008,0.309,-0.366,39370
0.961,-0.008,0.309,-0.366,39374
0.971,-0.009,0.304,-0.061,39378
0.971,-0.009,0.304,-0.061,39382
0.961,-0.011,0.294,0.183,39386
0.961,-0.011,0.294,0.366,39390
0.961,-0.011,0.294,0.366,39394
0.959,-0.014,0.289,0.305,39398
0.959,-0.014,0.289,-0.244,39402
0.962,-0.019,0.28,-0.854,39406
0.962,-0.019,0.28,-0.671,39410
0.966,-0.021,0.278,-0.488,39414
0.966,-0.021,0.278,-0.488,39418
0.966,-0.021,0.278,-0.183,39422
0.968,-0.02,0.283,0.305,39426
0.968,-0.02,0.283,0.61,39430
0.967,-0.019,0.288,0.916,39434
0.967,-0.019,0.288,0.916,39438
0.967,-0.019,0.288,0.793,39442
0.939,-0.016,0.288,0.916,39446
0.939,-0.016,0.288,-0.305,39450
0.986,-0.01,0.297,-3.723,39454
0.986,-0.01,0.297,-3.723,39458
0.986,-0.01,0.297,-3.906,39462
1.021,0.017,0.32,1.77,39466
1.021,0.017,0.32,5.493,39470
0.878,-0.025,0.292,0.732,39474
0.878,-0.025,0.292,0.732,39478
0.878,-0.025,0.292,-3.784,39482
0.985,-0.016,0.295,-2.319,39486
0.985,-0.016,0.295,-0.061,39490
0.919,-0.019,0.304,-1.282,39494
0.919,-0.019,0.304,-1.282,39498
0.919,-0.019,0.304,-2.136,39502
1.021,0.001,0.315,1.831,39506
1.021,0.001,0.315,7.141,39510
0.94,-0.024,0.295,5.676,39514
0.94,-0.024,0.295,5.676,39518
0.94,-0.024,0.295,-1.953,39522
0.938,-0.029,0.291,-3.052,39526
0.938,-0.029,0.291,0.854,39530
0.981,-0.019,0.302,0.671,39534
0.981,-0.019,0.302,0.671,39538
0.981,-0.019,0.302,-0.671,39542
0.962,-0.019,0.3,-0.122,39546
0.962,-0.019,0.3,-0.488,39550
0.973,-0.022,0.295,-0.732,39554
0.973,-0.022,0.295,-0.488,39558
0.973,-0.022,0.295,-0.488,39562
0.936,-0.023,0.29,-0.732,39566
0.936,-0.023,0.29,-1.16,39570
0.972,-0.013,0.294,-0.61,39574
0.972,-0.013,0.294,0.183,39578
0.972,-0.013,0.294,0.183,39582
0.965,-0.012,0.296,-0.061,39586
0.965,-0.012,0.296,-0.305,39590
0.974,-0.011,0.295,0.305,39594
0.974,-0.011,0.295,0.427,39598
0.974,-0.011,0.295,0.427,39602
0.961,-0.017,0.291,-0.61,39606
0.961,-0.017,0.291,-0.854,39610
0.958,-0.017,0.287,-1.038,39614
0.958,-0.017,0.287,-1.099,39618
0.958,-0.017,0.287,-1.099,39622
0.977,-0.012,0.292,-0.488,39626
0.977,-0.012,0.292,0.366,39630
0.964,-0.015,0.294,0.854,39634
0.964,-0.015,0.294,0.549,39638
0.964,-0.015,0.294,0.549,39642
0.949,-0.02,0.288,0.061,39646
0.949,-0.02,0.288,-0.488,39650
0.97,-0.017,0.292,-0.671,39654
0.97,-0.017,0.292,0.061,39658
0.97,-0.017,0.292,0.061,39662
0.969,-0.011,0.298,1.343,39666
0.969,-0.011,0.298,0.916,39670
0.955,-0.019,0.297,-0.549,39674
0.955,-0.019,0.297,-0.732,39678
0.955,-0.019,0.297,-0.732,39682
0.96,-0.018,0.294,-1.343,39686
0.96,-0.018,0.294,-2.136,39690
0.966,-0.009,0.298,-1.465,39694
0.966,-0.009,0.298,-0.244,39698
0.959,-0.007,0.298,-0.61,39702
0.959,-0.007,0.298,-0.61,39706
0.959,-0.007,0.298,-1.099,39710
0.971,-0.007,0.297,-1.282,39714
0.971,-0.007,0.297,-0.793,39718
0.958,-0.004,0.298,-0.61,39722
0.958,-0.004,0.298,-0.61,39726
0.958,-0.004,0.298,-0.366,39730
0.909,-0.013,0.285,-1.465,39734
0.909,-0.013,0.285,-4.883,39738
1.003,-0.003,0.297,-6.165,39742
1.003,-0.003,0.297,-6.165,39746
1.003,-0.003,0.297,-2.869,39750
1.002,0.006,0.311,0.671,39754
1.002,0.006,0.311,2.502,39758
0.942,-0.011,0.291,3.906,39762
0.942,-0.011,0.291,3.906,39766
0.942,-0.011,0.291,3.54,39770
0.93,-0.03,0.272,0.977,39774
0.93,-0.03,0.272,-0.977,39778
0.964,-0.016,0.292,-0.244,39782
0.964,-0.016,0.292,-0.244,39786
0.964,-0.016,0.292,2.93,39790
0.991,-0.01,0.305,5.92,39794
0.991,-0.01,0.305,3.967,39798
0.974,-0.035,0.302,-1.038,39802
0.974,-0.035,0.302,-1.038,39806
0.974,-0.035,0.302,-0.977,39810
0.947,-0.022,0.301,-0.732,39814
0.947,-0.022,0.301,-3.235,39818
0.936,-0.016,0.298,-2.991,39822
0.936,-0.016,0.298,-2.991,39826
0.936,-0.016,0.298,-1.465,39830
0.966,-0.016,0.301,-2.625,39834
0.966,-0.016,0.301,-3.296,39838
0.985,-0.003,0.312,-0.61,39842
0.985,-0.003,0.312,-0.61,39846
0.985,-0.003,0.312,2.686,39850
0.972,-0.007,0.307,3.906,39854
0.972,-0.007,0.307,3.784,39858
0.944,-0.027,0.288,2.869,39862
0.944,-0.027,0.288,-0.183,39866
0.944,-0.027,0.288,-0.183,39870
0.953,-0.027,0.288,-2.014,39874
0.953,-0.027,0.288,-0.732,39878
0.98,-0.013,0.291,-0.305,39882
0.98,-0.013,0.291,-0.366,39886
0.98,-0.013,0.291,-0.366,39890
0.969,-0.018,0.286,0.0,39894
0.969,-0.018,0.286,-0.916,39898
0.963,-0.021,0.285,-1.892,39902
0.963,-0.021,0.285,-1.831,39906
0.963,-0.021,0.285,-1.831,39910
0.969,-0.009,0.292,-0.549,39914
0.969,-0.009,0.292,0.366,39918
0.965,-0.015,0.287,0.305,39922
0.965,-0.015,0.287,-0.122,39926
0.965,-0.015,0.287,-0.122,39930
0.964,-0.018,0.281,-0.549,39934
0.964,-0.018,0.281,-0.793,39938
0.97,-0.012,0.286,-0.732,39942
0.97,-0.012,0.286,-0.183,39946
0.97,-0.012,0.286,-0.183,39950
0.966,-0.01,0.287,-0.061,39954
0.966,-0.01,0.287,-0.488,39958
0.961,-0.013,0.287,-0.977,39962
0.961,-0.013,0.287,-1.648,39966
0.961,-0.013,0.287,-1.648,39970
0.958,-0.011,0.292,-1.892,39974
0.958,-0.011,0.292,-1.526,39978
0.968,-0.007,0.298,-0.854,39982
0.968,-0.007,0.298,0.122,39986
0.968,-0.007,0.298,0.122,39990
0.972,-0.01,0.303,0.977,39994
0.972,-0.01,0.303,1.77,39998
0.976,-0.019,0.308,3.296,40002
0.976,-0.019,0.308,5.005,40005
0.926,-0.032,0.302,4.639,40009
0.926,-0.032,0.302,4.639,40013
0.926,-0.032,0.302,-0.061,40017
0.938,-0.034,0.303,-2.93,40021
0.938,-0.034,0.303,-1.465,40025
0.952,-0.015,0.302,0.977,40029
0.952,-0.015,0.302,0.977,40033
0.952,-0.015,0.302,7.385,40037
0.754,-0.058,0.258,-10.742,40041
0.754,-0.058,0.258,-35.767,40045
1.637,0.051,0.422,-5.737,40049
1.637,0.051,0.422,-5.737,40053
1.637,0.051,0.422,71.228,40058
0.731,-0.042,0.278,72.205,40062
0.731,-0.042,0.278,22.278,40066
0.436,0.008,0.188,-21.423,40070
0.436,0.008,0.188,-21.423,40074
0.436,0.008,0.188,-65.552,40078
1.131,-0.013,0.318,-88.867,40082
1.131,-0.013,0.318,4.395,40086
1.211,-0.017,0.316,22.827,40090
1.211,-0.017,0.316,-13.184,40094
1.211,-0.017,0.316,-13.184,40098
1.038,0.011,0.247,-2.747,40102
1.038,0.011,0.247,6.348,40106
0.79,-0.035,0.232,2.319,40110
0.79,-0.035,0.232,-2.38,40114
0.79,-0.035,0.232,-2.38,40118
0.898,-0.041,0.234,-7.507,40122
0.898,-0.041,0.234,-5.188,40126
1.092,0.012,0.297,4.7,40130
1.092,0.012,0.297,13.123,40134
1.092,0.012,0.297,13.123,40138
1.047,-0.007,0.313,14.526,40142
1.047,-0.007,0.313,8.545,40146
0.935,-0.035,0.299,11.536,40150
0.935,-0.035,0.299,7.935,40154
0.935,-0.035,0.299,7.935,40158
0.806,-0.081,0.263,-5.798,40162
0.806,-0.081,0.263,-18.677,40166
1.015,-0.006,0.301,-14.709,40170
1.015,-0.006,0.301,-5.127,40174
1.015,-0.006,0.301,-5.127,40178
1.065,0.027,0.327,-1.465,40182
1.065,0.027,0.327,3.235,40186
0.948,0.006,0.294,9.277,40190
0.948,0.006,0.294,3.845,40194
0.882,-0.057,0.254,-1.953,40198
0.882,-0.057,0.254,-1.953,40202
0.882,-0.057,0.254,-3.662,40206
0.98,-0.004,0.277,-2.93,40210
0.98,-0.004,0.277,-1.038,40214
1.025,0.008,0.294,0.427,40218
1.025,0.008,0.294,0.427,40222
1.025,0.008,0.294,1.465,40226
0.959,-0.023,0.279,0.0,40230
0.959,-0.023,0.279,-2.747,40234
0.909,-0.03,0.263,-4.15,40238
0.909,-0.03,0.263,-4.15,40242
0.909,-0.03,0.263,-5.188,40246
0.971,-0.004,0.283,-4.272,40250
0.971,-0.004,0.283,0.122,40254
1.043,0.019,0.308,5.554,40258
1.043,0.019,0.308,5.554,40262
1.043,0.019,0.308,10.315,40266
0.956,-0.022,0.29,9.155,40270
0.956,-0.022,0.29,2.136,40274
0.892,-0.05,0.28,-3.296,40278
0.892,-0.05,0.28,-3.296,40282
0.892,-0.05,0.28,-7.751,40286
0.968,-0.011,0.285,-8.789,40290
0.968,-0.011,0.285,-6.714,40294
1.012,0.02,0.3,-2.747,40298
1.012,0.02,0.3,-2.747,40302
1.012,0.02,0.3,1.709,40306
0.979,0.006,0.287,4.028,40310
0.979,0.006,0.287,4.7,40314
0.915,-0.025,0.267,2.808,40318
0.915,-0.025,0.267,2.808,40322
0.915,-0.025,0.267,-0.977,40326
0.968,-0.016,0.274,-1.038,40330
0.968,-0.016,0.274,0.061,40334
0.99,-0.006,0.284,-0.244,40338
0.99,-0.006,0.284,0.61,40342
0.99,-0.006,0.284,0.61,40346
0.964,-0.009,0.284,0.488,40350
0.964,-0.009,0.284,-0.366,40354
0.949,-0.01,0.28,-0.549,40358
0.949,-0.01,0.28,0.183,40362
0.949,-0.01,0.28,0.183,40366
0.956,-0.008,0.285,0.977,40370
0.956,-0.008,0.285,1.282,40374
0.991,-0.015,0.294,1.526,40378
0.991,-0.015,0.294,0.854,40382
0.991,-0.015,0.294,0.854,40386
0.962,-0.019,0.294,-0.122,40390
0.962,-0.019,0.294,-0.732,40394
0.947,-0.017,0.282,-0.61,40398
0.947,-0.017,0.282,-0.427,40402
0.947,-0.017,0.282,-0.427,40406
0.967,-0.013,0.281,0.0,40410
0.967,-0.013,0.281,0.61,40414
0.977,-0.015,0.288,0.061,40418
0.977,-0.015,0.288,-0.061,40422
0.977,-0.015,0.288,-0.061,40426
0.972,-0.018,0.286,-0.061,40430
0.972,-0.018,0.286,-0.549,40434
0.958,-0.018,0.279,-0.732,40438
0.958,-0.018,0.279,-0.427,40442
0.958,-0.018,0.279,-0.427,40446
0.967,-0.016,0.281,0.244,40450
0.967,-0.016,0.281,0.977,40454
0.969,-0.022,0.287,0.549,40458
0.969,-0.022,0.287,-0.366,40462
0.974,-0.023,0.284,-0.366,40466
0.974,-0.023,0.284,-0.366,40470
0.974,-0.023,0.284,-0.549,40474
0.968,-0.021,0.274,-0.61,40478
0.968,-0.021,0.274,-0.305,40482
0.962,-0.017,0.277,-0.061,40486
0.962,-0.017,0.277,-0.061,40490
0.962,-0.017,0.277,0.122,40494
0.973,-0.014,0.289,0.183,40498
0.973,-0.014,0.289,0.305,40502
0.96,-0.016,0.291,-0.366,40506
0.96,-0.016,0.291,-0.366,40510
0.96,-0.016,0.291,-0.732,40514
0.963,-0.015,0.285,-0.671,40518
0.963,-0.015,0.285,-0.427,40522
0.966,-0.013,0.281,-0.122,40526
0.966,-0.013,0.281,-0.122,40530
0.966,-0.013,0.281,0.061,40534
0.962,-0.015,0.285,0.0,40538
0.962,-0.015,0.285,0.0,40542
0.969,-0.018,0.289,-0.244,40546
0.969,-0.018,0.289,-0.244,40550
0.969,-0.018,0.289,-0.366,40554
0.977,-0.018,0.292,-0.244,40558
0.977,-0.018,0.292,-0.061,40562
0.955,-0.02,0.29,-0.427,40566
0.955,-0.02,0.29,-0.427,40570
0.955,-0.02,0.29,-0.549,40574
0.963,-0.015,0.288,-0.305,40578
0.963,-0.015,0.288,-0.244,40582
0.965,-0.014,0.283,-0.244,40586
0.965,-0.014,0.283,-0.366,40590
0.965,-0.014,0.283,-0.366,40594
0.966,-0.011,0.283,-0.366,40598
0.966,-0.011,0.283,-0.366,40602
0.969,-0.008,0.281,-0.488,40606
0.969,-0.008,0.281,-0.427,40610
0.969,-0.008,0.281,-0.427,40614
0.966,-0.005,0.279,-0.305,40618
0.966,-0.005,0.279,-0.366,40622
0.96,-0.005,0.284,-0.366,40626
0.96,-0.005,0.284,-0.305,40630
0.96,-0.005,0.284,-0.305,40634
0.969,-0.004,0.289,-0.366,40638
0.969,-0.004,0.289,-0.244,40642
0.968,-0.005,0.287,-0.183,40646
0.968,-0.005,0.287,-0.366,40650
0.968,-0.005,0.287,-0.366,40654
0.965,-0.006,0.281,-0.244,40658
0.965,-0.006,0.281,-0.183,40662
0.961,-0.006,0.28,-0.122,40666
0.961,-0.006,0.28,-0.122,40670
0.961,-0.006,0.28,-0.122,40674
0.964,-0.007,0.284,0.0,40678
0.964,-0.007,0.284,0.061,40682
0.969,-0.01,0.289,0.061,40686
0.969,-0.01,0.289,-0.061,40690
0.966,-0.013,0.288,-0.122,40694
0.966,-0.013,0.288,-0.122,40698
0.966,-0.013,0.288,-0.061,40702
0.959,-0.016,0.285,-0.122,40706
0.959,-0.016,0.285,-0.244,40710
0.963,-0.016,0.283,0.061,40714
0.963,-0.016,0.283,0.061,40718
0.963,-0.016,0.283,0.0,40722
0.97,-0.018,0.286,0.122,40726
0.97,-0.018,0.286,-0.061,40730
0.964,-0.02,0.286,-0.244,40734
0.964,-0.02,0.286,-0.244,40738
0.964,-0.02,0.286,-0.183,40742
0.965,-0.018,0.286,-0.183,40746
0.965,-0.018,0.286,-0.122,40750
0.966,-0.017,0.286,-0.061,40754
0.966,-0.017,0.286,-0.061,40758
0.966,-0.017,0.286,-0.122,40762
0.963,-0.019,0.285,-0.122,40766
0.963,-0.019,0.285,-0.122,40770
0.966,-0.018,0.285,-0.244,40774
0.966,-0.018,0.285,-0.244,40778
0.966,-0.018,0.285,-0.183,40782
0.967,-0.018,0.284,-0.122,40786
0.967,-0.018,0.284,-0.244,40790
0.968,-0.017,0.285,-0.244,40794
0.968,-0.017,0.285,-0.244,40798
0.968,-0.017,0.285,-0.244,40802
0.966,-0.016,0.287,-0.122,40806
0.966,-0.016,0.287,-0.305,40810
0.964,-0.015,0.283,-0.366,40814
0.964,-0.015,0.283,-0.244,40818
0.964,-0.015,0.283,-0.244,40822
0.969,-0.014,0.283,-0.122,40826
0.969,-0.014,0.283,-0.244,40830
0.97,-0.017,0.282,-0.305,40834
0.97,-0.017,0.282,-0.488,40838
0.97,-0.017,0.282,-0.488,40842
0.967,-0.017,0.281,-0.244,40846
0.967,-0.017,0.281,-0.305,40850
0.967,-0.016,0.283,-0.366,40854
0.967,-0.016,0.283,-0.305,40858
0.967,-0.016,0.283,-0.305,40862
0.967,-0.016,0.284,-0.183,40866
0.967,-0.016,0.284,-0.183,40870
0.964,-0.016,0.287,-0.244,40874
0.964,-0.016,0.287,-0.488,40878
0.964,-0.016,0.287,-0.488,40882
0.967,-0.012,0.284,-0.366,40886
0.967,-0.012,0.284,-0.061,40890
0.968,-0.012,0.284,-0.122,40894
0.968,-0.012,0.284,-0.366,40898
0.966,-0.013,0.287,-0.183,40902
0.966,-0.013,0.287,-0.183,40906
0.966,-0.013,0.287,-0.366,40910
0.963,-0.01,0.287,-0.305,40914
0.963,-0.01,0.287,-0.366,40918
0.964,-0.009,0.283,-0.305,40922
0.964,-0.009,0.283,-0.305,40926
0.964,-0.009,0.283,-0.244,40930
0.967,-0.008,0.284,-0.244,40934
0.967,-0.008,0.284,-0.183,40938
0.966,-0.008,0.286,-0.244,40942
0.966,-0.008,0.286,-0.244,40946
0.966,-0.008,0.286,-0.305,40950
0.965,-0.009,0.285,-0.183,40954
0.965,-0.009,0.285,-0.183,40958
0.965,-0.008,0.286,-0.122,40962
0.965,-0.008,0.286,-0.122,40966
0.965,-0.008,0.286,-0.061,40970
0.963,-0.009,0.286,-0.122,40974
0.963,-0.009,0.286,0.061,40978
0.965,-0.009,0.287,-0.244,40982
0.965,-0.009,0.287,-0.244,40986
0.965,-0.009,0.287,-0.244,40990
0.962,-0.007,0.286,-0.183,40994
0.962,-0.007,0.286,-0.244,40998
0.964,-0.007,0.286,-0.183,41002
0.964,-0.007,0.286,-0.183,41006
0.964,-0.007,0.286,-0.183,41010
0.963,-0.008,0.288,-0.183,41014
0.963,-0.008,0.288,-0.122,41018
0.964,-0.01,0.29,-0.061,41022
0.964,-0.01,0.29,-0.061,41026
0.964,-0.01,0.29,-0.061,41030
0.963,-0.011,0.289,-0.183,41034
0.963,-0.011,0.289,-0.061,41038
0.964,-0.013,0.284,0.061,41042
0.964,-0.013,0.284,0.061,41046
0.964,-0.013,0.284,0.061,41050
0.963,-0.016,0.287,-0.061,41054
0.963,-0.016,0.287,0.061,41058
0.967,-0.02,0.291,0.122,41062
0.967,-0.02,0.291,0.0,41066
0.967,-0.02,0.291,0.0,41070
0.966,-0.02,0.291,-0.244,41074
0.966,-0.02,0.291,-0.244,41078
0.962,-0.021,0.288,-0.366,41082
0.962,-0.021,0.288,-0.183,41086
0.962,-0.021,0.288,-0.183,41090
0.965,-0.019,0.282,-0.122,41094
0.965,-0.019,0.282,-0.183,41098
0.965,-0.019,0.282,-0.122,41102
0.965,-0.019,0.282,-0.122,41106
0.969,-0.017,0.28,-0.366,41110
0.969,-0.017,0.28,-0.366,41114
0.969,-0.017,0.28,-0.061,41118
0.97,-0.015,0.279,-0.061,41122
0.97,-0.015,0.279,-0.183,41126
0.969,-0.013,0.28,-0.122,41130
0.969,-0.013,0.28,-0.122,41134
0.969,-0.013,0.28,-0.122,41138
0.971,-0.01,0.28,-0.244,41142
0.971,-0.01,0.28,-0.244,41146
0.968,-0.01,0.277,-0.183,41150
0.968,-0.01,0.277,-0.183,41154
0.968,-0.01,0.277,-0.183,41158
0.971,-0.014,0.278,-0.183,41162
0.971,-0.014,0.278,-0.183,41166
0.97,-0.017,0.281,-0.305,41170
0.97,-0.017,0.281,-0.305,41174
0.97,-0.017,0.281,-0.244,41178
0.965,-0.021,0.284,-0.427,41183
0.965,-0.021,0.284,-0.427,41187
0.966,-0.025,0.284,-0.244,41191
0.966,-0.025,0.284,-0.244,41195
0.966,-0.025,0.284,-0.244,41199
0.965,-0.023,0.285,-0.244,41203
0.965,-0.023,0.285,-0.122,41207
0.965,-0.023,0.288,-0.244,41211
0.965,-0.023,0.288,-0.366,41215
0.965,-0.023,0.288,-0.366,41219
0.966,-0.019,0.289,-0.305,41223
0.966,-0.019,0.289,-0.305,41227
0.965,-0.02,0.287,-0.244,41231
0.965,-0.02,0.287,-0.305,41235
0.965,-0.02,0.287,-0.305,41239
0.963,-0.014,0.29,-0.305,41243
0.963,-0.014,0.29,-0.244,41247
0.962,-0.013,0.29,-0.366,41251
0.962,-0.013,0.29,-0.305,41255
0.962,-0.013,0.29,-0.305,41259
0.962,-0.013,0.291,-0.183,41263
0.962,-0.013,0.291,-0.244,41267
0.963,-0.011,0.292,-0.183,41271
0.963,-0.011,0.292,-0.427,41275
0.963,-0.011,0.292,-0.427,41279
0.963,-0.008,0.288,-0.671,41283
0.963,-0.008,0.288,-0.427,41287
0.968,-0.004,0.281,-0.427,41291
0.968,-0.004,0.281,-0.305,41295
0.967,-0.006,0.277,-0.427,41299
0.967,-0.006,0.277,-0.427,41303
0.967,-0.006,0.277,-0.244,41307
0.967,-0.009,0.279,-0.244,41311
0.967,-0.009,0.279,-0.122,41315
0.968,-0.015,0.281,-0.061,41319
0.968,-0.015,0.281,-0.061,41323
0.968,-0.015,0.281,0.0,41327
0.967,-0.021,0.284,-0.122,41331
0.967,-0.021,0.284,-0.244,41335
0.966,-0.023,0.286,-0.244,41339
0.966,-0.023,0.286,-0.244,41343
0.966,-0.023,0.286,-0.427,41347
0.966,-0.02,0.285,-0.366,41351
0.966,-0.02,0.285,-0.122,41355
0.967,-0.014,0.281,-0.183,41359
0.967,-0.014,0.281,-0.183,41363
0.967,-0.014,0.281,-0.244,41367
0.967,-0.007,0.283,-0.366,41371
0.967,-0.007,0.283,-0.244,41375
0.969,-0.005,0.284,-0.366,41379
0.969,-0.005,0.284,-0.366,41383
0.969,-0.005,0.284,-0.366,41387
0.964,-0.005,0.281,-0.366,41391
0.964,-0.005,0.281,-0.305,41395
0.967,-0.01,0.28,-0.061,41399
0.967,-0.01,0.28,-0.061,41403
0.967,-0.01,0.28,0.0,41407
0.966,-0.012,0.284,-0.122,41411
0.966,-0.012,0.284,-0.366,41415
0.969,-0.012,0.284,-0.488,41419
0.969,-0.012,0.284,-0.305,41423
0.969,-0.012,0.284,-0.305,41427
0.969,-0.014,0.281,-0.305,41431
0.969,-0.014,0.281,-0.427,41435
0.965,-0.013,0.28,-0.366,41439
0.965,-0.013,0.28,-0.244,41443
0.965,-0.013,0.28,-0.244,41447
0.967,-0.012,0.281,-0.305,41451
0.967,-0.012,0.281,-0.244,41455
0.966,-0.013,0.283,-0.244,41459
0.966,-0.013,0.283,-0.183,41463
0.966,-0.013,0.283,-0.183,41467
0.964,-0.01,0.286,-0.244,41471
0.964,-0.01,0.286,-0.244,41475
0.962,-0.009,0.286,-0.183,41479
0.962,-0.009,0.286,-0.183,41483
0.962,-0.009,0.286,-0.183,41487
0.959,-0.008,0.29,-0.061,41491
0.959,-0.008,0.29,0.122,41495
0.96,-0.006,0.294,0.244,41499
0.96,-0.006,0.294,0.305,41503
0.96,-0.006,0.294,0.305,41507
0.962,-0.006,0.295,0.427,41511
0.962,-0.006,0.295,0.427,41515
0.962,-0.009,0.298,0.305,41519
0.962,-0.009,0.298,0.244,41523
0.962,-0.009,0.298,0.244,41527
0.96,-0.016,0.296,0.183,41531
0.96,-0.016,0.296,-0.061,41535
0.961,-0.017,0.295,-0.122,41539
0.961,-0.017,0.295,-0.061,41543
0.958,-0.018,0.294,-0.061,41547
0.958,-0.018,0.294,-0.061,41551
0.958,-0.018,0.294,0.0,41555
0.959,-0.021,0.292,0.061,41559
0.959,-0.021,0.292,-0.061,41563
0.963,-0.021,0.292,0.0,41567
0.963,-0.021,0.292,0.0,41571
0.963,-0.021,0.292,-0.061,41575
0.965,-0.018,0.289,-0.061,41579
0.965,-0.018,0.289,-0.061,41583
0.965,-0.016,0.288,0.0,41587
0.965,-0.016,0.288,0.0,41591
0.965,-0.016,0.288,0.0,41595
0.961,-0.014,0.285,-0.061,41599
0.961,-0.014,0.285,0.0,41602
0.969,-0.014,0.28,-0.183,41607
0.969,-0.014,0.28,-0.183,41611
0.969,-0.014,0.28,-0.183,41615
0.976,-0.011,0.281,-0.061,41619
0.976,-0.011,0.281,-0.183,41623
0.967,-0.009,0.278,-0.549,41627
0.967,-0.009,0.278,-0.549,41631
0.967,-0.009,0.278,-0.488,41635
0.969,-0.008,0.275,-0.488,41639
0.969,-0.008,0.275,-0.366,41643
0.97,-0.01,0.273,-0.488,41647
0.97,-0.01,0.273,-0.488,41651
0.97,-0.01,0.273,-0.671,41655
0.978,-0.013,0.271,-0.183,41659
0.978,-0.013,0.271,0.122,41663
0.972,-0.016,0.267,-0.244,41667
0.972,-0.016,0.267,-0.244,41671
0.972,-0.016,0.267,-0.366,41675
0.972,-0.019,0.269,-0.183,41679
0.972,-0.019,0.269,0.0,41683
0.971,-0.024,0.276,-0.061,41687
0.971,-0.024,0.276,-0.061,41691
0.971,-0.024,0.276,-0.061,41695
0.971,-0.025,0.281,-0.122,41699
0.971,-0.025,0.281,-0.305,41703
0.971,-0.026,0.281,-0.366,41707
0.971,-0.026,0.281,-0.366,41711
0.971,-0.026,0.281,-0.366,41715
0.968,-0.025,0.281,-0.305,41719
0.968,-0.025,0.281,-0.122,41723
0.965,-0.021,0.284,-0.244,41727
0.965,-0.021,0.284,0.061,41731
0.965,-0.021,0.284,0.061,41735
0.964,-0.02,0.288,0.183,41739
0.964,-0.02,0.288,0.0,41743
0.965,-0.017,0.289,-0.122,41747
0.965,-0.017,0.289,-0.061,41751
0.965,-0.017,0.289,-0.061,41755
0.964,-0.015,0.29,0.122,41759
0.964,-0.015,0.29,0.061,41763
0.962,-0.019,0.293,-0.061,41767
0.962,-0.019,0.293,-0.061,41771
0.962,-0.019,0.293,-0.061,41775
0.964,-0.019,0.297,-0.366,41779
0.964,-0.019,0.297,-0.427,41783
0.96,-0.018,0.292,-0.488,41787
0.96,-0.018,0.292,-0.61,41791
0.96,-0.018,0.284,-0.549,41795
0.96,-0.018,0.284,-0.549,41799
0.96,-0.018,0.284,-0.488,41803
0.962,-0.015,0.285,-0.366,41807
0.962,-0.015,0.285,-0.305,41811
0.967,-0.01,0.29,-0.244,41815
0.967,-0.01,0.29,-0.244,41819
0.967,-0.01,0.29,-0.366,41823
0.964,-0.008,0.291,-0.427,41827
0.964,-0.008,0.291,-0.61,41831
0.96,-0.007,0.289,-0.488,41835
0.96,-0.007,0.289,-0.488,41839
0.96,-0.007,0.289,-0.488,41843
0.964,-0.006,0.287,-0.305,41847
0.964,-0.006,0.287,-0.305,41851
0.967,-0.005,0.286,-0.366,41855
0.967,-0.005,0.286,-0.366,41859
0.967,-0.005,0.286,-0.366,41863
0.963,-0.006,0.286,-0.366,41867
0.963,-0.006,0.286,-0.305,41871
0.962,-0.006,0.284,-0.183,41875
0.962,-0.006,0.284,-0.183,41879
0.962,-0.006,0.284,-0.244,41883
0.963,-0.006,0.285,-0.183,41887
0.963,-0.006,0.285,-0.122,41891
0.966,-0.008,0.287,-0.061,41895
0.966,-0.008,0.287,-0.122,41899
0.966,-0.008,0.287,-0.122,41903
0.965,-0.008,0.283,-0.061,41907
0.965,-0.008,0.283,-0.061,41911
0.964,-0.01,0.281,0.0,41915
0.964,-0.01,0.281,-0.061,41919
0.964,-0.01,0.281,-0.061,41923
0.964,-0.011,0.282,-0.061,41927
0.964,-0.011,0.282,0.061,41931
0.967,-0.01,0.283,0.0,41935
0.967,-0.01,0.283,-0.061,41939
0.967,-0.01,0.283,-0.061,41943
0.967,-0.011,0.282,-0.061,41947
0.967,-0.011,0.282,-0.061,41951
0.965,-0.011,0.28,-0.061,41955
0.965,-0.011,0.28,-0.122,41959
0.965,-0.011,0.28,-0.122,41963
0.969,-0.011,0.28,-0.061,41967
0.969,-0.011,0.28,0.061,41971
0.967,-0.013,0.285,0.0,41975
0.967,-0.013,0.285,-0.061,41979
0.967,-0.013,0.285,-0.061,41983
0.968,-0.016,0.286,-0.122,41987
0.968,-0.016,0.286,0.0,41991
0.97,-0.017,0.286,0.122,41995
0.97,-0.017,0.286,0.0,41999
0.97,-0.017,0.286,0.0,42003
0.967,-0.023,0.286,-0.183,42007
0.967,-0.023,0.286,0.0,42011
0.965,-0.025,0.286,-0.183,42015
0.965,-0.025,0.286,-0.183,42019
0.965,-0.025,0.286,-0.183,42023
0.967,-0.027,0.286,-0.183,42027
0.967,-0.027,0.286,-0.122,42031
0.967,-0.026,0.287,-0.122,42035
0.967,-0.026,0.287,-0.061,42039
0.968,-0.026,0.289,-0.122,42043
0.968,-0.026,0.289,-0.122,42047
0.968,-0.026,0.289,-0.366,42051
0.966,-0.028,0.286,-0.427,42055
0.966,-0.028,0.286,-0.366,42059
0.967,-0.025,0.284,-0.366,42063
0.967,-0.025,0.284,-0.366,42067
0.967,-0.025,0.284,-0.305,42071
0.965,-0.024,0.286,-0.244,42075
0.965,-0.024,0.286,-0.366,42079
0.963,-0.019,0.289,-0.488,42083
0.963,-0.019,0.289,-0.488,42087
0.963,-0.019,0.289,-0.427,42091
0.963,-0.013,0.291,-0.427,42095
0.963,-0.013,0.291,-0.427,42099
0.964,-0.01,0.29,-0.549,42103
0.964,-0.01,0.29,-0.549,42107
0.964,-0.01,0.29,-0.427,42111
0.965,-0.005,0.285,-0.549,42115
0.965,-0.005,0.285,-0.671,42119
0.96,-0.004,0.281,-0.61,42123
0.96,-0.004,0.281,-0.549,42127
0.96,-0.004,0.281,-0.549,42131
0.965,-0.003,0.283,-0.366,42135
0.965,-0.003,0.283,-0.244,42139
0.968,-0.001,0.284,-0.366,42143
0.968,-0.001,0.284,-0.305,42147
0.968,-0.001,0.284,-0.305,42151
0.966,0.0,0.283,-0.244,42155
0.966,0.0,0.283,-0.366,42159
0.963,-0.001,0.281,-0.61,42163
0.963,-0.001,0.281,-0.732,42167
0.963,-0.001,0.281,-0.732,42171
0.965,-0.0,0.279,-0.549,42175
0.965,-0.0,0.279,-0.427,42179
0.968,-0.001,0.279,-0.488,42183
0.968,-0.001,0.279,-0.244,42187
0.968,-0.001,0.279,-0.244,42191
0.969,-0.002,0.276,-0.183,42195
0.969,-0.002,0.276,-0.305,42199
0.966,-0.003,0.274,-0.244,42203
0.966,-0.003,0.274,-0.061,42207
0.966,-0.003,0.274,-0.061,42211
0.966,-0.004,0.277,0.061,42215
0.966,-0.004,0.277,0.122,42219
0.967,-0.009,0.281,0.183,42223
0.967,-0.009,0.281,0.305,42227
0.967,-0.009,0.281,0.305,42231
0.966,-0.012,0.289,0.366,42235
0.966,-0.012,0.289,0.427,42239
0.965,-0.019,0.288,0.549,42243
0.965,-0.019,0.288,0.549,42247
0.961,-0.023,0.288,0.366,42251
0.961,-0.023,0.288,0.366,42255
0.961,-0.023,0.288,0.427,42259
0.962,-0.023,0.293,0.549,42263
0.962,-0.023,0.293,0.427,42267
0.956,-0.022,0.296,0.305,42271
0.956,-0.022,0.296,0.305,42275
0.956,-0.022,0.296,-0.122,42279
0.967,-0.023,0.298,-0.183,42283
0.967,-0.023,0.298,0.305,42287
0.965,-0.023,0.297,-0.122,42291
0.965,-0.023,0.297,-0.122,42295
0.965,-0.023,0.297,-0.366,42299
0.962,-0.02,0.291,-0.183,42303
0.962,-0.02,0.291,-0.061,42307
0.962,-0.02,0.282,-0.183,42311
0.962,-0.02,0.282,-0.183,42315
0.962,-0.02,0.282,-0.122,42319
0.967,-0.021,0.283,0.061,42323
0.967,-0.021,0.283,-0.061,42327
0.969,-0.021,0.289,-0.183,42331
0.969,-0.021,0.289,-0.183,42335
0.969,-0.021,0.289,-0.183,42339
0.966,-0.023,0.29,-0.244,42343
0.966,-0.023,0.29,-0.305,42347
0.966,-0.024,0.284,-0.366,42351
0.966,-0.024,0.284,-0.244,42355
0.966,-0.024,0.284,-0.244,42359
0.965,-0.021,0.277,-0.183,42363
0.965,-0.021,0.277,-0.183,42367
0.969,-0.018,0.276,-0.244,42371
0.969,-0.018,0.276,-0.244,42375
0.969,-0.018,0.276,-0.244,42379
0.974,-0.014,0.28,-0.244,42383
0.974,-0.014,0.28,-0.122,42387
0.97,-0.014,0.282,-0.305,42391
0.97,-0.014,0.282,-0.427,42395
0.97,-0.014,0.282,-0.427,42399
0.968,-0.014,0.284,-0.183,42403
0.968,-0.014,0.284,-0.244,42407
0.965,-0.015,0.279,-0.488,42411
0.965,-0.015,0.279,-0.488,42415
0.965,-0.015,0.279,-0.488,42419
0.968,-0.012,0.276,-0.244,42423
0.968,-0.012,0.276,-0.244,42427
0.969,-0.012,0.277,-0.183,42431
0.969,-0.012,0.277,-0.122,42435
0.969,-0.012,0.277,-0.122,42439
0.974,-0.014,0.278,-0.305,42443
0.974,-0.014,0.278,-0.366,42447
0.97,-0.017,0.28,-0.305,42451
0.97,-0.017,0.28,-0.366,42455
0.965,-0.016,0.28,-0.549,42459
0.965,-0.016,0.28,-0.549,42463
0.965,-0.016,0.28,-0.305,42467
0.969,-0.018,0.279,-0.183,42471
0.969,-0.018,0.279,-0.244,42475
0.969,-0.02,0.284,-0.244,42479
0.969,-0.02,0.284,-0.244,42483
0.969,-0.02,0.284,-0.305,42487
0.965,-0.019,0.286,-0.488,42491
0.965,-0.019,0.286,-0.488,42495
0.966,-0.02,0.286,-0.305,42499
0.966,-0.02,0.286,-0.305,42503
0.966,-0.02,0.286,-0.244,42507
0.965,-0.018,0.288,-0.305,42511
0.965,-0.018,0.288,-0.305,42515
0.967,-0.015,0.292,-0.305,42519
0.967,-0.015,0.292,-0.305,42523
0.967,-0.015,0.292,-0.488,42527
0.966,-0.015,0.288,-0.671,42531
0.966,-0.015,0.288,-0.61,42535
0.966,-0.016,0.284,-0.488,42539
0.966,-0.016,0.284,-0.488,42543
0.966,-0.016,0.284,-0.366,42547
0.964,-0.015,0.286,-0.305,42551
0.964,-0.015,0.286,-0.366,42555
0.965,-0.013,0.29,-0.366,42559
0.965,-0.013,0.29,-0.366,42563
0.965,-0.013,0.29,-0.366,42567
0.961,-0.01,0.289,-0.427,42571
0.961,-0.01,0.289,-0.488,42575
0.963,-0.012,0.287,-0.427,42579
0.963,-0.012,0.287,-0.366,42583
0.963,-0.012,0.287,-0.366,42587
0.964,-0.011,0.289,-0.427,42591
0.964,-0.011,0.289,-0.244,42595
0.962,-0.012,0.29,-0.427,42599
0.962,-0.012,0.29,-0.183,42603
0.962,-0.012,0.29,-0.183,42607
0.96,-0.012,0.292,-0.427,42611
0.96,-0.012,0.292,-0.671,42615
0.972,-0.002,0.293,-0.244,42619
0.972,-0.002,0.293,-0.305,42623
0.972,-0.002,0.293,-0.305,42627
0.955,-0.004,0.287,-0.977,42631
0.955,-0.004,0.287,-0.793,42635
0.962,-0.006,0.279,-0.122,42639
0.962,-0.006,0.279,-0.122,42644
0.962,-0.006,0.279,-0.122,42648
0.967,-0.006,0.282,-0.122,42652
0.967,-0.006,0.282,0.183,42656
0.972,-0.006,0.292,0.0,42659
0.972,-0.006,0.292,-0.244,42663
0.962,-0.007,0.288,-0.427,42667
0.962,-0.007,0.288,-0.427,42671
0.962,-0.007,0.288,-0.61,42675
0.962,-0.007,0.28,-0.183,42679
0.962,-0.007,0.28,0.0,42683
0.962,-0.01,0.281,-0.061,42687
0.962,-0.01,0.281,-0.061,42691
0.962,-0.01,0.281,0.0,42695
0.969,-0.012,0.282,-0.061,42699
0.969,-0.012,0.282,-0.061,42703
0.972,-0.011,0.282,0.061,42707
0.972,-0.011,0.282,0.061,42711
0.972,-0.011,0.282,-0.122,42715
0.965,-0.011,0.283,-0.061,42719
0.965,-0.011,0.283,-0.122,42723
0.965,-0.009,0.284,-0.122,42727
0.965,-0.009,0.284,-0.122,42731
0.965,-0.009,0.284,0.0,42735
0.962,-0.008,0.286,0.061,42739
0.962,-0.008,0.286,-0.122,42743
0.965,-0.011,0.286,-0.061,42747
0.965,-0.011,0.286,-0.061,42751
0.965,-0.011,0.286,0.061,42755
0.968,-0.013,0.288,0.122,42759
0.968,-0.013,0.288,0.183,42763
0.964,-0.017,0.289,0.061,42767
0.964,-0.017,0.289,0.061,42771
0.964,-0.017,0.289,0.122,42775
0.963,-0.019,0.288,-0.061,42779
0.963,-0.019,0.288,-0.061,42783
0.965,-0.02,0.289,-0.183,42787
0.965,-0.02,0.289,-0.061,42791
0.965,-0.02,0.289,-0.061,42795
0.968,-0.021,0.29,0.0,42799
0.968,-0.021,0.29,-0.061,42803
0.965,-0.023,0.291,-0.183,42807
0.965,-0.023,0.291,-0.305,42811
0.965,-0.023,0.291,-0.305,42815
0.967,-0.023,0.285,-0.183,42819
0.967,-0.023,0.285,-0.244,42823
0.967,-0.021,0.281,-0.183,42827
0.967,-0.021,0.281,-0.244,42831
0.967,-0.021,0.281,-0.244,42835
0.968,-0.02,0.282,-0.183,42839
0.968,-0.02,0.282,-0.244,42843
0.967,-0.019,0.284,-0.305,42847
0.967,-0.019,0.284,-0.244,42851
0.967,-0.019,0.284,-0.244,42855
0.966,-0.014,0.285,-0.366,42859
0.966,-0.014,0.285,-0.488,42863
0.968,-0.013,0.282,-0.366,42867
0.968,-0.013,0.282,-0.366,42871
0.968,-0.013,0.282,-0.366,42875
0.97,-0.014,0.279,-0.305,42879
0.97,-0.014,0.279,-0.244,42883
0.968,-0.015,0.278,-0.427,42887
0.968,-0.015,0.278,-0.366,42891
0.968,-0.015,0.278,-0.366,42895
0.968,-0.015,0.281,-0.305,42899
0.968,-0.015,0.281,-0.366,42903
0.97,-0.017,0.283,-0.244,42907
0.97,-0.017,0.283,-0.427,42911
0.967,-0.019,0.282,-0.427,42915
0.967,-0.019,0.282,-0.427,42919
0.967,-0.019,0.282,-0.427,42923
0.966,-0.016,0.281,-0.488,42927
0.966,-0.016,0.281,-0.488,42931
0.967,-0.014,0.285,-0.305,42935
0.967,-0.014,0.285,-0.305,42939
0.967,-0.014,0.285,-0.244,42943
0.967,-0.01,0.288,-0.183,42947
0.967,-0.01,0.288,-0.305,42951
0.964,-0.007,0.287,-0.366,42956
0.964,-0.007,0.287,-0.366,42960
0.964,-0.007,0.287,-0.305,42964
0.962,-0.005,0.286,-0.427,42968
0.962,-0.005,0.286,-0.305,42972
0.963,-0.003,0.286,-0.244,42976
0.963,-0.003,0.286,-0.244,42980
0.963,-0.003,0.286,-0.061,42984
0.961,-0.003,0.287,-0.122,42988
0.961,-0.003,0.287,-0.061,42992
0.964,-0.004,0.29,0.122,42996
0.964,-0.004,0.29,0.122,43000
0.964,-0.004,0.29,0.0,43004
0.958,-0.007,0.292,-0.244,43008
0.958,-0.007,0.292,-0.061,43012
0.96,-0.008,0.293,-0.061,43016
0.96,-0.008,0.293,-0.122,43020
0.96,-0.008,0.293,-0.122,43024
0.962,-0.01,0.293,-0.183,43028
0.962,-0.01,0.293,-0.244,43032
0.96,-0.012,0.29,-0.183,43036
0.96,-0.012,0.29,-0.061,43040
0.96,-0.012,0.29,-0.061,43044
0.963,-0.014,0.288,0.0,43048
0.963,-0.014,0.288,0.122,43052
0.965,-0.016,0.291,0.183,43056
0.965,-0.016,0.291,0.061,43060
0.965,-0.016,0.291,0.061,43064
0.963,-0.017,0.29,0.0,43067
0.963,-0.017,0.29,-0.061,43071
0.963,-0.017,0.287,-0.122,43075
0.963,-0.017,0.287,-0.061,43080
0.963,-0.017,0.287,-0.061,43084
0.966,-0.016,0.283,0.061,43088
0.966,-0.016,0.283,-0.122,43092
0.97,-0.017,0.283,0.0,43095
0.97,-0.017,0.283,0.122,43099
0.97,-0.017,0.283,0.122,43103
0.969,-0.019,0.284,-0.061,43108
0.969,-0.019,0.284,-0.061,43112
0.968,-0.017,0.28,-0.061,43116
0.968,-0.017,0.28,-0.183,43120
0.968,-0.017,0.28,-0.183,43124
0.969,-0.019,0.277,-0.122,43128
0.969,-0.019,0.277,-0.183,43132
0.966,-0.021,0.277,-0.305,43136
0.966,-0.021,0.277,-0.183,43140
0.972,-0.019,0.277,-0.061,43144
0.972,-0.019,0.277,-0.061,43148
0.972,-0.019,0.277,-0.061,43152
0.976,-0.021,0.283,-0.122,43156
0.976,-0.021,0.283,-0.305,43160
0.967,-0.019,0.284,-0.427,43164
0.967,-0.019,0.284,-0.427,43168
0.967,-0.019,0.284,-0.427,43172
0.963,-0.018,0.277,-0.427,43176
0.963,-0.018,0.277,-0.366,43180
0.97,-0.019,0.276,-0.183,43184
0.97,-0.019,0.276,-0.183,43188
0.97,-0.019,0.276,-0.061,43192
0.971,-0.02,0.282,-0.305,43196
0.971,-0.02,0.282,-0.305,43200
0.97,-0.018,0.288,-0.427,43204
0.97,-0.018,0.288,-0.427,43208
0.97,-0.018,0.288,-0.488,43212
0.963,-0.016,0.282,-0.427,43216
0.963,-0.016,0.282,-0.549,43220
0.966,-0.016,0.28,-0.305,43224
0.966,-0.016,0.28,-0.122,43228
0.966,-0.016,0.28,-0.122,43232
0.968,-0.017,0.284,-0.244,43236
0.968,-0.017,0.284,-0.427,43240
0.966,-0.015,0.287,-0.305,43244
0.966,-0.015,0.287,-0.427,43248
0.966,-0.015,0.287,-0.427,43252
0.964,-0.017,0.288,-0.305,43256
0.964,-0.017,0.288,-0.244,43260
0.962,-0.016,0.289,-0.244,43264
0.962,-0.016,0.289,-0.183,43268
0.962,-0.016,0.289,-0.183,43272
0.965,-0.015,0.292,-0.366,43276
0.965,-0.015,0.292,-0.488,43280
0.963,-0.011,0.29,-0.61,43284
0.963,-0.011,0.29,-0.366,43288
0.963,-0.011,0.29,-0.366,43292
0.957,-0.009,0.284,-0.305,43296
0.957,-0.009,0.284,-0.305,43300
0.965,-0.008,0.287,-0.061,43304
0.965,-0.008,0.287,0.0,43308
0.965,-0.008,0.287,0.0,43312
0.966,-0.012,0.294,-0.122,43316
0.966,-0.012,0.294,-0.366,43320
0.964,-0.011,0.293,-0.549,43324
0.964,-0.011,0.293,-0.427,43328
0.96,-0.01,0.287,-0.305,43332
0.96,-0.01,0.287,-0.305,43336
0.96,-0.01,0.287,-0.305,43340
0.961,-0.01,0.284,-0.061,43344
0.961,-0.01,0.284,0.0,43348
0.968,-0.012,0.287,-0.061,43352
0.968,-0.012,0.287,-0.061,43356
0.968,-0.012,0.287,-0.244,43360
0.967,-0.014,0.285,-0.488,43364
0.967,-0.014,0.285,-0.427,43368
0.965,-0.015,0.281,-0.305,43372
0.965,-0.015,0.281,-0.305,43376
0.965,-0.015,0.281,-0.122,43380
0.966,-0.014,0.28,-0.244,43384
0.966,-0.014,0.28,-0.244,43388
0.969,-0.014,0.281,-0.244,43392
0.969,-0.014,0.281,-0.244,43396
0.969,-0.014,0.281,-0.183,43400
0.967,-0.016,0.281,-0.305,43404
0.967,-0.016,0.281,-0.244,43408
0.968,-0.017,0.281,-0.183,43412
0.968,-0.017,0.281,-0.183,43416
0.968,-0.017,0.281,-0.244,43420
0.968,-0.016,0.281,0.0,43424
0.968,-0.016,0.281,-0.122,43428
0.969,-0.015,0.285,-0.366,43432
0.969,-0.015,0.285,-0.366,43436
0.969,-0.015,0.285,-0.183,43440
0.968,-0.015,0.282,-0.244,43444
0.968,-0.015,0.282,-0.488,43448
0.965,-0.012,0.281,-0.366,43452
0.965,-0.012,0.281,-0.244,43456
0.965,-0.012,0.281,-0.244,43460
0.967,-0.011,0.283,-0.183,43464
0.967,-0.011,0.283,-0.183,43468
0.967,-0.013,0.285,-0.244,43472
0.967,-0.013,0.285,-0.366,43476
0.967,-0.013,0.285,-0.366,43480
0.966,-0.012,0.287,-0.183,43484
0.966,-0.012,0.287,-0.366,43488
0.964,-0.011,0.285,-0.244,43492
0.964,-0.011,0.285,-0.244,43496
0.964,-0.011,0.285,-0.244,43500
0.963,-0.012,0.287,-0.305,43504
0.963,-0.012,0.287,-0.305,43508
0.964,-0.013,0.285,-0.244,43512
0.964,-0.013,0.285,-0.122,43516
0.964,-0.013,0.285,-0.122,43520
0.965,-0.014,0.288,-0.122,43524
0.965,-0.014,0.288,-0.122,43528
0.964,-0.013,0.29,-0.183,43532
0.964,-0.013,0.29,-0.244,43536
0.962,-0.016,0.291,-0.183,43540
0.962,-0.016,0.291,-0.183,43544
0.962,-0.016,0.291,-0.244,43548
0.964,-0.016,0.29,-0.305,43552
0.964,-0.016,0.29,-0.366,43556
0.963,-0.015,0.289,-0.122,43560
0.963,-0.015,0.289,-0.122,43564
0.963,-0.015,0.289,-0.183,43568
0.964,-0.013,0.289,-0.183,43572
0.964,-0.013,0.289,-0.183,43576
0.964,-0.013,0.29,-0.305,43580
0.964,-0.013,0.29,-0.305,43584
0.964,-0.013,0.29,-0.244,43588
0.963,-0.011,0.288,-0.061,43592
0.963,-0.011,0.288,-0.183,43596
0.965,-0.009,0.287,-0.183,43600
0.965,-0.009,0.287,-0.183,43604
0.965,-0.009,0.287,-0.122,43608
0.965,-0.008,0.284,-0.122,43612
0.965,-0.008,0.284,-0.305,43616
0.966,-0.009,0.286,-0.244,43620
0.966,-0.009,0.286,-0.244,43624
0.966,-0.009,0.286,-0.244,43628
0.966,-0.007,0.285,-0.183,43632
0.966,-0.007,0.285,-0.183,43636
0.963,-0.009,0.285,-0.183,43640
0.963,-0.009,0.285,-0.061,43644
0.963,-0.009,0.285,-0.061,43648
0.966,-0.01,0.284,-0.061,43652
0.966,-0.01,0.284,-0.183,43656
0.967,-0.01,0.282,-0.061,43660
0.967,-0.01,0.282,-0.061,43664
0.967,-0.01,0.282,-0.061,43668
0.969,-0.01,0.28,-0.061,43672
0.969,-0.01,0.28,-0.061,43676
0.968,-0.015,0.282,0.0,43680
0.968,-0.015,0.282,-0.061,43684
0.968,-0.015,0.282,-0.061,43688
0.967,-0.016,0.282,-0.061,43692
0.967,-0.016,0.282,0.0,43696
0.969,-0.016,0.281,0.0,43700
0.969,-0.016,0.281,-0.061,43704
0.969,-0.016,0.281,-0.061,43708
0.968,-0.017,0.283,0.0,43712
0.968,-0.017,0.283,-0.122,43716
0.965,-0.018,0.282,-0.122,43720
0.965,-0.018,0.282,-0.122,43724
0.965,-0.018,0.282,-0.122,43728
0.966,-0.016,0.281,-0.183,43732
0.966,-0.016,0.281,-0.122,43736
0.965,-0.016,0.285,-0.122,43740
0.965,-0.016,0.285,-0.122,43744
0.965,-0.016,0.285,-0.122,43748
0.967,-0.018,0.288,-0.183,43752
0.967,-0.018,0.288,-0.183,43756
0.963,-0.017,0.286,-0.305,43760
0.963,-0.017,0.286,-0.122,43764
0.965,-0.017,0.286,-0.183,43768
0.965,-0.017,0.286,-0.183,43772
0.965,-0.017,0.286,-0.183,43776
0.965,-0.018,0.287,-0.061,43780
0.965,-0.018,0.287,-0.061,43784
0.964,-0.017,0.288,-0.244,43788
0.964,-0.017,0.288,-0.244,43792
0.964,-0.017,0.288,-0.244,43796
0.965,-0.016,0.287,-0.183,43800
0.965,-0.016,0.287,-0.183,43804
0.965,-0.015,0.288,-0.122,43808
0.965,-0.015,0.288,-0.122,43812
0.965,-0.015,0.288,0.0,43816
0.969,-0.015,0.29,-0.061,43820
0.969,-0.015,0.29,-0.183,43824
0.964,-0.016,0.288,-0.366,43828
0.964,-0.016,0.288,-0.366,43832
0.964,-0.016,0.288,-0.305,43836
0.966,-0.014,0.284,-0.305,43840
0.966,-0.014,0.284,-0.305,43844
0.963,-0.013,0.284,-0.244,43848
0.963,-0.013,0.284,-0.244,43852
0.963,-0.013,0.284,-0.183,43856
0.965,-0.013,0.285,-0.305,43860
0.965,-0.013,0.285,-0.366,43864
0.968,-0.011,0.283,-0.183,43868
0.968,-0.011,0.283,-0.061,43872
0.968,-0.011,0.283,-0.061,43876
0.965,-0.011,0.282,-0.244,43880
0.965,-0.011,0.282,-0.183,43884
0.965,-0.01,0.283,-0.244,43888
0.965,-0.01,0.283,-0.183,43892
0.965,-0.01,0.283,-0.183,43896
0.966,-0.011,0.28,-0.305,43900
0.966,-0.011,0.28,-0.305,43904
0.969,-0.014,0.277,-0.244,43908
0.969,-0.014,0.277,-0.122,43912
0.969,-0.014,0.277,-0.122,43916
0.967,-0.013,0.279,-0.183,43920
0.967,-0.013,0.279,-0.122,43924
0.966,-0.014,0.281,-0.122,43928
0.966,-0.014,0.281,-0.305,43932
0.966,-0.014,0.281,-0.305,43936
0.967,-0.014,0.281,-0.305,43941
0.967,-0.014,0.281,-0.244,43945
0.966,-0.012,0.284,-0.244,43949
0.966,-0.012,0.284,-0.122,43953
0.966,-0.012,0.284,-0.122,43957
0.966,-0.012,0.285,-0.305,43961
0.966,-0.012,0.285,-0.122,43965
0.966,-0.013,0.285,-0.122,43969
0.966,-0.013,0.285,-0.244,43973
0.965,-0.016,0.287,-0.305,43977
0.965,-0.016,0.287,-0.305,43981
0.965,-0.016,0.287,-0.244,43985
0.965,-0.015,0.286,-0.183,43989
0.965,-0.015,0.286,-0.183,43993
0.966,-0.017,0.288,-0.183,43997
0.966,-0.017,0.288,-0.183,44001
0.966,-0.017,0.288,-0.244,44005
0.966,-0.018,0.289,-0.305,44009
0.966,-0.018,0.289,-0.366,44013
0.963,-0.018,0.289,-0.244,44017
0.963,-0.018,0.289,-0.244,44021
0.963,-0.018,0.289,-0.122,44025
0.964,-0.018,0.287,-0.244,44029
0.964,-0.018,0.287,-0.244,44033
0.967,-0.021,0.286,-0.061,44037
0.967,-0.021,0.286,-0.061,44041
0.967,-0.021,0.286,-0.305,44045
0.966,-0.019,0.288,-0.366,44049
0.966,-0.019,0.288,-0.366,44053
0.966,-0.017,0.285,-0.488,44057
0.966,-0.017,0.285,-0.427,44061
0.966,-0.017,0.285,-0.427,44065
0.964,-0.016,0.284,-0.366,44069
0.964,-0.016,0.284,-0.183,44073
0.963,-0.011,0.284,-0.305,44077
0.963,-0.011,0.284,-0.305,44081
0.963,-0.011,0.284,-0.305,44085
0.965,-0.014,0.286,-0.244,44089
0.965,-0.014,0.286,-0.427,44093
0.966,-0.012,0.286,-0.305,44097
0.966,-0.012,0.286,-0.305,44101
0.966,-0.012,0.286,-0.305,44105
0.965,-0.009,0.284,-0.427,44109
0.965,-0.009,0.284,-0.427,44113
0.965,-0.01,0.283,-0.305,44117
0.965,-0.01,0.283,-0.183,44121
0.965,-0.01,0.283,-0.183,44125
0.966,-0.008,0.284,-0.183,44129
0.966,-0.008,0.284,-0.305,44133
0.967,-0.009,0.285,-0.122,44137
0.967,-0.009,0.285,-0.122,44141
0.967,-0.009,0.285,-0.122,44145
0.965,-0.009,0.283,-0.305,44149
0.965,-0.009,0.283,-0.244,44153
0.964,-0.013,0.282,-0.122,44157
0.964,-0.013,0.282,-0.305,44161
0.966,-0.013,0.283,-0.183,44165
0.966,-0.013,0.283,-0.183,44169
0.966,-0.013,0.283,-0.183,44173
0.967,-0.012,0.281,-0.122,44177
0.967,-0.012,0.281,-0.122,44181
0.968,-0.012,0.283,-0.122,44185
0.968,-0.012,0.283,-0.122,44189
0.968,-0.012,0.283,-0.122,44193
0.965,-0.013,0.284,-0.183,44197
0.965,-0.013,0.284,-0.183,44201
0.965,-0.013,0.285,-0.183,44205
0.965,-0.013,0.285,-0.183,44209
0.965,-0.013,0.285,-0.183,44213
0.968,-0.012,0.287,-0.061,44217
0.968,-0.012,0.287,-0.305,44221
0.965,-0.014,0.287,-0.244,44225
0.965,-0.014,0.287,-0.244,44229
0.965,-0.014,0.287,-0.122,44233
0.965,-0.015,0.286,-0.122,44237
0.965,-0.015,0.286,0.0,44241
0.961,-0.018,0.285,-0.183,44245
0.961,-0.018,0.285,-0.183,44249
0.961,-0.018,0.285,-0.305,44253
0.965,-0.017,0.287,-0.366,44257
0.965,-0.017,0.287,-0.305,44261
0.967,-0.019,0.288,-0.183,44265
0.967,-0.019,0.288,-0.244,44269
0.967,-0.019,0.288,-0.244,44273
0.966,-0.018,0.289,-0.244,44277
0.966,-0.018,0.289,-0.183,44281
0.964,-0.017,0.29,-0.244,44285
0.964,-0.017,0.29,-0.305,44289
