Acc_X,Acc_Y,Acc_Z,Rot_Z,Millis
0.0,0.35,0.93,-0.12,16478.0
0.01,0.35,0.93,-0.24,16499.0
0.0,0.35,0.93,-0.24,16520.0
0.0,0.35,0.93,-0.31,16540.0
-0.0,0.36,0.93,-0.24,16561.0
-0.0,0.36,0.94,0.0,16581.0
-0.0,0.36,0.93,-0.18,16600.0
-0.0,0.35,0.93,-0.18,16620.0
0.0,0.35,0.93,-0.06,16639.0
-0.0,0.36,0.93,-0.18,16657.0
0.0,0.35,0.93,-0.06,16675.0
0.0,0.35,0.93,-0.24,16698.0
0.0,0.35,0.93,-0.24,16718.0
0.0,0.35,0.93,-0.37,16735.0
0.01,0.36,0.93,-0.24,16754.0
0.0,0.35,0.93,-0.18,16773.0
0.01,0.35,0.92,-0.24,16793.0
0.0,0.36,0.94,-0.24,16812.0
-0.0,0.35,0.93,-0.24,16831.0
-0.0,0.36,0.93,-0.12,16852.0
-0.0,0.35,0.93,0.0,16871.0
-0.0,0.35,0.93,-0.06,16889.0
0.0,0.35,0.93,-0.12,16909.0
0.0,0.35,0.94,-0.06,16928.0
0.0,0.36,0.93,-0.18,16946.0
0.0,0.35,0.93,-0.06,16965.0
0.0,0.35,0.93,-0.12,16983.0
0.0,0.35,0.93,-0.24,17004.0
0.01,0.35,0.93,-0.18,17022.0
0.0,0.35,0.94,-0.31,17044.0
0.0,0.35,0.93,-0.43,17065.0
0.0,0.35,0.93,-0.18,17083.0
0.0,0.36,0.93,-0.31,17101.0
-0.0,0.35,0.93,-0.18,17123.0
-0.0,0.35,0.93,-0.18,17142.0
0.0,0.35,0.93,-0.31,17165.0
0.0,0.35,0.93,-0.18,17182.0
0.0,0.35,0.93,-0.18,17201.0
0.0,0.35,0.93,-0.06,17222.0
0.0,0.35,0.93,-0.43,17242.0
-0.0,0.35,0.93,-0.24,17262.0
0.0,0.35,0.93,-0.24,17280.0
0.0,0.35,0.93,-0.06,17299.0
-0.0,0.35,0.93,-0.31,17321.0
0.0,0.35,0.93,-0.06,17341.0
-0.0,0.36,0.93,-0.31,17360.0
0.0,0.35,0.93,-0.18,17377.0
-0.0,0.36,0.93,-0.24,17398.0
0.0,0.35,0.93,-0.43,17417.0
0.0,0.35,0.93,-0.24,17436.0
0.0,0.35,0.93,-0.18,17454.0
0.0,0.35,0.93,-0.31,17474.0
0.0,0.35,0.93,-0.37,17492.0
0.0,0.35,0.93,-0.43,17511.0
0.0,0.35,0.93,-0.06,17531.0
-0.0,0.36,0.93,-0.31,17551.0
-0.0,0.35,0.94,-0.18,17571.0
0.0,0.35,0.93,-0.24,17589.0
0.0,0.36,0.93,-0.06,17610.0
-0.0,0.35,0.93,-0.24,17629.0
0.0,0.35,0.93,-0.18,17651.0
0.0,0.35,0.93,-0.18,17670.0
0.0,0.35,0.93,-0.24,17689.0
0.0,0.35,0.93,-0.06,17707.0
0.0,0.35,0.93,-0.06,17730.0
0.0,0.35,0.93,-0.31,17749.0
0.0,0.35,0.93,-0.24,17769.0
-0.0,0.36,0.93,-0.18,17789.0
0.0,0.35,0.93,-0.37,17809.0
-0.0,0.36,0.93,-0.18,17826.0
0.0,0.36,0.93,-0.24,17845.0
-0.0,0.35,0.93,-0.24,17866.0
0.0,0.35,0.93,-0.12,17885.0
0.0,0.35,0.93,-0.06,17904.0
0.0,0.35,0.93,-0.24,17926.0
0.0,0.35,0.93,-0.24,17944.0
0.0,0.35,0.93,-0.24,17967.0
0.01,0.35,0.93,-0.24,17987.0
0.0,0.35,0.93,-0.31,18004.0
-0.0,0.35,0.93,-0.12,18024.0
0.0,0.35,0.93,-0.24,18043.0
0.0,0.36,0.93,0.0,18060.0
0.0,0.36,0.93,-0.06,18078.0
-0.0,0.35,0.93,-0.12,18098.0
0.0,0.35,0.93,-0.37,18116.0
0.0,0.35,0.93,-0.12,18141.0
0.0,0.35,0.93,-0.06,18163.0
-0.0,0.35,0.93,-0.24,18184.0
0.0,0.35,0.93,-0.12,18204.0
-0.0,0.35,0.93,-0.18,18222.0
-0.0,0.35,0.93,-0.18,18241.0
0.0,0.35,0.93,-0.24,18259.0
0.0,0.35,0.93,0.0,18278.0
-0.0,0.35,0.93,-0.18,18295.0
0.0,0.35,0.93,0.0,18316.0
-0.0,0.35,0.93,-0.12,18336.0
0.0,0.35,0.93,-0.06,18357.0
0.0,0.35,0.93,-0.24,18376.0
0.0,0.35,0.93,-0.12,18396.0
0.0,0.35,0.93,-0.18,18413.0
-0.0,0.35,0.93,-0.24,18433.0
0.0,0.35,0.93,-0.24,18452.0
0.0,0.35,0.93,-0.43,18470.0
0.0,0.36,0.93,-0.31,18492.0
-0.0,0.35,0.93,-0.37,18510.0
0.0,0.36,0.93,-0.24,18528.0
-0.0,0.35,0.93,-0.18,18549.0
-0.0,0.35,0.93,-0.06,18567.0
0.0,0.36,0.94,-0.49,18588.0
0.0,0.35,0.93,-0.12,18607.0
-0.0,0.35,0.93,-0.18,18627.0
0.0,0.35,0.94,-0.12,18646.0
0.0,0.35,0.93,-0.12,18667.0
-0.0,0.35,0.93,-0.43,18686.0
0.0,0.36,0.93,-0.18,18704.0
0.0,0.35,0.93,-0.31,18722.0
0.0,0.35,0.93,-0.24,18739.0
0.0,0.35,0.93,-0.24,18762.0
-0.0,0.35,0.93,-0.43,18780.0
-0.0,0.35,0.93,-0.24,18801.0
-0.0,0.35,0.93,-0.24,18821.0
0.0,0.36,0.93,-0.31,18839.0
0.0,0.35,0.93,-0.24,18859.0
0.0,0.35,0.93,-0.37,18879.0
0.0,0.35,0.93,-0.31,18901.0
0.0,0.35,0.93,-0.31,18920.0
-0.0,0.35,0.93,-0.18,18941.0
0.0,0.35,0.93,-0.12,18963.0
0.0,0.35,0.93,-0.18,18982.0
0.0,0.35,0.93,-0.12,19000.0
-0.0,0.35,0.93,-0.18,19020.0
0.0,0.35,0.93,-0.18,19039.0
0.0,0.36,0.93,-0.31,19059.0
0.0,0.35,0.93,-0.18,19078.0
0.0,0.35,0.93,-0.12,19096.0
0.0,0.35,0.93,-0.12,19114.0
-0.0,0.35,0.93,-0.18,19132.0
-0.0,0.35,0.93,-0.24,19152.0
-0.0,0.35,0.93,-0.31,19173.0
-0.0,0.35,0.93,-0.31,19193.0
0.01,0.35,0.94,-0.18,19211.0
-0.0,0.35,0.93,-0.24,19234.0
0.0,0.35,0.93,-0.12,19254.0
-0.0,0.36,0.93,-0.31,19273.0
-0.0,0.36,0.93,-0.24,19294.0
-0.0,0.35,0.93,-0.18,19313.0
0.0,0.35,0.93,-0.31,19333.0
0.0,0.35,0.93,-0.31,19350.0
0.0,0.35,0.93,-0.06,19373.0
-0.0,0.35,0.93,-0.12,19392.0
0.0,0.36,0.93,-0.31,19412.0
0.0,0.35,0.93,-0.31,19430.0
0.0,0.36,0.93,-0.31,19448.0
-0.0,0.35,0.93,-0.37,19470.0
0.0,0.36,0.93,-0.24,19490.0
0.0,0.36,0.93,-0.31,19508.0
0.0,0.36,0.94,-0.24,19527.0
0.0,0.35,0.93,-0.37,19544.0
-0.0,0.35,0.94,-0.37,19563.0
0.0,0.35,0.93,-0.24,19584.0
0.0,0.36,0.93,-0.18,19604.0
0.0,0.35,0.93,-0.12,19624.0
0.0,0.35,0.93,-0.18,19642.0
0.0,0.35,0.93,-0.12,19660.0
0.0,0.35,0.93,-0.12,19679.0
0.0,0.35,0.93,-0.18,19697.0
0.0,0.35,0.93,-0.18,19716.0
0.0,0.36,0.93,-0.43,19740.0
0.01,0.35,0.93,-0.31,19758.0
0.0,0.35,0.93,-0.18,19780.0
-0.0,0.35,0.93,-0.18,19798.0
-0.0,0.35,0.93,-0.18,19818.0
-0.0,0.35,0.93,-0.31,19838.0
-0.0,0.35,0.93,-0.18,19858.0
0.0,0.35,0.93,-0.18,19878.0
0.0,0.35,0.93,-0.06,19896.0
0.0,0.35,0.94,-0.24,19915.0
-0.0,0.36,0.93,-0.12,19936.0
0.0,0.35,0.93,-0.31,19954.0
-0.0,0.35,0.94,-0.12,19972.0
0.0,0.35,0.94,-0.12,19992.0
-0.0,0.35,0.93,-0.31,20010.0
0.0,0.35,0.93,-0.18,20028.0
-0.0,0.35,0.93,-0.18,20046.0
0.0,0.35,0.93,-0.12,20064.0
0.0,0.35,0.93,-0.18,20086.0
0.0,0.35,0.93,-0.12,20104.0
0.0,0.35,0.93,-0.31,20125.0
0.0,0.35,0.93,-0.31,20143.0
0.0,0.35,0.93,-0.24,20161.0
0.0,0.35,0.94,-0.12,20181.0
0.01,0.35,0.93,-0.06,20200.0
0.0,0.35,0.93,-0.43,20219.0
0.0,0.35,0.93,-0.12,20240.0
-0.0,0.35,0.93,-0.24,20260.0
0.0,0.35,0.93,-0.12,20280.0
0.0,0.36,0.94,-0.31,20299.0
-0.0,0.35,0.93,-0.43,20317.0
0.0,0.35,0.93,-0.06,20337.0
0.0,0.35,0.93,-0.37,20355.0
0.0,0.35,0.94,-0.24,20374.0
0.0,0.35,0.93,-0.06,20394.0
0.0,0.35,0.93,-0.12,20412.0
0.0,0.35,0.93,-0.31,20433.0
0.0,0.35,0.93,-0.31,20454.0
0.0,0.35,0.93,0.0,20473.0
-0.0,0.36,0.93,-0.12,20496.0
0.0,0.35,0.93,-0.12,20515.0
0.0,0.35,0.93,-0.24,20533.0
0.0,0.35,0.93,-0.12,20551.0
0.0,0.35,0.93,-0.31,20571.0
0.0,0.36,0.93,-0.18,20592.0
0.0,0.35,0.93,-0.18,20612.0
0.0,0.36,0.93,-0.18,20630.0
-0.0,0.35,0.93,-0.12,20655.0
0.0,0.35,0.93,-0.06,20675.0
-0.0,0.35,0.93,-0.37,20695.0
0.0,0.35,0.93,-0.18,20714.0
-0.0,0.35,0.93,-0.18,20735.0
0.0,0.35,0.93,-0.24,20756.0
0.0,0.35,0.93,0.0,20774.0
0.01,0.35,0.93,-0.12,20790.0
0.0,0.35,0.93,-0.24,20810.0
0.0,0.35,0.93,-0.12,20831.0
0.0,0.35,0.93,-0.24,20848.0
0.0,0.35,0.93,-0.24,20867.0
0.0,0.35,0.93,-0.18,20887.0
0.0,0.35,0.93,-0.24,20908.0
0.0,0.35,0.93,-0.12,20927.0
-0.0,0.35,0.93,-0.31,20950.0
0.0,0.35,0.93,-0.06,20971.0
-0.0,0.36,0.94,-0.12,20990.0
-0.0,0.35,0.93,-0.06,21012.0
0.0,0.35,0.93,-0.12,21030.0
-0.0,0.35,0.93,-0.12,21049.0
0.0,0.35,0.93,-0.06,21071.0
0.0,0.35,0.93,-0.24,21089.0
0.0,0.35,0.93,-0.06,21110.0
-0.0,0.35,0.93,-0.37,21129.0
0.0,0.36,0.93,-0.24,21148.0
0.01,0.35,0.93,-0.24,21167.0
0.0,0.35,0.93,-0.12,21187.0
-0.0,0.35,0.93,-0.24,21208.0
0.0,0.35,0.93,-0.31,21229.0
-0.0,0.35,0.93,-0.37,21247.0
0.0,0.35,0.93,-0.24,21268.0
0.0,0.35,0.93,-0.18,21288.0
0.0,0.35,0.93,-0.24,21307.0
0.0,0.35,0.93,-0.06,21327.0
-0.0,0.35,0.93,-0.06,21347.0
0.0,0.35,0.93,-0.43,21368.0
0.0,0.35,0.93,-0.12,21389.0
-0.0,0.35,0.93,-0.18,21410.0
0.0,0.35,0.93,-0.12,21430.0
0.0,0.35,0.93,-0.24,21451.0
0.0,0.35,0.93,-0.12,21469.0
0.0,0.36,0.93,-0.18,21490.0
0.0,0.35,0.93,-0.37,21510.0
-0.0,0.35,0.93,-0.31,21531.0
0.0,0.35,0.93,-0.18,21549.0
0.0,0.35,0.93,-0.18,21568.0
-0.0,0.35,0.93,-0.31,21589.0
0.0,0.35,0.93,-0.24,21607.0
0.0,0.35,0.93,-0.12,21625.0
0.0,0.35,0.93,0.06,21645.0
0.0,0.35,0.93,-0.18,21665.0
0.0,0.35,0.93,-0.24,21684.0
0.0,0.36,0.93,-0.31,21706.0
-0.0,0.35,0.93,-0.12,21727.0
0.0,0.35,0.93,-0.31,21748.0
-0.0,0.35,0.93,-0.12,21770.0
-0.0,0.35,0.93,-0.12,21789.0
0.01,0.35,0.93,-0.43,21811.0
0.0,0.35,0.93,-0.12,21830.0
0.0,0.36,0.93,-0.24,21850.0
0.01,0.35,0.93,-0.18,21869.0
-0.0,0.36,0.93,-0.37,21887.0
0.0,0.35,0.93,-0.31,21905.0
-0.0,0.35,0.93,0.24,21923.0
0.0,0.35,0.93,-0.12,21943.0
0.0,0.35,0.93,-0.18,21965.0
0.0,0.35,0.94,-0.12,21986.0
-0.0,0.35,0.93,-0.12,22007.0
-0.0,0.35,0.93,-0.06,22027.0
0.0,0.36,0.93,-0.12,22048.0
0.0,0.35,0.93,-0.12,22068.0
0.0,0.35,0.93,-0.12,22087.0
0.0,0.35,0.93,-0.12,22105.0
0.0,0.35,0.93,-0.06,22125.0
0.0,0.35,0.93,-0.31,22145.0
-0.0,0.35,0.93,-0.24,22166.0
0.0,0.35,0.93,-0.06,22188.0
-0.0,0.35,0.93,-0.18,22206.0
0.0,0.35,0.93,-0.18,22227.0
0.0,0.35,0.93,-0.18,22248.0
-0.0,0.35,0.93,-0.12,22267.0
0.0,0.35,0.93,-0.24,22290.0
0.0,0.35,0.93,-0.31,22308.0
0.0,0.35,0.93,-0.18,22329.0
0.0,0.35,0.93,-0.24,22349.0
0.0,0.35,0.93,-0.24,22368.0
0.0,0.35,0.93,-0.24,22387.0
0.0,0.36,0.93,-0.12,22409.0
-0.0,0.35,0.93,-0.18,22428.0
0.0,0.35,0.93,-0.24,22447.0
0.0,0.35,0.93,-0.31,22464.0
0.0,0.35,0.93,-0.06,22483.0
0.0,0.35,0.93,-0.24,22502.0
0.0,0.35,0.93,-0.18,22520.0
0.0,0.35,0.93,-0.12,22541.0
0.0,0.35,0.93,-0.31,22561.0
0.0,0.35,0.93,-0.37,22579.0
0.0,0.35,0.93,-0.12,22599.0
0.0,0.35,0.93,-0.12,22618.0
0.0,0.35,0.93,-0.24,22635.0
0.0,0.35,0.93,-0.24,22656.0
-0.0,0.35,0.93,-0.43,22674.0
-0.0,0.35,0.93,-0.12,22693.0
-0.0,0.35,0.93,-0.18,22715.0
0.0,0.35,0.93,-0.18,22735.0
-0.0,0.35,0.93,0.18,22754.0
0.0,0.35,0.94,-0.31,22772.0
0.0,0.35,0.93,-0.18,22791.0
0.0,0.35,0.93,-0.24,22811.0
-0.0,0.35,0.93,-0.24,22831.0
0.0,0.35,0.93,-0.06,22851.0
-0.0,0.35,0.93,-0.18,22870.0
0.0,0.35,0.93,-0.31,22890.0
0.0,0.35,0.94,-0.18,22911.0
0.0,0.35,0.93,-0.18,22929.0
0.0,0.36,0.93,-0.06,22947.0
0.0,0.35,0.93,-0.31,22967.0
0.0,0.35,0.93,-0.18,22985.0
0.0,0.35,0.93,-0.24,23003.0
0.0,0.35,0.93,-0.18,23023.0
0.0,0.35,0.93,-0.18,23043.0
-0.0,0.35,0.93,-0.12,23062.0
0.0,0.36,0.93,-0.18,23080.0
-0.0,0.35,0.93,-0.18,23100.0
-0.0,0.35,0.93,-0.06,23121.0
0.0,0.35,0.93,-0.12,23139.0
0.0,0.36,0.93,-0.18,23160.0
0.0,0.35,0.93,-0.24,23178.0
0.0,0.35,0.93,-0.24,23197.0
0.0,0.35,0.93,-0.24,23217.0
0.0,0.35,0.93,-0.24,23237.0
0.0,0.35,0.93,-0.18,23259.0
0.0,0.35,0.93,0.0,23278.0
-0.0,0.35,0.93,-0.12,23299.0
0.0,0.35,0.93,-0.12,23320.0
0.0,0.35,0.93,-0.18,23338.0
-0.0,0.35,0.93,-0.37,23358.0
0.0,0.35,0.93,-0.24,23378.0
0.0,0.35,0.93,0.0,23397.0
0.0,0.35,0.93,-0.18,23417.0
0.0,0.35,0.93,-0.06,23435.0
0.0,0.35,0.93,-0.06,23455.0
-0.0,0.35,0.93,-0.18,23473.0
-0.0,0.35,0.93,-0.18,23492.0
0.0,0.35,0.94,-0.24,23510.0
0.0,0.35,0.93,-0.06,23530.0
0.0,0.36,0.94,-0.31,23547.0
0.0,0.35,0.93,-0.31,23565.0
0.01,0.35,0.94,-0.37,23586.0
0.0,0.35,0.93,-0.18,23605.0
0.0,0.35,0.93,-0.18,23624.0
0.0,0.35,0.94,-0.31,23642.0
0.0,0.35,0.93,-0.12,23662.0
0.0,0.35,0.93,-0.31,23680.0
0.0,0.35,0.93,-0.06,23698.0
0.0,0.35,0.93,-0.49,23715.0
-0.0,0.35,0.93,-0.12,23734.0
0.0,0.35,0.93,-0.12,23755.0
0.0,0.35,0.93,-0.37,23775.0
0.0,0.35,0.93,-0.43,23795.0
0.0,0.35,0.93,-0.24,23815.0
0.0,0.35,0.93,-0.31,23838.0
0.0,0.36,0.93,-0.18,23856.0
0.0,0.35,0.93,-0.31,23874.0
0.0,0.35,0.93,-0.18,23894.0
0.0,0.35,0.93,-0.18,23912.0
0.0,0.35,0.93,-0.18,23930.0
0.0,0.35,0.93,-0.24,23952.0
0.0,0.35,0.93,0.06,23971.0
-0.0,0.35,0.93,-0.12,23991.0
0.0,0.35,0.93,-0.18,24011.0
0.0,0.36,0.94,-0.31,24034.0
0.0,0.35,0.93,-0.24,24054.0
-0.0,0.36,0.94,-0.31,24076.0
0.0,0.35,0.93,-0.37,24095.0
0.0,0.35,0.92,-0.24,24113.0
0.0,0.35,0.93,-0.06,24134.0
0.01,0.35,0.94,-0.24,24151.0
0.0,0.35,0.93,-0.06,24171.0
0.0,0.35,0.93,-0.12,24192.0
0.0,0.35,0.93,-0.31,24214.0
0.0,0.36,0.93,-0.24,24233.0
0.0,0.35,0.93,-0.18,24253.0
0.0,0.35,0.93,-0.49,24272.0
0.0,0.35,0.93,-0.43,24295.0
0.01,0.36,0.93,-0.31,24315.0
0.0,0.35,0.93,-0.18,24333.0
-0.0,0.35,0.93,-0.24,24353.0
-0.0,0.35,0.93,0.0,24372.0
0.0,0.35,0.93,-0.18,24394.0
0.0,0.35,0.93,0.0,24412.0
0.0,0.35,0.93,-0.18,24431.0
0.0,0.35,0.93,-0.18,24453.0
0.0,0.35,0.94,-0.31,24472.0
0.0,0.35,0.93,-0.12,24493.0
-0.0,0.36,0.93,0.0,24513.0
0.0,0.35,0.93,-0.12,24531.0
-0.0,0.35,0.93,0.0,24551.0
0.0,0.35,0.93,-0.18,24571.0
0.0,0.35,0.93,-0.24,24589.0
-0.0,0.35,0.93,-0.37,24613.0
0.0,0.35,0.93,-0.06,24632.0
0.0,0.35,0.93,-0.18,24650.0
0.0,0.35,0.93,-0.18,24670.0
0.0,0.35,0.94,0.0,24690.0
0.0,0.35,0.93,-0.18,24710.0
0.0,0.35,0.94,-0.18,24728.0
0.0,0.35,0.93,0.12,24746.0
-0.0,0.35,0.93,0.12,24764.0
-0.0,0.35,0.93,-0.31,24781.0
0.0,0.35,0.93,-0.12,24800.0
0.0,0.36,0.94,-0.18,24818.0
0.0,0.35,0.94,0.0,24835.0
0.01,0.36,0.93,-0.31,24853.0
0.0,0.36,0.94,-0.18,24871.0
-0.0,0.35,0.93,-0.06,24891.0
-0.01,0.35,0.93,-0.12,24909.0
-0.0,0.35,0.93,-0.24,24928.0
0.0,0.35,0.93,-0.31,24948.0
0.0,0.35,0.93,-0.12,24965.0
0.0,0.35,0.94,-0.31,24983.0
0.0,0.35,0.93,-0.31,25000.0
-0.0,0.36,0.93,-0.24,25018.0
-0.0,0.35,0.93,-0.06,25037.0
0.0,0.35,0.93,-0.24,25056.0
0.0,0.35,0.93,0.0,25074.0
0.0,0.35,0.93,-0.18,25092.0
0.01,0.35,0.93,-0.31,25109.0
0.0,0.35,0.93,-0.24,25129.0
0.01,0.35,0.92,-0.12,25153.0
0.0,0.36,0.93,-0.31,25171.0
-0.0,0.36,0.93,-0.18,25188.0
0.0,0.36,0.93,-0.12,25207.0
-0.0,0.35,0.93,-0.12,25226.0
-0.0,0.35,0.92,-0.24,25244.0
-0.0,0.35,0.92,-0.37,25262.0
-0.0,0.35,0.93,-0.31,25284.0
-0.0,0.36,0.93,-0.43,25304.0
0.0,0.35,0.93,-0.12,25324.0
-0.0,0.35,0.93,-0.24,25343.0
0.0,0.35,0.93,-0.18,25363.0
0.01,0.35,0.93,-0.37,25384.0
0.01,0.35,0.93,-0.37,25404.0
0.01,0.36,0.93,-0.31,25425.0
0.0,0.35,0.93,-0.18,25444.0
-0.0,0.35,0.93,-0.18,25466.0
-0.0,0.35,0.93,-0.43,25487.0
-0.0,0.35,0.93,-0.24,25509.0
0.0,0.35,0.93,-0.31,25528.0
0.0,0.35,0.93,-0.18,25547.0
0.0,0.35,0.94,-0.18,25567.0
-0.0,0.35,0.93,-0.43,25587.0
-0.0,0.35,0.93,-0.18,25608.0
0.0,0.35,0.93,-0.12,25626.0
0.0,0.35,0.93,-0.06,25644.0
0.01,0.35,0.93,-0.12,25664.0
0.0,0.35,0.93,-0.12,25682.0
0.0,0.35,0.93,0.0,25706.0
0.0,0.35,0.93,-0.37,25727.0
-0.0,0.35,0.92,-0.18,25746.0
0.01,0.35,0.93,-0.24,25766.0
0.0,0.35,0.93,-0.12,25786.0
0.0,0.36,0.94,-0.06,25806.0
-0.0,0.35,0.93,-0.18,25826.0
-0.0,0.36,0.93,-0.31,25847.0
-0.01,0.36,0.93,0.06,25865.0
-0.0,0.35,0.93,-0.24,25886.0
0.0,0.35,0.94,-0.37,25905.0
0.0,0.35,0.93,-0.06,25926.0
-0.0,0.36,0.93,-0.06,25947.0
-0.0,0.35,0.93,0.06,25966.0
0.0,0.35,0.94,-0.06,25989.0
0.0,0.35,0.93,-0.31,26011.0
0.01,0.35,0.93,-0.24,26029.0
0.0,0.35,0.93,-0.43,26048.0
0.01,0.36,0.93,-0.18,26066.0
0.0,0.36,0.93,-0.24,26086.0
0.01,0.35,0.93,-0.24,26105.0
-0.0,0.36,0.93,-0.12,26125.0
-0.0,0.35,0.94,-0.18,26145.0
-0.0,0.35,0.93,-0.06,26164.0
0.0,0.35,0.94,-0.24,26183.0
0.0,0.35,0.93,-0.12,26201.0
0.0,0.35,0.93,-0.24,26222.0
0.0,0.35,0.94,-0.31,26239.0
-0.0,0.35,0.93,-0.43,26260.0
0.0,0.35,0.93,-0.12,26278.0
0.01,0.35,0.93,-0.12,26300.0
-0.0,0.35,0.93,-0.18,26319.0
0.0,0.35,0.93,-0.18,26337.0
0.0,0.35,0.93,-0.24,26358.0
0.0,0.35,0.93,-0.18,26377.0
-0.0,0.35,0.93,-0.18,26398.0
-0.0,0.35,0.94,-0.24,26416.0
0.0,0.35,0.93,0.0,26438.0
0.0,0.35,0.93,-0.18,26456.0
0.0,0.35,0.94,-0.24,26475.0
0.0,0.35,0.94,-0.24,26495.0
0.0,0.35,0.93,-0.37,26513.0
0.0,0.36,0.93,-0.37,26534.0
-0.0,0.35,0.94,-0.18,26555.0
0.0,0.35,0.93,-0.12,26576.0
0.0,0.35,0.93,-0.37,26595.0
0.0,0.36,0.93,-0.24,26613.0
0.0,0.35,0.94,-0.18,26632.0
-0.0,0.35,0.93,-0.24,26651.0
0.0,0.35,0.93,-0.06,26672.0
0.0,0.35,0.93,-0.24,26692.0
0.0,0.36,0.93,-0.18,26711.0
-0.0,0.36,0.93,-0.18,26733.0
0.0,0.36,0.93,-0.37,26752.0
0.0,0.35,0.93,-0.31,26770.0
0.0,0.35,0.93,-0.18,26788.0
-0.0,0.35,0.93,-0.31,26806.0
-0.0,0.35,0.93,-0.31,26828.0
0.0,0.35,0.93,-0.24,26847.0
0.0,0.35,0.93,-0.24,26865.0
0.0,0.35,0.93,-0.24,26884.0
0.01,0.35,0.92,-0.37,26903.0
-0.0,0.35,0.94,-0.18,26923.0
-0.0,0.35,0.94,-0.24,26942.0
-0.0,0.36,0.94,-0.12,26960.0
0.0,0.35,0.93,-0.06,26982.0
0.0,0.35,0.94,-0.06,27002.0
0.0,0.35,0.93,0.18,27023.0
0.0,0.35,0.93,0.0,27041.0
-0.0,0.36,0.94,0.18,27059.0
-0.0,0.35,0.94,0.24,27079.0
-0.0,0.35,0.93,0.06,27097.0
0.0,0.35,0.93,-0.06,27118.0
0.01,0.35,0.93,-0.18,27139.0
0.02,0.35,0.93,-0.18,27157.0
0.02,0.35,0.93,0.0,27175.0
0.01,0.35,0.93,-0.24,27194.0
0.01,0.35,0.93,-0.18,27213.0
0.0,0.35,0.93,-0.55,27234.0
0.0,0.35,0.93,-0.18,27255.0
0.0,0.35,0.94,-0.24,27274.0
0.0,0.35,0.93,-0.31,27295.0
0.0,0.35,0.93,-0.18,27313.0
0.0,0.35,0.93,-0.37,27331.0
-0.0,0.35,0.93,0.06,27351.0
-0.01,0.35,0.93,-0.12,27371.0
-0.0,0.35,0.93,-0.12,27390.0
0.01,0.35,0.93,-0.18,27410.0
0.01,0.35,0.93,-0.37,27430.0
0.01,0.35,0.93,-0.18,27447.0
0.01,0.35,0.93,-0.24,27468.0
0.0,0.35,0.93,-0.31,27490.0
-0.0,0.35,0.93,-0.18,27510.0
0.0,0.35,0.94,-0.37,27528.0
0.0,0.35,0.93,-0.12,27549.0
0.01,0.35,0.93,-0.18,27567.0
0.01,0.35,0.93,0.0,27586.0
0.01,0.36,0.93,-0.31,27605.0
0.01,0.35,0.93,-0.06,27624.0
0.0,0.35,0.93,-0.31,27644.0
-0.0,0.35,0.94,-0.31,27667.0
-0.0,0.35,0.94,-0.31,27685.0
0.0,0.35,0.94,-0.18,27705.0
0.0,0.35,0.94,-0.18,27724.0
0.0,0.35,0.93,-0.24,27746.0
0.0,0.35,0.93,-0.24,27765.0
0.0,0.36,0.93,-0.12,27788.0
0.0,0.36,0.93,-0.12,27809.0
0.0,0.35,0.93,-0.31,27827.0
0.01,0.35,0.93,-0.06,27847.0
0.01,0.35,0.93,-0.24,27868.0
0.01,0.35,0.93,-0.12,27888.0
0.01,0.35,0.94,-0.18,27909.0
0.0,0.35,0.93,-0.24,27929.0
-0.0,0.35,0.93,-0.31,27948.0
-0.0,0.35,0.94,-0.18,27969.0
-0.0,0.35,0.94,-0.06,27987.0
0.0,0.36,0.93,-0.37,28005.0
0.0,0.35,0.93,-0.18,28023.0
0.0,0.36,0.93,-0.12,28045.0
0.01,0.36,0.93,-0.12,28063.0
0.01,0.36,0.93,-0.43,28083.0
0.0,0.35,0.93,-0.31,28103.0
0.0,0.35,0.93,-0.37,28122.0
0.0,0.35,0.93,-0.31,28140.0
0.0,0.35,0.93,-0.12,28157.0
0.01,0.35,0.93,-0.37,28176.0
0.01,0.35,0.93,0.06,28194.0
0.01,0.35,0.93,-0.31,28212.0
0.01,0.35,0.93,-0.12,28230.0
0.01,0.35,0.93,-0.12,28248.0
0.0,0.35,0.93,-0.37,28269.0
0.0,0.35,0.93,-0.18,28289.0
0.0,0.35,0.93,-0.18,28310.0
0.0,0.35,0.93,-0.24,28327.0
0.0,0.35,0.93,-0.12,28346.0
0.0,0.35,0.93,-0.18,28368.0
0.01,0.35,0.93,0.0,28385.0
-0.0,0.35,0.93,-0.24,28404.0
-0.0,0.35,0.94,-0.24,28424.0
0.0,0.35,0.94,-0.06,28443.0
0.01,0.35,0.93,-0.18,28464.0
0.01,0.36,0.93,-0.12,28484.0
0.01,0.36,0.93,-0.31,28501.0
0.01,0.35,0.93,-0.37,28519.0
0.0,0.35,0.94,-0.12,28540.0
0.0,0.35,0.93,-0.24,28560.0
0.0,0.35,0.93,-0.31,28579.0
0.0,0.35,0.93,-0.18,28599.0
0.0,0.35,0.93,-0.18,28617.0
0.01,0.35,0.93,-0.06,28637.0
0.01,0.35,0.93,-0.12,28657.0
0.01,0.35,0.93,-0.18,28682.0
0.0,0.35,0.94,-0.12,28703.0
0.01,0.35,0.93,-0.31,28722.0
0.01,0.35,0.93,-0.12,28741.0
0.0,0.35,0.93,-0.31,28761.0
0.0,0.35,0.93,-0.31,28782.0
0.0,0.36,0.93,-0.18,28801.0
0.0,0.35,0.93,-0.31,28824.0
0.0,0.35,0.93,-0.24,28842.0
0.0,0.35,0.93,-0.06,28864.0
0.01,0.36,0.93,-0.12,28885.0
0.01,0.35,0.93,-0.06,28903.0
0.01,0.35,0.93,-0.18,28921.0
0.01,0.35,0.93,-0.12,28939.0
0.01,0.35,0.93,-0.24,28960.0
0.0,0.35,0.93,-0.18,28981.0
0.0,0.35,0.93,-0.24,29000.0
0.01,0.35,0.93,-0.31,29018.0
0.0,0.35,0.93,-0.12,29038.0
0.01,0.35,0.93,-0.12,29056.0
0.01,0.35,0.93,0.0,29073.0
0.0,0.35,0.93,0.0,29092.0
0.01,0.35,0.93,-0.12,29112.0
0.0,0.35,0.93,-0.18,29131.0
0.0,0.35,0.93,-0.43,29149.0
0.0,0.35,0.93,-0.24,29167.0
0.0,0.35,0.93,-0.37,29186.0
0.0,0.35,0.93,-0.31,29205.0
0.0,0.35,0.93,-0.37,29224.0
0.0,0.35,0.93,-0.31,29242.0
0.0,0.35,0.93,-0.12,29260.0
0.0,0.35,0.93,-0.18,29280.0
0.01,0.35,0.93,0.0,29301.0
0.01,0.35,0.93,-0.18,29318.0
0.01,0.36,0.93,-0.18,29337.0
0.01,0.36,0.93,-0.24,29357.0
0.01,0.35,0.93,-0.37,29376.0
0.0,0.35,0.93,-0.18,29397.0
0.0,0.35,0.93,-0.31,29415.0
-0.0,0.35,0.94,-0.06,29434.0
-0.0,0.35,0.93,-0.24,29452.0
0.0,0.35,0.94,-0.18,29470.0
0.0,0.35,0.93,-0.06,29495.0
0.01,0.35,0.93,-0.18,29515.0
0.01,0.35,0.93,-0.12,29533.0
0.0,0.35,0.93,-0.24,29553.0
0.01,0.35,0.93,-0.12,29573.0
0.0,0.35,0.93,-0.12,29595.0
0.01,0.35,0.93,-0.18,29613.0
0.01,0.35,0.93,-0.43,29632.0
0.01,0.35,0.93,-0.31,29655.0
0.01,0.35,0.93,-0.43,29673.0
0.0,0.35,0.93,-0.55,29690.0
0.0,0.36,0.93,-0.55,29710.0
-0.0,0.36,0.94,-0.43,29728.0
-0.0,0.35,0.93,-0.24,29748.0
-0.0,0.35,0.94,-0.06,29766.0
-0.0,0.35,0.93,-0.18,29786.0
-0.0,0.35,0.93,-0.18,29808.0
-0.0,0.35,0.94,-0.18,29826.0
0.0,0.35,0.93,-0.06,29846.0
0.0,0.35,0.94,-0.18,29868.0
0.0,0.35,0.93,-0.24,29889.0
0.01,0.35,0.93,-0.18,29909.0
0.01,0.35,0.93,-0.37,29927.0
0.01,0.35,0.93,-0.18,29945.0
0.01,0.35,0.93,-0.18,29965.0
0.01,0.36,0.93,-0.24,29986.0
0.0,0.35,0.93,-0.24,30006.0
-0.0,0.35,0.93,-0.31,30027.0
0.0,0.35,0.94,-0.37,30045.0
-0.0,0.35,0.93,-0.24,30064.0
-0.0,0.35,0.94,-0.06,30084.0
-0.0,0.35,0.93,0.0,30106.0
0.0,0.35,0.93,-0.37,30125.0
0.0,0.35,0.93,0.0,30143.0
0.0,0.35,0.93,-0.06,30161.0
0.01,0.35,0.93,-0.31,30181.0
0.0,0.35,0.93,-0.18,30202.0
0.0,0.35,0.93,-0.37,30222.0
0.01,0.35,0.94,-0.43,30242.0
0.01,0.36,0.93,-0.37,30260.0
0.0,0.35,0.93,-0.24,30279.0
0.0,0.35,0.94,-0.31,30297.0
-0.0,0.35,0.93,-0.31,30317.0
-0.0,0.35,0.93,-0.37,30336.0
0.0,0.35,0.94,-0.24,30357.0
0.0,0.35,0.93,-0.18,30377.0
0.0,0.35,0.93,-0.31,30396.0
0.01,0.35,0.93,-0.24,30416.0
0.0,0.35,0.93,-0.24,30436.0
0.0,0.35,0.93,-0.18,30454.0
-0.0,0.35,0.93,-0.18,30474.0
0.0,0.35,0.93,-0.12,30495.0
0.0,0.35,0.94,-0.06,30515.0
0.0,0.35,0.93,-0.12,30535.0
0.01,0.35,0.93,-0.18,30555.0
0.0,0.35,0.94,-0.18,30574.0
0.01,0.35,0.93,-0.18,30592.0
0.0,0.35,0.93,-0.12,30611.0
0.0,0.35,0.93,-0.12,30634.0
-0.0,0.35,0.93,-0.24,30653.0
0.0,0.35,0.94,-0.24,30671.0
-0.0,0.35,0.93,-0.18,30692.0
-0.0,0.35,0.93,-0.43,30711.0
-0.0,0.35,0.93,-0.18,30732.0
-0.0,0.35,0.93,-0.18,30750.0
0.0,0.35,0.93,-0.12,30770.0
0.0,0.35,0.93,-0.31,30789.0
0.0,0.36,0.93,-0.18,30808.0
0.0,0.35,0.93,-0.12,30828.0
0.01,0.35,0.93,-0.06,30847.0
0.01,0.36,0.93,-0.24,30865.0
0.0,0.35,0.93,-0.31,30885.0
0.01,0.35,0.93,-0.12,30903.0
0.01,0.35,0.93,-0.18,30920.0
0.0,0.35,0.94,-0.31,30939.0
0.0,0.35,0.93,-0.12,30958.0
0.0,0.35,0.93,0.0,30977.0
0.01,0.35,0.93,-0.12,30994.0
0.0,0.35,0.93,0.0,31015.0
0.0,0.36,0.93,-0.12,31034.0
0.0,0.35,0.93,-0.12,31054.0
0.0,0.36,0.94,-0.24,31074.0
0.0,0.35,0.93,0.0,31093.0
0.0,0.35,0.93,-0.12,31113.0
0.0,0.35,0.93,-0.12,31132.0
0.01,0.35,0.93,-0.18,31150.0
0.01,0.35,0.93,-0.12,31169.0
0.01,0.35,0.94,-0.24,31191.0
0.01,0.35,0.93,-0.24,31210.0
0.01,0.35,0.93,-0.37,31229.0
0.01,0.35,0.94,-0.18,31248.0
0.0,0.35,0.93,-0.31,31269.0
-0.0,0.35,0.94,-0.18,31290.0
0.0,0.35,0.94,-0.24,31309.0
-0.0,0.35,0.93,-0.12,31328.0
-0.0,0.35,0.93,-0.12,31348.0
-0.01,0.35,0.93,-0.18,31366.0
-0.0,0.36,0.93,0.0,31386.0
-0.0,0.35,0.93,-0.12,31404.0
-0.0,0.36,0.93,0.31,31424.0
-0.0,0.35,0.92,0.24,31447.0
0.0,0.35,0.93,0.12,31464.0
0.01,0.35,0.93,0.0,31482.0
0.01,0.35,0.93,-0.12,31499.0
0.01,0.35,0.93,0.0,31519.0
0.01,0.35,0.93,-0.06,31539.0
0.01,0.35,0.94,-0.31,31558.0
0.01,0.35,0.94,-0.18,31576.0
0.01,0.35,0.93,-0.18,31595.0
0.01,0.35,0.93,-0.37,31613.0
0.01,0.35,0.93,-0.31,31632.0
0.0,0.35,0.93,-0.31,31652.0
0.0,0.35,0.93,-0.37,31670.0
-0.0,0.36,0.93,-0.31,31690.0
-0.0,0.36,0.93,-0.24,31710.0
-0.0,0.35,0.93,-0.06,31729.0
0.0,0.35,0.94,-0.18,31749.0
0.0,0.35,0.93,-0.18,31768.0
0.01,0.35,0.93,-0.06,31786.0
0.01,0.38,0.85,-0.12,31806.0
0.01,0.03,1.09,-248.35,31824.0
0.11,0.2,1.0,27.16,31849.0
0.01,0.19,1.07,-9.09,31871.0
-0.37,-0.23,1.3,125.43,31892.0
-0.09,0.24,0.32,43.52,31913.0
0.12,-0.76,1.82,-265.01,31931.0
-0.24,0.27,1.0,-99.37,31951.0
0.38,0.57,1.17,-215.03,31972.0
0.18,0.78,1.06,-59.08,31991.0
-0.21,1.25,0.62,283.45,32012.0
0.05,1.77,0.77,433.35,32030.0
-0.12,2.09,1.35,480.71,32052.0
-0.31,1.4,1.6,328.8,32072.0
-0.38,1.27,1.09,114.75,32092.0
-0.17,1.32,0.35,-447.27,32115.0
0.4,1.21,0.33,-674.74,32135.0
0.85,0.9,0.49,-532.53,32156.0
0.88,0.46,0.56,-133.79,32175.0
0.65,0.24,0.44,110.84,32193.0
0.28,-0.01,0.37,148.62,32213.0
0.1,-0.31,0.27,25.21,32232.0
0.22,-0.44,0.11,-274.72,32255.0
0.62,-0.16,0.09,-538.15,32273.0
1.16,0.08,0.15,-624.88,32293.0
1.63,0.17,0.36,-550.29,32315.0
1.8,0.16,0.46,-282.35,32333.0
1.71,0.04,0.44,40.59,32350.0
1.25,0.09,0.31,296.75,32369.0
0.87,-0.0,0.36,341.31,32388.0
0.75,0.19,0.47,356.63,32408.0
0.62,0.01,0.63,344.24,32428.0
0.56,0.07,0.74,330.75,32446.0
0.42,0.08,0.76,319.03,32467.0
0.33,0.04,0.75,274.54,32488.0
0.32,0.18,0.77,182.68,32506.0
0.43,0.26,0.74,99.85,32528.0
0.41,0.33,0.66,69.03,32548.0
0.22,0.44,0.51,58.84,32567.0
-0.06,0.65,0.47,36.07,32585.0
-0.13,0.88,0.6,-35.34,32605.0
0.06,1.13,0.94,-78.12,32624.0
0.2,1.12,1.32,-72.57,32642.0
0.29,1.39,1.57,-64.58,32661.0
0.27,1.28,1.17,30.03,32681.0
0.0,1.14,0.83,71.96,32700.0
-0.14,0.96,0.73,30.88,32718.0
-0.06,0.81,0.68,-93.99,32737.0
0.19,0.66,0.73,-192.87,32757.0
0.27,0.62,0.79,-92.71,32781.0
0.07,0.49,0.75,114.26,32802.0
-0.24,0.56,0.64,159.97,32822.0
-0.01,0.62,1.22,122.25,32841.0
-0.54,0.64,1.21,43.88,32864.0
-0.15,0.5,1.23,-73.24,32884.0
-0.23,0.48,1.16,-166.87,32904.0
-0.0,0.29,1.2,-211.49,32923.0
0.1,0.19,1.2,-147.64,32942.0
-0.15,0.04,0.86,-51.7,32961.0
-0.39,-0.2,0.53,-89.9,32982.0
-0.26,-0.36,0.37,-277.16,33001.0
0.21,-0.37,0.52,-366.03,33024.0
0.38,-0.46,0.83,-240.42,33043.0
0.36,-0.49,0.91,-151.12,33062.0
0.34,-0.49,0.96,-148.8,33082.0
0.56,-0.56,0.92,-131.71,33103.0
0.66,-0.63,0.84,-99.85,33121.0
0.75,-0.69,0.72,-64.45,33141.0
0.78,-0.74,0.61,-35.28,33161.0
0.95,-0.71,0.55,0.98,33182.0
0.71,-0.58,0.73,176.51,33200.0
0.15,-0.43,0.82,252.99,33221.0
-0.05,-0.36,0.61,215.15,33244.0
-0.15,-0.25,0.62,226.14,33262.0
-0.32,-0.06,0.75,283.69,33282.0
-0.53,-0.0,0.71,319.15,33300.0
-0.62,0.14,0.86,320.98,33320.0
-0.81,0.38,0.93,355.16,33342.0
-1.04,0.52,0.99,304.44,33360.0
-1.15,0.6,1.27,149.17,33379.0
-1.01,0.57,1.57,-32.78,33398.0
-0.74,0.49,1.25,-98.69,33417.0
-0.69,0.37,1.09,-67.57,33435.0
-0.65,0.26,1.25,-108.22,33457.0
-0.58,0.18,1.1,-142.94,33475.0
-0.61,0.05,0.78,-166.87,33498.0
-0.48,-0.05,0.87,-241.7,33518.0
-0.19,-0.21,0.88,-278.99,33537.0
-0.1,-0.33,0.62,-252.99,33556.0
0.0,-0.55,0.58,-261.9,33578.0
0.3,-0.66,0.81,-269.47,33596.0
0.56,-0.81,0.72,-227.6,33616.0
0.71,-0.89,0.61,-159.24,33637.0
0.81,-0.93,0.6,-61.58,33657.0
0.72,-0.91,0.57,31.62,33677.0
0.55,-0.84,0.63,79.1,33698.0
0.45,-0.73,0.8,117.13,33718.0
0.28,-0.6,0.85,147.95,33736.0
0.13,-0.53,0.74,150.51,33754.0
0.07,-0.4,0.72,164.92,33774.0
0.01,-0.23,0.68,249.39,33795.0
-0.33,0.03,0.66,377.5,33815.0
-0.84,0.34,0.39,483.7,33834.0
-1.45,0.64,0.59,462.77,33857.0
-1.62,0.83,1.15,294.49,33875.0
-1.25,0.87,1.68,23.19,33897.0
-0.92,0.8,1.79,-82.64,33915.0
-0.67,0.59,1.14,-125.73,33934.0
-0.71,0.43,0.85,-146.42,33953.0
-0.7,0.35,1.06,-202.82,33973.0
-0.5,0.21,1.15,-284.55,33992.0
-0.16,0.02,1.11,-333.86,34013.0
-0.06,-0.13,0.92,-293.7,34031.0
-0.2,-0.22,0.55,-228.82,34053.0
-0.17,-0.35,0.47,-277.04,34073.0
0.35,-0.56,0.81,-359.74,34094.0
0.8,-0.74,0.83,-348.57,34116.0
1.07,-0.8,0.62,-167.97,34137.0
0.9,-0.82,0.44,24.96,34157.0
0.51,-0.77,0.71,100.89,34175.0
0.41,-0.73,0.98,61.83,34194.0
0.5,-0.7,0.87,59.45,34214.0
0.44,-0.66,0.82,113.53,34233.0
0.3,-0.6,0.76,145.81,34252.0
0.12,-0.55,0.78,155.7,34273.0
0.1,-0.51,0.84,152.4,34294.0
0.07,-0.4,0.68,175.35,34313.0
0.03,-0.28,0.45,217.1,34332.0
-0.08,-0.1,0.45,249.08,34352.0
-0.22,0.06,0.61,285.52,34370.0
-0.47,0.36,0.7,362.85,34390.0
-0.65,0.58,0.73,326.6,34412.0
-0.49,0.74,0.89,182.62,34430.0
-0.32,1.04,1.17,122.07,34448.0
-0.46,1.09,1.28,161.93,34469.0
-0.86,1.41,1.12,35.95,34489.0
-0.96,1.74,1.55,-139.28,34510.0
-0.26,1.34,1.72,-261.11,34530.0
0.03,1.01,1.13,-169.86,34549.0
-0.28,0.73,0.54,-40.22,34568.0
-0.45,0.67,0.6,-76.9,34588.0
-0.3,0.72,1.08,-209.17,34608.0
0.14,0.6,1.37,-257.08,34627.0
0.18,0.39,0.99,-188.11,34647.0
0.08,0.09,0.65,-174.56,34667.0
0.16,-0.17,0.56,-248.11,34686.0
0.44,-0.4,0.57,-305.42,34706.0
0.71,-0.56,0.6,-240.23,34728.0
0.73,-0.62,0.59,-108.46,34746.0
0.66,-0.7,0.79,-63.11,34766.0
0.85,-0.76,0.79,-56.34,34785.0
0.93,-0.75,0.88,-7.45,34805.0
0.85,-0.69,0.89,37.6,34827.0
0.75,-0.58,1.06,49.62,34847.0
0.65,-0.5,1.06,82.46,34866.0
0.52,-0.44,1.03,97.17,34885.0
0.44,-0.38,1.03,92.53,34906.0
0.23,-0.24,0.82,151.73,34927.0
-0.08,-0.12,0.52,215.7,34948.0
-0.29,0.0,0.59,227.23,34967.0
-0.42,0.19,0.97,218.02,34985.0
-0.51,0.35,0.99,227.72,35005.0
-0.8,0.64,0.58,272.28,35026.0
-0.98,0.86,0.87,229.25,35048.0
-0.78,1.05,1.32,107.54,35071.0
-0.68,1.17,1.5,59.75,35091.0
-0.56,1.01,1.3,-63.72,35113.0
-0.32,0.91,1.11,-130.74,35134.0
-0.24,0.66,1.07,-119.2,35155.0
-0.22,0.48,0.91,-134.64,35176.0
-0.17,0.35,0.83,-162.41,35196.0
-0.09,0.22,0.96,-163.33,35215.0
-0.05,0.12,1.08,-155.94,35237.0
-0.12,0.0,0.87,-157.65,35256.0
0.05,-0.34,0.62,-261.11,35279.0
0.36,-0.52,0.65,-257.08,35299.0
0.53,-0.64,0.75,-160.4,35318.0
0.47,-0.73,0.87,-77.27,35340.0
0.62,-0.79,0.84,-71.78,35361.0
0.71,-0.79,0.88,-44.68,35380.0
0.65,-0.77,0.91,9.7,35398.0
0.6,-0.75,0.94,4.58,35417.0
0.63,-0.69,0.94,13.85,35440.0
0.55,-0.67,0.87,38.7,35458.0
0.47,-0.61,0.93,25.15,35478.0
0.47,-0.48,1.04,34.0,35496.0
0.31,-0.37,1.07,101.26,35515.0
0.04,-0.27,0.93,160.34,35537.0
-0.01,-0.18,0.71,150.76,35557.0
0.04,-0.03,0.49,150.02,35577.0
-0.07,0.19,0.69,220.83,35597.0
-0.32,0.51,1.1,320.92,35617.0
-0.5,0.83,1.2,374.02,35636.0
-0.6,1.02,1.17,357.3,35655.0
-0.61,1.09,1.16,256.9,35673.0
-0.5,1.09,1.26,125.0,35695.0
-0.63,1.03,1.18,5.62,35714.0
-0.44,0.95,0.89,-130.68,35735.0
-0.34,0.89,0.99,-92.22,35755.0
-0.34,0.79,1.19,-86.61,35774.0
-0.26,0.66,1.15,-117.19,35792.0
-0.2,0.53,0.95,-115.54,35813.0
-0.16,0.43,0.96,-134.09,35831.0
-0.07,0.25,0.94,-162.23,35851.0
-0.05,0.1,0.86,-203.25,35869.0
0.08,0.01,0.94,-224.73,35890.0
0.11,-0.12,1.02,-181.76,35909.0
0.05,-0.25,0.86,-177.8,35929.0
0.17,-0.38,0.82,-203.37,35947.0
0.41,-0.5,0.96,-169.19,35968.0
0.35,-0.56,0.91,-81.3,35989.0
0.32,-0.68,0.82,-74.83,36008.0
0.67,-0.71,0.97,-101.99,36028.0
0.66,-0.63,0.98,8.48,36048.0
0.37,-0.55,1.04,45.59,36066.0
0.46,-0.54,1.15,5.43,36086.0
0.56,-0.5,1.11,45.04,36107.0
0.38,-0.39,1.1,67.99,36127.0
0.25,-0.3,1.06,76.48,36146.0
0.13,-0.19,1.09,88.26,36166.0
0.09,-0.14,1.08,128.54,36185.0
0.02,-0.09,0.79,148.93,36204.0
-0.07,-0.02,0.62,164.98,36222.0
-0.2,0.07,0.58,182.68,36241.0
-0.36,0.28,0.57,208.31,36263.0
-0.6,0.53,0.68,239.62,36282.0
-0.71,0.8,0.94,206.24,36302.0
-0.8,1.08,1.25,179.93,36323.0
-0.85,1.16,1.34,126.28,36344.0
-0.8,1.07,1.37,-19.78,36366.0
-0.52,0.91,1.08,-97.35,36387.0
-0.45,0.74,0.99,-86.91,36407.0
-0.4,0.62,0.99,-108.64,36426.0
-0.31,0.54,0.97,-142.46,36445.0
-0.2,0.48,1.1,-147.16,36465.0
-0.14,0.37,1.1,-151.37,36483.0
-0.15,0.23,0.92,-163.76,36502.0
-0.11,0.07,0.84,-214.78,36523.0
0.07,-0.07,0.86,-238.22,36541.0
0.2,-0.26,0.85,-217.77,36562.0
0.34,-0.39,0.87,-191.47,36582.0
0.42,-0.48,0.96,-130.68,36601.0
0.5,-0.57,0.98,-76.35,36621.0
0.61,-0.61,0.97,-26.55,36639.0
0.65,-0.66,1.08,19.29,36661.0
0.71,-0.66,1.01,22.77,36680.0
0.61,-0.68,0.83,7.2,36698.0
0.63,-0.67,0.82,-12.45,36716.0
0.72,-0.66,0.95,4.15,36734.0
0.61,-0.58,0.97,51.33,36753.0
0.39,-0.5,0.94,55.91,36773.0
0.31,-0.45,0.87,30.82,36792.0
0.23,-0.38,0.88,30.27,36813.0
0.18,-0.3,0.88,77.58,36833.0
0.03,-0.21,0.88,145.81,36851.0
-0.25,-0.1,0.88,207.7,36874.0
-0.45,0.02,0.71,222.29,36894.0
-0.52,0.08,0.71,200.87,36914.0
-0.45,0.22,0.9,182.86,36934.0
-0.49,0.4,0.86,236.33,36952.0
-0.69,0.68,0.99,266.24,36977.0
-0.64,0.89,1.3,194.95,36995.0
-0.57,0.9,1.5,110.66,37018.0
-0.62,0.79,1.21,19.9,37038.0
-0.56,0.72,0.78,-35.83,37058.0
-0.45,0.58,1.0,-75.74,37081.0
-0.28,0.51,1.05,-110.11,37103.0
-0.19,0.46,1.1,-110.6,37121.0
-0.15,0.38,1.11,-110.17,37139.0
-0.18,0.3,1.03,-105.29,37159.0
-0.16,0.19,1.07,-146.61,37182.0
-0.07,0.07,1.12,-181.15,37202.0
-0.02,-0.08,0.94,-189.82,37222.0
0.0,-0.24,0.75,-204.41,37242.0
0.15,-0.32,0.81,-211.79,37262.0
0.26,-0.38,1.08,-130.98,37283.0
0.21,-0.47,0.87,-76.66,37304.0
0.26,-0.56,0.78,-76.66,37324.0
0.47,-0.62,0.92,-72.14,37343.0
0.53,-0.59,0.99,2.99,37364.0
0.34,-0.56,0.97,40.53,37385.0
0.3,-0.54,1.0,3.17,37403.0
0.39,-0.5,0.98,4.64,37421.0
0.33,-0.47,0.97,31.86,37440.0
0.26,-0.43,0.99,44.31,37458.0
0.14,-0.4,0.99,48.65,37479.0
0.08,-0.39,0.95,32.9,37499.0
0.09,-0.37,0.94,25.33,37517.0
0.06,-0.32,0.98,59.88,37538.0
-0.07,-0.26,0.85,119.26,37556.0
-0.32,-0.2,0.67,181.52,37575.0
-0.47,-0.16,0.78,168.52,37595.0
-0.46,-0.1,0.96,141.42,37615.0
-0.44,-0.06,0.87,143.74,37635.0
-0.46,-0.01,0.78,145.87,37653.0
-0.46,0.08,0.87,150.94,37673.0
-0.48,0.14,1.03,141.05,37693.0
-0.39,0.2,1.22,106.38,37713.0
-0.41,0.22,1.2,99.12,37733.0
-0.48,0.19,0.98,73.67,37752.0
-0.44,0.13,0.91,16.6,37774.0
-0.3,0.06,0.91,-2.62,37797.0
-0.28,0.01,0.86,28.44,37817.0
-0.31,-0.02,0.89,37.41,37837.0
-0.3,-0.03,0.96,29.54,37855.0
-0.28,-0.06,0.95,35.77,37877.0
-0.32,-0.07,0.87,39.43,37895.0
-0.32,-0.07,0.89,24.96,37915.0
-0.27,-0.05,1.01,12.33,37933.0
-0.23,-0.0,1.12,30.82,37951.0
-0.26,0.03,1.11,59.45,37969.0
-0.31,0.05,1.06,65.0,37989.0
-0.26,0.06,1.02,51.33,38011.0
-0.24,0.08,0.96,52.31,38030.0
-0.25,0.09,0.93,36.99,38048.0
-0.16,0.1,0.85,12.88,38068.0
-0.13,0.14,0.86,16.05,38086.0
-0.13,0.21,1.01,28.69,38105.0
-0.14,0.25,1.07,43.64,38124.0
-0.18,0.27,0.97,69.46,38146.0
-0.2,0.26,0.84,64.76,38165.0
-0.17,0.26,0.79,38.82,38187.0
-0.09,0.27,0.73,30.52,38209.0
-0.05,0.32,0.68,35.1,38229.0
0.03,0.49,1.02,59.63,38252.0
-0.11,0.56,1.21,77.27,38271.0
-0.18,0.51,0.99,26.25,38293.0
-0.04,0.5,0.9,4.33,38314.0
-0.09,0.52,1.03,20.08,38334.0
-0.13,0.49,0.78,18.98,38353.0
-0.11,0.47,0.79,4.09,38371.0
-0.1,0.5,0.85,-3.97,38391.0
-0.21,0.49,0.89,-3.11,38413.0
-0.35,0.54,0.7,-31.8,38431.0
-0.12,0.43,1.0,-79.59,38453.0
-0.21,0.52,0.87,16.72,38473.0
-0.13,0.44,0.89,-18.98,38493.0
-0.61,0.06,0.53,183.04,38515.0
0.4,0.64,1.65,-160.28,38536.0
-0.1,0.6,0.77,-17.4,38555.0
-0.12,0.57,0.97,42.97,38574.0
-0.58,0.42,0.91,7.14,38595.0
-0.07,0.52,0.83,-193.97,38614.0
-0.21,0.19,0.48,-176.45,38632.0
0.3,0.65,1.1,-179.87,38653.0
-0.43,0.37,0.89,-91.37,38674.0
-0.3,0.1,0.91,-31.62,38693.0
-0.32,0.49,0.94,-15.93,38712.0
-0.33,0.3,0.8,38.76,38732.0
-0.46,0.43,0.73,-3.54,38753.0
-0.47,0.26,0.92,66.96,38773.0
-0.47,0.22,0.98,13.92,38791.0
-0.34,0.24,0.92,9.03,38812.0
-0.3,0.21,0.9,10.01,38833.0
-0.3,0.23,0.92,4.58,38853.0
-0.33,0.22,0.89,8.18,38871.0
-0.39,0.21,0.87,-2.87,38889.0
-0.32,0.23,0.86,-17.7,38911.0
-0.29,0.24,0.89,-25.76,38930.0
-0.34,0.29,0.95,-33.33,38949.0
-0.34,0.3,0.9,-47.79,38969.0
-0.3,0.33,0.99,-40.95,38988.0
-0.34,0.35,1.14,-37.41,39006.0
-0.32,0.29,0.67,-26.25,39027.0
-0.37,0.36,0.93,-3.85,39050.0
-0.45,0.37,1.03,-32.17,39068.0
-0.31,0.36,0.76,-26.73,39088.0
-0.39,0.36,0.82,6.84,39108.0
-0.37,0.46,0.94,2.2,39128.0
-0.3,0.45,0.82,-11.47,39148.0
-0.26,0.48,0.78,9.7,39166.0
-0.34,0.46,0.89,10.8,39186.0
-0.3,0.42,0.8,9.34,39204.0
-0.28,0.47,0.81,4.88,39227.0
-0.3,0.48,0.9,10.44,39246.0
-0.33,0.42,0.87,4.46,39267.0
-0.32,0.41,0.86,4.03,39287.0
-0.32,0.39,0.87,3.78,39310.0
-0.27,0.39,0.85,5.8,39329.0
-0.24,0.37,0.83,1.77,39348.0
-0.24,0.35,0.86,-1.22,39366.0
-0.29,0.33,0.88,2.38,39386.0
-0.29,0.32,0.89,-1.59,39405.0
-0.3,0.3,0.93,-1.4,39425.0
-0.33,0.27,0.93,-4.27,39447.0
-0.3,0.32,0.92,0.92,39466.0
-0.28,0.32,0.9,3.48,39485.0
-0.29,0.3,0.92,9.83,39506.0
-0.29,0.29,0.91,14.04,39526.0
-0.27,0.31,0.91,14.77,39545.0
-0.33,0.3,0.92,-2.38,39563.0
-0.36,0.29,0.9,-1.22,39585.0
-0.32,0.32,0.91,-3.17,39603.0
-0.27,0.36,0.93,-7.45,39622.0
-0.28,0.44,0.93,-2.2,39642.0
-0.32,0.5,0.99,11.17,39661.0
-0.32,0.5,1.01,17.46,39681.0
-0.35,0.49,0.94,0.79,39701.0
-0.3,0.53,0.88,-12.08,39719.0
-0.15,0.55,0.85,-19.1,39741.0
-0.17,0.53,0.87,-37.41,39760.0
-0.21,0.51,0.95,-49.44,39780.0
-0.27,0.52,0.93,-59.81,39801.0
-0.31,0.48,0.95,-57.86,39820.0
-0.2,0.4,0.9,-41.87,39840.0
-0.21,0.29,0.84,-36.74,39859.0
-0.1,0.29,0.82,-47.73,39878.0
-0.06,0.27,0.83,-50.78,39897.0
-0.16,0.29,0.95,-64.58,39916.0
-0.23,0.11,0.96,-37.72,39937.0
-0.21,0.21,0.9,-12.15,39956.0
-0.26,0.23,0.81,1.28,39976.0
-0.13,0.11,0.84,-18.98,39996.0
-0.07,0.16,0.92,-16.24,40016.0
-0.04,0.23,0.98,-29.3,40038.0
-0.19,0.34,1.1,-38.27,40057.0
-0.23,0.25,1.1,-24.9,40075.0
-0.1,0.17,0.97,-11.72,40095.0
-0.13,0.3,0.94,-3.36,40113.0
-0.16,0.23,0.92,-9.64,40138.0
-0.19,0.2,0.9,1.89,40159.0
-0.21,0.28,0.91,-12.33,40177.0
-0.26,0.29,0.92,-16.36,40197.0
-0.24,0.26,0.86,-11.54,40217.0
-0.15,0.25,0.84,-4.58,40242.0
-0.14,0.34,0.89,-4.64,40261.0
-0.24,0.37,0.94,-13.92,40281.0
-0.25,0.36,0.94,-10.31,40302.0
-0.25,0.38,0.92,-10.62,40320.0
-0.24,0.41,0.87,-15.93,40339.0
-0.26,0.38,0.86,-7.93,40358.0
-0.24,0.31,0.83,3.6,40376.0
-0.27,0.4,0.87,-8.73,40395.0
-0.24,0.49,0.94,-16.6,40413.0
-0.29,0.46,0.98,-8.3,40432.0
-0.24,0.38,0.9,-20.81,40454.0
-0.22,0.36,0.88,-14.16,40474.0
-0.23,0.33,0.89,-11.96,40495.0
-0.26,0.24,0.93,0.31,40518.0
-0.22,0.25,0.95,-3.66,40536.0
-0.22,0.26,1.03,-13.85,40556.0
-0.25,0.17,1.05,-4.39,40577.0
-0.2,0.15,1.06,-6.84,40597.0
-0.22,0.06,1.06,9.46,40618.0
-0.24,0.01,1.05,17.03,40638.0
-0.16,-0.0,1.09,21.67,40658.0
-0.21,-0.0,1.16,25.39,40676.0
-0.18,0.02,1.13,31.07,40694.0
-0.13,0.07,1.14,36.13,40715.0
-0.16,0.05,1.15,37.35,40733.0
-0.21,0.03,1.19,55.6,40753.0
-0.3,-0.02,1.15,75.38,40772.0
-0.17,0.04,1.05,64.64,40793.0
-0.11,0.18,0.98,74.83,40813.0
-0.12,0.24,0.97,59.27,40831.0
-0.17,0.34,0.9,63.17,40850.0
-0.13,0.36,0.69,49.19,40871.0
-0.07,0.54,0.7,44.07,40890.0
-0.17,0.58,0.7,56.27,40911.0
-0.28,0.57,0.7,66.59,40930.0
-0.35,0.54,0.67,52.06,40951.0
-0.33,0.51,0.69,31.68,40970.0
-0.35,0.53,0.75,24.17,40988.0
-0.41,0.52,0.8,18.55,41009.0
-0.43,0.48,0.82,28.08,41027.0
-0.45,0.51,0.84,28.93,41046.0
-0.45,0.46,0.81,18.92,41067.0
-0.42,0.43,0.79,17.46,41086.0
-0.39,0.36,0.76,21.18,41105.0
-0.37,0.3,0.77,25.33,41125.0
-0.32,0.33,0.84,12.15,41143.0
-0.39,0.4,1.02,7.81,41165.0
-0.5,0.4,1.12,11.29,41183.0
-0.52,0.33,1.07,21.85,41202.0
-0.44,0.27,0.92,15.62,41222.0
-0.27,0.23,0.82,0.31,41240.0
-0.22,0.33,0.81,-13.24,41262.0
-0.32,0.36,0.93,-22.4,41282.0
-0.41,0.31,0.98,-16.36,41300.0
-0.44,0.26,0.97,-0.73,41318.0
-0.4,0.24,0.94,-0.43,41338.0
-0.32,0.29,1.02,-10.8,41356.0
-0.38,0.2,0.88,-28.26,41378.0
-0.34,0.16,0.88,-24.48,41398.0
-0.34,0.17,0.92,-16.3,41418.0
-0.47,0.17,0.95,-18.92,41436.0
-0.41,0.19,0.95,-16.78,41457.0
-0.35,0.17,0.88,-21.12,41478.0
-0.36,0.2,0.86,-21.85,41498.0
-0.36,0.22,0.83,-15.44,41517.0
-0.33,0.25,0.83,-20.26,41537.0
-0.35,0.28,0.86,-23.25,41558.0
-0.39,0.28,0.88,-6.1,41579.0
-0.37,0.21,0.84,5.0,41600.0
-0.34,0.2,0.83,-14.71,41624.0
-0.37,0.28,0.9,-19.47,41644.0
-0.4,0.26,0.9,-13.85,41664.0
-0.35,0.25,0.88,-16.3,41684.0
-0.31,0.23,0.88,-15.5,41703.0
-0.42,0.24,0.93,-6.23,41726.0
-0.42,0.18,0.9,-18.13,41747.0
-0.35,0.23,0.88,-26.06,41767.0
-0.33,0.19,0.85,-18.68,41787.0
-0.35,0.24,0.86,-15.2,41806.0
-0.34,0.24,0.85,-9.89,41824.0
-0.32,0.21,0.84,-6.53,41845.0
-0.36,0.2,0.87,-11.29,41863.0
-0.35,0.26,0.93,-22.4,41884.0
-0.36,0.27,0.92,-26.98,41902.0
-0.34,0.26,0.93,-29.54,41922.0
-0.3,0.22,0.92,-27.22,41941.0
-0.37,0.24,0.94,-27.4,41961.0
-0.33,0.28,0.93,-28.69,41980.0
-0.29,0.3,0.88,-26.43,42001.0
-0.31,0.34,0.87,-32.9,42021.0
-0.29,0.25,0.85,-8.91,42046.0
-0.36,0.25,0.83,4.33,42066.0
-0.38,0.26,0.83,-6.77,42086.0
-0.37,0.28,0.83,-23.56,42104.0
-0.28,0.29,0.85,-22.52,42124.0
-0.31,0.33,0.92,-17.94,42143.0
-0.4,0.31,0.96,-18.37,42163.0
-0.33,0.28,0.95,-17.76,42182.0
-0.3,0.26,0.95,-23.8,42202.0
-0.31,0.28,0.97,-28.75,42220.0
-0.33,0.26,0.97,-29.97,42241.0
-0.31,0.25,0.97,-28.2,42259.0
-0.29,0.26,0.95,-32.41,42278.0
-0.3,0.24,0.94,-24.6,42298.0
-0.28,0.21,0.93,-18.8,42316.0
-0.24,0.19,0.94,-20.08,42334.0
-0.26,0.19,1.01,-26.98,42355.0
-0.28,0.22,1.03,-23.99,42373.0
-0.31,0.28,1.05,-26.79,42393.0
-0.28,0.26,1.03,-21.06,42414.0
-0.27,0.21,0.99,-19.29,42434.0
-0.27,0.21,0.95,-20.87,42454.0
-0.27,0.2,0.92,-23.86,42472.0
-0.24,0.19,0.9,-19.35,42492.0
-0.26,0.21,0.91,-19.53,42510.0
-0.25,0.18,0.91,-20.26,42534.0
-0.24,0.22,0.96,-11.41,42555.0
-0.31,0.28,0.97,-15.5,42576.0
-0.31,0.24,0.95,-16.78,42597.0
-0.29,0.24,0.94,-15.93,42617.0
-0.28,0.25,0.92,-13.31,42641.0
-0.27,0.22,0.92,-14.16,42659.0
-0.24,0.15,0.9,-8.85,42679.0
-0.24,0.19,0.94,-12.02,42698.0
-0.21,0.18,0.96,-20.08,42716.0
-0.23,0.15,0.97,-14.77,42734.0
-0.25,0.12,0.94,-7.26,42754.0
-0.28,0.06,0.93,5.25,42773.0
-0.26,0.07,0.98,4.94,42793.0
-0.26,0.08,0.95,8.12,42814.0
-0.29,0.06,0.94,20.69,42834.0
-0.27,0.05,0.94,23.19,42857.0
-0.26,0.03,0.93,25.51,42875.0
-0.28,0.07,0.98,28.26,42896.0
-0.26,0.11,0.99,36.13,42916.0
-0.28,0.12,1.0,40.65,42935.0
-0.27,0.13,0.99,46.08,42954.0
-0.28,0.13,0.97,43.4,42972.0
-0.26,0.12,0.94,45.84,42994.0
-0.26,0.13,0.96,46.75,43013.0
-0.27,0.16,0.95,42.42,43031.0
-0.27,0.17,0.99,25.7,43050.0
-0.25,0.18,1.0,36.5,43069.0
-0.24,0.17,0.97,38.39,43087.0
-0.25,0.14,0.91,54.44,43109.0
-0.23,0.19,0.95,85.63,43129.0
-0.16,0.22,0.89,66.53,43149.0
-0.08,-0.03,0.94,87.4,43169.0
-0.09,0.28,0.88,105.1,43187.0
-0.21,0.16,0.94,41.93,43205.0
0.02,0.27,0.94,18.62,43225.0
0.03,0.36,0.96,22.89,43243.0
0.01,0.3,1.02,61.65,43263.0
-0.04,0.26,0.99,82.7,43281.0
-0.07,0.31,1.01,82.76,43299.0
-0.05,0.32,0.97,57.37,43317.0
-0.03,0.34,0.98,45.47,43337.0
-0.01,0.35,0.95,47.3,43357.0
-0.05,0.32,0.92,45.23,43375.0
-0.05,0.35,0.98,39.92,43395.0
-0.12,0.31,0.96,31.68,43418.0
-0.06,0.25,0.91,8.18,43438.0
-0.03,0.28,0.87,17.03,43456.0
-0.02,0.24,0.84,8.79,43474.0
0.01,0.25,0.88,-0.67,43495.0
-0.05,0.21,0.94,6.9,43515.0
-0.14,0.23,0.96,3.85,43535.0
-0.05,0.2,0.92,-1.95,43555.0
-0.09,0.23,0.98,-9.03,43573.0
-0.12,0.23,0.98,-18.92,43591.0
-0.07,0.24,1.0,-15.2,43612.0
-0.09,0.24,0.97,6.77,43634.0
-0.08,0.23,0.96,11.54,43654.0
-0.11,0.23,0.96,29.72,43674.0
-0.11,0.22,0.91,46.26,43694.0
-0.04,0.25,0.83,96.13,43712.0
-0.11,0.21,0.92,98.45,43732.0
-0.14,0.19,0.96,72.63,43752.0
-0.06,0.24,0.95,38.76,43772.0
-0.1,0.25,0.94,22.58,43793.0
-0.05,0.28,0.97,16.54,43813.0
0.03,0.25,0.98,21.42,43833.0
0.0,0.27,0.96,21.06,43850.0
0.02,0.17,0.87,16.3,43868.0
-0.03,0.31,0.94,-0.55,43889.0
0.05,0.29,0.89,-16.85,43907.0
0.04,0.26,1.02,-11.17,43928.0
0.08,0.24,1.0,3.11,43950.0
0.05,0.27,1.04,8.12,43968.0
0.03,0.3,1.02,0.0,43989.0
0.09,0.28,0.91,23.19,44008.0
0.03,0.25,1.01,40.41,44027.0
-0.01,0.22,1.04,-8.48,44049.0
0.03,0.14,1.03,-28.56,44069.0
0.13,0.1,1.01,-38.21,44088.0
0.02,0.17,1.0,-44.37,44108.0
0.05,0.18,1.03,-14.1,44130.0
-0.02,0.17,1.02,14.22,44151.0
0.0,0.2,0.95,23.07,44169.0
-0.01,0.09,0.86,5.13,44191.0
0.02,0.16,0.92,-20.14,44211.0
-0.01,0.23,0.96,-10.93,44234.0
-0.04,0.22,0.96,-28.38,44255.0
-0.01,0.24,0.96,-36.8,44275.0
-0.01,0.21,0.9,-34.3,44295.0
-0.01,0.32,0.91,-41.44,44316.0
-0.07,0.46,1.0,-53.41,44334.0
-0.35,0.07,0.42,23.19,44353.0
-0.48,0.48,1.2,-43.27,44371.0
-0.31,0.71,0.39,-212.77,44392.0
0.22,0.8,0.48,-445.13,44413.0
0.49,0.87,1.19,-365.72,44432.0
0.88,0.79,1.35,-99.91,44452.0
0.38,0.7,1.01,124.69,44470.0
0.01,0.6,0.44,133.24,44490.0
-0.12,0.49,0.37,-34.12,44509.0
0.21,0.57,0.84,-112.67,44529.0
0.29,0.6,1.12,-22.89,44551.0
0.13,0.59,0.94,48.16,44569.0
-0.04,0.57,0.78,9.89,44588.0
0.09,0.55,0.85,-69.82,44610.0
0.2,0.53,0.94,-19.17,44631.0
0.05,0.51,0.85,70.92,44651.0
-0.16,0.52,0.87,107.91,44669.0
-0.28,0.49,0.94,48.71,44688.0
-0.16,0.43,0.88,-42.91,44710.0
-0.03,0.42,0.87,-49.99,44729.0
-0.0,0.37,0.87,19.47,44750.0
-0.15,0.34,0.87,71.9,44769.0
-0.3,0.32,0.81,52.37,44787.0
-0.23,0.22,0.81,-30.76,44809.0
-0.13,0.22,0.91,-43.09,44828.0
-0.09,0.24,0.96,10.93,44847.0
-0.25,0.22,0.91,52.61,44867.0
-0.28,0.2,0.93,12.08,44886.0
-0.25,0.25,1.05,-47.18,44905.0
-0.24,0.21,1.05,-75.93,44923.0
-0.27,0.17,0.94,-92.41,44942.0
-0.24,0.14,0.84,-75.26,44962.0
-0.3,0.1,0.81,-56.27,44982.0
-0.2,0.18,0.83,1.28,45000.0
-0.32,0.22,0.98,68.24,45018.0
-0.52,0.25,1.12,64.09,45038.0
-0.52,0.09,1.17,24.66,45057.0
-0.46,0.18,1.13,-50.48,45076.0
-0.26,0.21,1.12,-24.96,45096.0
-0.37,-0.01,0.72,97.84,45118.0
-0.58,-0.12,0.42,29.54,45138.0
-0.5,-0.09,0.57,-105.47,45159.0
-0.15,0.0,1.04,-126.46,45179.0
-0.09,0.07,1.28,-80.51,45199.0
-0.13,0.07,1.19,-41.02,45219.0
-0.24,-0.08,1.08,6.96,45237.0
-0.2,-0.04,1.06,7.51,45257.0
-0.14,-0.05,0.86,-58.23,45277.0
-0.02,-0.07,0.69,-40.47,45297.0
-0.12,-0.02,0.77,30.15,45320.0
-0.17,0.07,0.97,2.38,45338.0
-0.05,0.15,1.25,-43.15,45358.0
0.06,0.17,1.36,5.74,45379.0
-0.11,0.12,0.95,125.85,45397.0
-0.36,0.1,0.58,146.24,45415.0
-0.48,0.15,0.56,60.0,45435.0
-0.32,0.25,0.96,-21.24,45456.0
-0.05,0.35,1.27,-24.84,45476.0
-0.02,0.36,1.24,61.46,45496.0
-0.17,0.36,1.01,130.68,45517.0
-0.34,0.31,0.86,121.58,45537.0
-0.38,0.29,0.86,61.04,45556.0
-0.3,0.24,0.82,16.66,45576.0
-0.13,0.26,0.83,-2.14,45594.0
-0.08,0.27,1.03,65.98,45613.0
-0.29,0.24,0.93,143.49,45635.0
-0.25,0.28,0.96,66.22,45656.0
-0.25,0.27,0.97,61.16,45675.0
-0.3,0.27,0.92,70.98,45695.0
-0.33,0.29,0.89,55.42,45713.0
-0.26,0.3,0.88,36.62,45731.0
-0.29,0.24,0.9,30.46,45749.0
-0.31,0.22,1.12,38.02,45770.0
-0.36,0.22,1.07,63.84,45789.0
-0.17,-0.45,0.88,33.69,45809.0
-0.17,0.11,0.73,16.42,45830.0
-0.24,0.12,0.76,17.09,45849.0
-0.16,0.07,0.91,58.11,45867.0
-0.14,0.13,1.05,79.65,45888.0
-0.13,0.13,1.22,117.13,45906.0
-0.29,0.08,1.12,104.31,45924.0
-0.25,0.06,1.04,47.97,45946.0
-0.2,0.06,0.98,30.21,45964.0
-0.2,0.07,0.95,13.98,45983.0
-0.21,0.06,0.93,10.13,46001.0
-0.2,0.07,0.94,8.0,46021.0
-0.12,0.11,0.99,13.98,46039.0
-0.14,0.12,0.97,20.08,46057.0
-0.1,0.14,1.0,-1.59,46079.0
-0.13,0.11,0.97,7.39,46099.0
-0.2,0.09,0.96,17.7,46119.0
-0.24,0.09,0.92,7.75,46141.0
-0.14,0.12,0.91,0.43,46160.0
-0.1,0.11,0.98,3.42,46182.0
-0.12,0.11,1.03,-4.27,46200.0
-0.09,0.1,1.01,-6.41,46218.0
-0.09,0.09,1.01,-8.12,46237.0
-0.13,0.04,1.0,-2.44,46258.0
-0.12,0.03,0.99,2.38,46279.0
-0.16,0.01,0.99,-9.58,46299.0
-0.09,-0.0,1.01,-2.81,46319.0
-0.06,0.02,1.08,3.48,46337.0
0.02,0.02,1.05,2.69,46355.0
0.02,-0.0,0.99,6.23,46373.0
-0.05,0.01,1.01,10.38,46395.0
0.01,-0.01,1.01,19.47,46413.0
-0.1,-0.04,1.01,31.98,46431.0
0.03,-0.03,0.96,29.66,46450.0
0.08,0.02,1.0,50.54,46469.0
0.06,0.03,0.96,68.97,46489.0
0.09,0.04,1.1,57.25,46511.0
0.06,-0.02,1.23,55.18,46529.0
0.11,-0.04,1.28,46.63,46553.0
0.15,-0.04,1.22,45.96,46571.0
0.18,-0.03,1.11,53.47,46592.0
0.1,0.01,0.99,64.76,46614.0
0.06,0.03,0.96,66.1,46633.0
0.05,0.06,0.99,89.48,46651.0
0.05,0.11,0.91,96.68,46670.0
0.07,0.14,0.79,109.86,46688.0
0.06,0.19,0.7,116.88,46708.0
0.1,0.21,0.7,113.04,46727.0
0.11,0.26,0.82,114.99,46747.0
0.11,0.21,0.91,101.81,46765.0
0.11,0.22,0.96,94.6,46786.0
0.07,0.23,1.02,85.39,46808.0
0.02,0.19,0.99,95.64,46828.0
-0.03,0.19,0.95,111.33,46846.0
-0.03,0.19,0.97,117.55,46867.0
-0.0,0.2,0.99,120.48,46886.0
0.07,0.2,0.95,123.6,46905.0
0.07,0.2,0.98,124.21,46922.0
0.07,0.19,1.0,114.01,46942.0
0.07,0.2,1.03,116.03,46963.0
0.05,0.25,1.0,119.38,46981.0
0.0,0.28,0.94,114.07,47003.0
0.06,0.33,0.91,106.87,47022.0
0.0,0.35,0.94,93.08,47043.0
-0.02,0.35,0.97,74.95,47062.0
-0.05,0.32,1.02,58.41,47082.0
0.01,0.27,1.11,42.72,47103.0
-0.02,0.24,1.22,36.44,47121.0
-0.1,0.19,1.24,9.58,47139.0
-0.16,0.14,1.17,11.05,47158.0
-0.21,0.12,1.03,29.91,47178.0
-0.17,0.14,0.93,49.01,47199.0
-0.16,0.18,0.89,40.47,47219.0
-0.16,0.2,0.91,27.34,47238.0
-0.18,0.19,0.9,18.25,47260.0
-0.21,0.17,0.88,10.31,47278.0
-0.21,0.18,0.89,11.29,47297.0
-0.14,0.22,0.93,-3.6,47317.0
-0.14,0.23,0.97,-14.53,47335.0
-0.12,0.23,1.01,-0.55,47354.0
-0.22,0.22,1.04,8.61,47376.0
-0.2,0.19,1.02,-0.12,47395.0
-0.1,0.2,1.05,-13.85,47415.0
-0.08,0.19,1.09,-14.59,47436.0
-0.06,0.19,1.05,-15.01,47454.0
-0.1,0.16,0.96,-14.1,47474.0
-0.12,0.14,0.92,-2.81,47492.0
-0.15,0.14,0.91,3.54,47511.0
-0.14,0.14,0.91,0.12,47531.0
-0.13,0.11,0.89,2.69,47551.0
-0.1,0.12,0.94,1.53,47572.0
-0.08,0.13,0.99,0.37,47591.0
-0.11,0.1,1.01,1.16,47615.0
-0.07,0.08,1.0,-5.13,47637.0
0.0,0.09,0.98,-0.12,47659.0
-0.04,0.09,0.99,3.85,47676.0
-0.03,0.1,0.99,0.12,47697.0
0.01,0.1,0.97,-3.54,47717.0
-0.05,0.06,0.95,-14.65,47736.0
-0.05,0.06,0.97,-23.19,47754.0
-0.1,0.06,0.98,-17.94,47774.0
-0.09,0.02,0.96,-22.16,47794.0
-0.07,0.01,0.98,-14.4,47814.0
-0.01,0.03,1.05,-8.06,47835.0
-0.05,0.06,1.1,0.31,47853.0
-0.1,0.16,1.1,8.61,47872.0
-0.03,0.22,0.97,11.54,47892.0
0.04,0.25,0.88,2.38,47912.0
0.07,0.27,0.85,-13.37,47931.0
0.03,0.24,0.87,-28.87,47949.0
-0.11,0.14,0.9,-8.54,47971.0
-0.06,0.12,0.92,-15.01,47990.0
-0.01,0.13,0.98,-22.95,48008.0
0.05,0.12,1.0,-34.73,48027.0
0.06,0.13,1.04,-45.59,48046.0
0.04,0.12,1.07,-52.12,48064.0
-0.01,0.07,1.06,-45.23,48082.0
-0.04,0.04,1.05,-38.51,48105.0
-0.02,0.07,1.07,-45.96,48127.0
0.03,0.08,1.08,-43.15,48146.0
0.02,0.09,1.08,-36.8,48166.0
-0.01,0.12,1.04,-38.82,48187.0
-0.09,0.14,1.02,-26.55,48207.0
-0.09,0.18,1.0,-27.59,48227.0
-0.08,0.22,1.0,-31.43,48246.0
-0.06,0.29,1.07,-31.56,48264.0
-0.09,0.34,1.15,-34.12,48283.0
-0.14,0.35,1.15,-40.95,48302.0
-0.14,0.38,1.1,-32.41,48323.0
-0.17,0.45,1.05,-36.8,48343.0
-0.17,0.41,0.94,-35.77,48364.0
-0.1,0.41,0.85,-36.19,48386.0
-0.07,0.4,0.9,-38.39,48404.0
-0.03,0.39,1.04,-43.15,48424.0
-0.07,0.38,1.11,-42.36,48445.0
-0.12,0.31,1.04,-29.97,48465.0
-0.15,0.25,0.93,-17.7,48485.0
-0.11,0.28,0.9,-8.06,48504.0
-0.02,0.32,0.86,-21.91,48525.0
0.0,0.33,0.93,-34.91,48544.0
-0.03,0.28,0.88,-34.18,48564.0
-0.02,0.33,0.92,-24.41,48582.0
0.05,0.36,0.99,7.2,48599.0
0.04,0.32,0.92,21.36,48617.0
0.02,0.31,0.86,7.57,48636.0
0.02,0.31,0.86,-11.6,48656.0
0.02,0.33,0.89,-23.32,48674.0
-0.05,0.29,0.93,-32.35,48693.0
-0.05,0.28,0.99,-27.89,48713.0
0.0,0.28,0.98,-26.06,48734.0
0.04,0.29,0.94,-32.71,48755.0
-0.03,0.25,0.87,-31.92,48773.0
-0.09,0.23,0.8,-31.68,48792.0
0.03,0.27,0.85,-37.9,48813.0
0.05,0.29,1.02,-39.67,48832.0
0.03,0.28,0.98,-33.87,48852.0
0.01,0.27,0.95,-19.04,48871.0
-0.03,0.25,0.88,-18.43,48891.0
0.03,0.26,0.89,-22.52,48909.0
0.0,0.26,0.98,-22.09,48927.0
-0.06,0.28,1.02,-18.07,48946.0
-0.09,0.26,0.96,-20.26,48965.0
-0.01,0.27,0.94,-21.06,48983.0
-0.03,0.28,0.93,-18.01,49004.0
-0.05,0.27,0.92,-17.76,49022.0
0.0,0.29,0.94,-14.53,49041.0
-0.04,0.26,0.96,-4.39,49059.0
-0.08,0.24,0.97,-5.49,49078.0
-0.03,0.25,0.96,-11.84,49098.0
-0.0,0.3,0.98,-11.29,49116.0
-0.02,0.29,0.98,-12.27,49136.0
-0.06,0.26,0.96,-5.92,49157.0
-0.06,0.26,0.92,-15.01,49180.0
-0.02,0.27,0.95,-13.37,49198.0
-0.06,0.25,0.91,-20.63,49218.0
-0.06,0.25,0.92,-29.36,49236.0
-0.03,0.27,0.98,-37.96,49258.0
-0.05,0.24,1.02,-36.62,49278.0
-0.07,0.25,1.02,-35.16,49298.0
-0.03,0.24,0.96,-42.91,49318.0
-0.01,0.26,0.94,-50.42,49337.0
-0.04,0.23,0.99,-55.05,49360.0
-0.05,0.21,0.99,-56.4,49378.0
0.04,0.29,1.11,-24.9,49399.0
0.02,0.23,1.05,-27.83,49420.0
-0.05,0.15,0.96,-36.13,49441.0
-0.07,0.15,0.91,-36.74,49461.0
-0.0,0.22,0.98,-52.06,49479.0
0.02,0.19,1.03,-71.66,49498.0
-0.05,0.1,0.98,-74.58,49518.0
-0.11,0.06,0.98,-53.89,49538.0
-0.05,0.06,0.92,-50.23,49560.0
-0.09,0.1,1.01,-62.38,49581.0
-0.03,0.08,0.99,-62.62,49600.0
-0.04,0.04,0.93,-51.7,49619.0
-0.07,0.06,0.92,-53.16,49638.0
-0.03,0.07,0.96,-61.16,49658.0
-0.06,0.03,0.95,-50.78,49676.0
-0.1,0.02,0.99,-23.93,49696.0
-0.16,0.03,0.96,-28.56,49715.0
-0.12,0.01,0.89,-47.36,49733.0
-0.05,0.04,0.9,-50.11,49753.0
-0.05,0.05,0.94,-56.34,49773.0
-0.04,0.01,1.0,-56.82,49795.0
-0.04,0.01,1.05,-45.47,49813.0
-0.07,0.01,1.03,-29.11,49832.0
-0.16,-0.03,0.99,-31.92,49852.0
-0.08,-0.03,0.95,-43.95,49872.0
-0.1,0.03,1.07,-43.58,49894.0
-0.12,0.0,1.09,-41.99,49913.0
-0.12,-0.01,1.07,-40.95,49932.0
-0.14,-0.0,1.0,-36.68,49953.0
-0.12,-0.0,1.0,-46.39,49971.0
-0.11,0.02,0.99,-39.37,49991.0
-0.09,0.04,1.01,-38.51,50011.0
-0.12,0.04,1.0,-37.72,50032.0
-0.17,0.01,0.98,-40.28,50050.0
-0.15,-0.02,0.95,-40.22,50069.0
-0.15,-0.03,0.98,-42.66,50088.0
-0.19,-0.03,1.04,-36.93,50110.0
-0.18,-0.01,1.1,-35.71,50129.0
-0.18,-0.04,1.02,-32.1,50147.0
-0.2,-0.04,1.0,-26.12,50169.0
-0.19,-0.05,0.99,-26.98,50188.0
-0.19,-0.05,1.06,-23.93,50206.0
-0.22,-0.08,1.04,-13.12,50226.0
-0.2,-0.09,0.99,-19.1,50247.0
-0.16,-0.05,0.98,-21.67,50266.0
-0.2,-0.08,1.02,-22.03,50287.0
-0.21,-0.09,1.01,-26.55,50307.0
-0.22,-0.05,1.04,-21.06,50331.0
-0.26,-0.05,1.04,-19.84,50352.0
-0.28,-0.07,0.97,-24.23,50374.0
-0.27,-0.05,0.96,-18.8,50394.0
-0.29,-0.04,0.97,-11.9,50415.0
-0.26,-0.03,0.93,-10.44,50433.0
-0.23,0.01,0.92,-13.49,50454.0
-0.23,0.01,0.91,-11.47,50478.0
-0.2,0.04,0.96,-10.19,50497.0
-0.23,-0.0,0.97,0.79,50516.0
-0.24,0.0,0.97,-4.09,50536.0
-0.21,0.01,0.97,-10.68,50556.0
-0.25,-0.01,0.99,-5.98,50576.0
-0.25,-0.02,0.99,-2.32,50594.0
-0.25,-0.01,0.98,-5.68,50613.0
-0.24,0.01,0.98,-3.23,50634.0
-0.25,-0.01,0.95,-5.8,50654.0
-0.27,-0.03,0.97,-5.8,50673.0
-0.27,-0.02,0.96,-2.44,50691.0
-0.25,0.01,0.95,0.0,50709.0
-0.26,-0.01,0.94,1.22,50732.0
-0.28,-0.02,0.96,-0.79,50751.0
-0.27,-0.01,0.95,-2.08,50772.0
-0.26,0.0,0.95,-2.56,50790.0
-0.27,-0.01,0.98,0.98,50811.0
-0.29,-0.03,0.98,-0.18,50831.0
-0.27,0.0,0.99,-2.26,50850.0
-0.25,0.01,0.98,2.26,50871.0
-0.26,0.0,0.97,1.28,50889.0
-0.25,0.01,1.0,0.92,50906.0
-0.27,0.01,0.99,6.77,50924.0
-0.27,0.0,0.97,1.28,50945.0
-0.26,0.01,0.97,4.7,50964.0
-0.25,0.02,0.97,4.64,50981.0
-0.28,0.02,0.98,2.01,51002.0
-0.27,0.02,0.97,1.53,51022.0
-0.28,0.0,0.97,5.25,51040.0
-0.27,0.02,0.96,6.84,51058.0
-0.26,0.02,0.96,4.58,51078.0
-0.27,0.02,0.98,3.91,51099.0
-0.28,0.01,0.97,3.17,51120.0
-0.28,0.01,0.97,5.0,51138.0
-0.28,0.01,0.96,3.54,51157.0
-0.27,0.02,0.97,2.38,51176.0
-0.28,0.0,0.97,3.6,51195.0
-0.3,-0.03,0.96,4.15,51214.0
-0.29,-0.02,0.98,2.44,51232.0
-0.27,-0.04,0.99,5.07,51253.0
-0.27,-0.06,0.98,6.71,51272.0
-0.29,-0.08,0.97,1.89,51291.0
-0.3,-0.09,1.01,2.26,51312.0
-0.33,-0.13,1.0,4.52,51333.0
-0.35,-0.16,1.0,4.21,51353.0
-0.33,-0.17,1.01,3.17,51373.0
-0.35,-0.18,1.04,3.91,51395.0
-0.37,-0.2,0.98,5.8,51415.0
-0.34,-0.17,0.98,4.15,51434.0
-0.33,-0.16,0.94,2.01,51452.0
-0.33,-0.16,0.92,5.49,51472.0
-0.34,-0.14,0.96,5.49,51491.0
-0.32,-0.14,0.96,3.48,51511.0
-0.3,-0.14,0.95,1.53,51530.0
-0.32,-0.14,0.92,7.26,51550.0
-0.32,-0.13,0.92,7.81,51569.0
-0.32,-0.16,0.93,10.99,51589.0
-0.37,-0.17,0.94,21.42,51612.0
-0.34,-0.13,0.95,13.92,51631.0
-0.32,-0.14,0.94,12.88,51652.0
-0.37,-0.17,0.92,18.25,51673.0
-0.35,-0.17,0.89,15.69,51693.0
-0.32,-0.14,0.85,11.9,51713.0
-0.31,-0.13,0.83,3.66,51734.0
-0.29,-0.11,0.86,-2.14,51755.0
-0.34,-0.14,0.92,1.16,51775.0
-0.4,-0.18,0.93,0.92,51796.0
-0.36,-0.15,0.94,7.51,51818.0
-0.37,-0.11,0.92,29.11,51838.0
-0.35,-0.14,0.86,37.05,51856.0
-0.41,-0.19,0.82,36.8,51876.0
-0.44,-0.18,0.82,26.79,51896.0
-0.39,-0.12,0.83,11.84,51917.0
-0.39,-0.11,0.9,10.38,51937.0
-0.49,-0.16,0.88,10.56,51957.0
-0.46,-0.15,0.85,7.2,51978.0
-0.44,-0.16,0.83,10.93,51996.0
-0.43,-0.17,0.83,6.9,52014.0
-0.43,-0.18,0.86,3.72,52033.0
-0.52,-0.21,0.9,10.31,52052.0
-0.56,-0.23,0.9,9.52,52072.0
-0.5,-0.2,0.9,12.27,52090.0
-0.51,-0.21,0.86,16.48,52110.0
-0.52,-0.2,0.85,13.18,52131.0
-0.51,-0.2,0.88,14.04,52152.0
-0.53,-0.17,0.89,14.16,52172.0
-0.52,-0.16,0.89,18.19,52190.0
-0.49,-0.17,0.89,15.81,52213.0
-0.54,-0.16,0.92,22.89,52232.0
-0.51,-0.13,0.91,13.37,52252.0
-0.45,-0.08,0.95,11.05,52272.0
-0.49,-0.12,0.95,4.7,52291.0
-0.49,-0.11,0.95,7.45,52314.0
-0.46,-0.09,0.92,0.0,52335.0
-0.43,-0.09,0.91,4.7,52354.0
-0.48,-0.15,0.82,-6.77,52374.0
-0.41,-0.07,0.86,-10.8,52393.0
-0.46,-0.07,0.92,-0.67,52412.0
-0.51,-0.11,0.99,-3.85,52431.0
-0.53,-0.14,1.01,4.09,52451.0
-0.52,-0.05,1.08,19.1,52471.0
-0.57,0.0,1.18,15.08,52488.0
-0.56,-0.03,1.22,15.99,52510.0
-0.6,-0.1,1.21,7.45,52532.0
-0.53,-0.08,1.24,-12.88,52551.0
-0.52,-0.03,1.39,-22.03,52571.0
-0.54,-0.07,1.44,-10.5,52590.0
-0.57,-0.1,1.34,-2.69,52610.0
-0.37,0.02,1.23,-5.55,52630.0
-0.28,0.13,1.14,21.79,52649.0
-0.19,0.18,1.0,16.66,52669.0
-0.33,0.04,0.88,5.55,52689.0
-0.44,-0.05,0.75,28.38,52711.0
-0.44,0.06,0.72,20.14,52730.0
-0.29,0.15,0.73,-22.4,52751.0
-0.2,0.13,0.76,-34.24,52770.0
-0.22,0.09,0.76,-9.77,52791.0
-0.3,0.07,0.88,3.91,52810.0
-0.38,-0.01,0.84,6.84,52830.0
-0.41,-0.03,0.81,-2.62,52850.0
-0.31,-0.01,0.82,-28.75,52874.0
-0.23,0.03,0.8,-26.55,52896.0
-0.19,0.02,0.85,-37.6,52915.0
-0.24,-0.02,0.99,-41.08,52937.0
-0.29,-0.05,1.0,-39.06,52956.0
-0.33,-0.09,0.92,-40.04,52976.0
-0.32,-0.09,0.88,-40.22,52996.0
-0.36,-0.06,0.85,-25.39,53016.0
-0.35,-0.09,0.84,-34.79,53039.0
-0.38,-0.1,0.95,-22.83,53062.0
-0.37,-0.06,0.96,-7.81,53084.0
-0.32,-0.01,0.91,-2.2,53106.0
-0.32,-0.07,0.89,-7.69,53124.0
-0.32,-0.06,0.88,0.61,53147.0
-0.34,-0.02,0.86,2.14,53165.0
-0.28,-0.02,0.86,-3.72,53186.0
-0.27,-0.05,0.89,-5.49,53205.0
-0.27,-0.08,0.9,0.18,53223.0
-0.24,-0.05,0.88,7.93,53241.0
-0.2,-0.03,0.86,5.25,53260.0
-0.19,-0.06,0.92,-2.69,53280.0
-0.22,-0.07,0.95,-3.3,53300.0
-0.23,-0.06,0.9,-2.87,53318.0
-0.26,-0.07,0.84,-1.4,53337.0
-0.24,-0.04,0.87,2.62,53359.0
-0.28,0.01,0.92,4.88,53379.0
-0.29,-0.05,0.92,2.56,53399.0
-0.32,-0.1,0.95,5.92,53418.0
-0.31,-0.09,0.97,6.47,53438.0
-0.23,-0.08,0.98,7.32,53458.0
-0.2,-0.06,1.01,7.93,53478.0
-0.16,0.0,0.94,0.92,53496.0
-0.18,0.02,0.86,-3.97,53515.0
-0.22,-0.05,0.77,-9.22,53535.0
-0.26,-0.09,0.86,-3.11,53559.0
-0.2,-0.09,0.89,-11.23,53578.0
-0.12,-0.09,0.87,-21.12,53596.0
-0.01,-0.01,0.83,-18.25,53618.0
-0.03,0.09,0.83,-4.09,53636.0
-0.14,0.07,0.72,-9.46,53655.0
-0.18,-0.03,0.61,-21.48,53674.0
-0.2,-0.07,0.61,-12.02,53692.0
-0.22,0.01,0.68,-1.77,53710.0
-0.16,0.08,0.71,-6.53,53728.0
-0.1,0.08,0.68,-10.31,53748.0
-0.06,0.07,0.71,-21.12,53769.0
-0.05,0.15,0.77,-10.99,53789.0
-0.11,0.18,0.75,-6.53,53808.0
-0.09,0.11,0.66,-15.14,53826.0
-0.16,0.02,0.81,-0.37,53846.0
-0.18,0.09,0.96,0.37,53865.0
-0.14,0.25,1.18,-8.79,53883.0
-0.05,0.3,1.17,-11.84,53901.0
-0.02,0.2,0.94,-25.02,53922.0
-0.21,0.16,0.88,-22.22,53942.0
-0.28,0.27,0.94,-19.59,53963.0
-0.3,0.27,0.94,-26.79,53981.0
-0.23,0.3,0.97,-19.29,53999.0
-0.2,0.28,0.94,-24.66,54018.0
-0.24,0.22,0.82,-18.62,54040.0
-0.26,0.22,0.83,-6.9,54061.0
-0.32,0.18,0.83,16.05,54080.0
-0.37,0.09,0.69,42.54,54101.0
-0.27,-0.03,0.74,48.03,54122.0
-0.19,-0.01,0.97,53.28,54142.0
-0.1,0.1,1.25,49.26,54161.0
-0.02,0.04,1.2,62.38,54180.0
-0.02,-0.02,1.04,91.13,54199.0
-0.14,-0.09,0.95,115.54,54219.0
-0.08,-0.05,0.89,126.77,54239.0
0.03,0.07,0.97,107.06,54261.0
0.26,0.04,0.94,92.96,54280.0
0.38,0.13,1.19,104.37,54303.0
0.19,0.15,1.37,114.01,54323.0
0.21,0.13,1.3,92.22,54342.0
0.4,0.22,1.42,68.85,54361.0
0.65,0.45,1.57,70.86,54382.0
0.48,0.4,1.54,43.03,54401.0
0.24,0.09,1.27,4.33,54422.0
0.04,-0.06,1.09,4.03,54439.0
-0.05,-0.14,1.04,12.33,54461.0
-0.01,-0.08,1.05,44.86,54479.0
-0.07,-0.11,0.9,60.55,54500.0
0.06,-0.06,0.79,70.74,54520.0
0.27,0.08,0.9,31.8,54539.0
0.56,0.17,1.09,-0.31,54559.0
0.48,0.23,1.39,21.79,54579.0
0.24,0.1,1.29,13.06,54597.0
0.19,-0.04,1.02,17.09,54616.0
0.43,0.05,1.03,13.73,54638.0
0.48,0.17,1.22,6.71,54660.0
0.37,0.13,1.26,-11.47,54678.0
0.24,0.01,1.08,-13.12,54700.0
0.21,-0.19,0.72,-5.98,54723.0
0.3,-0.19,0.68,7.26,54745.0
0.28,-0.09,0.94,7.57,54765.0
0.27,-0.07,1.03,-13.24,54783.0
0.29,-0.06,1.08,-27.4,54805.0
0.26,-0.1,1.04,-9.28,54825.0
0.24,-0.13,1.0,-1.65,54844.0
0.23,-0.12,1.02,-6.71,54866.0
0.22,-0.13,1.04,-19.78,54885.0
0.22,-0.14,1.06,-23.86,54904.0
0.2,-0.11,1.17,-7.93,54922.0
0.15,-0.1,1.17,1.4,54940.0
0.16,-0.09,1.09,-1.59,54961.0
0.18,-0.07,1.03,-1.1,54981.0
0.16,-0.07,0.96,0.06,55000.0
0.14,-0.06,0.92,-1.34,55022.0
0.12,-0.04,0.9,-5.43,55042.0
0.15,-0.01,0.92,-14.22,55063.0
0.19,0.02,0.94,-13.73,55085.0
0.22,0.04,0.94,-2.69,55105.0
0.15,0.0,0.91,-3.05,55126.0
0.1,-0.03,0.86,-12.27,55146.0
0.16,-0.1,0.73,-19.78,55165.0
0.24,-0.04,0.87,-33.26,55185.0
0.25,-0.01,1.0,-38.64,55204.0
0.21,-0.06,1.05,-36.87,55225.0
0.17,-0.13,0.98,-28.32,55243.0
0.2,-0.21,0.87,-23.62,55262.0
0.21,-0.21,0.94,-30.7,55280.0
0.26,-0.12,1.11,-53.34,55299.0
0.26,-0.13,1.17,-61.71,55319.0
0.17,-0.1,1.15,-17.94,55342.0
0.23,-0.22,1.09,-19.04,55360.0
0.22,-0.2,1.04,-17.09,55381.0
0.24,-0.17,1.04,-20.87,55401.0
0.28,-0.13,1.04,-32.29,55421.0
0.26,-0.15,1.02,-35.77,55443.0
0.23,-0.16,1.0,-36.5,55463.0
0.29,-0.11,1.03,-31.01,55481.0
0.31,-0.07,1.07,-45.53,55503.0
0.33,-0.04,1.09,-55.11,55522.0
0.29,-0.05,1.03,-57.62,55541.0
0.27,-0.05,0.95,-56.7,55560.0
0.21,-0.07,0.9,-52.8,55579.0
0.21,-0.06,0.88,-52.37,55596.0
0.24,-0.04,0.85,-50.9,55616.0
0.28,-0.02,0.9,-47.91,55636.0
0.26,0.0,0.98,-44.98,55656.0
0.19,-0.03,1.0,-44.98,55675.0
0.22,0.0,1.04,-43.7,55697.0
0.22,-0.0,0.98,-42.48,55715.0
0.25,0.01,0.96,-49.74,55733.0
0.22,-0.0,0.97,-49.26,55753.0
0.17,-0.0,1.0,-48.65,55771.0
0.18,0.02,1.08,-50.48,55793.0
0.13,0.04,1.14,-40.95,55814.0
0.06,0.06,1.17,-42.79,55835.0
0.12,0.14,1.15,-44.37,55855.0
0.08,0.22,1.16,-26.12,55873.0
0.08,0.25,1.12,-28.87,55895.0
0.04,0.3,1.09,-42.05,55914.0
0.06,0.35,1.11,-59.75,55932.0
0.06,0.39,1.12,-74.46,55951.0
0.05,0.36,1.11,-79.53,55969.0
-0.03,0.32,1.05,-71.11,55989.0
-0.06,0.28,1.03,-67.99,56008.0
-0.05,0.3,1.06,-55.97,56026.0
-0.06,0.28,1.02,-62.38,56046.0
-0.09,0.23,0.92,-62.19,56065.0
-0.06,0.18,0.8,-54.99,56084.0
-0.03,0.19,0.76,-54.02,56102.0
-0.03,0.16,0.75,-86.73,56122.0
-0.02,0.12,0.8,-94.36,56142.0
-0.14,0.13,0.95,-78.12,56163.0
-0.18,0.07,1.0,-56.82,56181.0
-0.19,0.05,1.0,-42.79,56200.0
-0.15,0.11,1.02,-28.69,56220.0
-0.01,0.15,1.05,-45.59,56239.0
0.05,0.11,1.06,-63.48,56257.0
-0.02,0.06,1.07,-54.63,56276.0
-0.01,0.04,1.06,-46.94,56296.0
0.03,0.03,1.09,-52.61,56318.0
0.06,-0.02,1.03,-46.08,56336.0
0.02,-0.04,1.04,-42.54,56356.0
-0.03,-0.05,1.04,-38.7,56376.0
-0.11,-0.12,0.95,-23.19,56396.0
-0.16,-0.15,0.81,-1.4,56416.0
-0.17,-0.14,0.78,-7.87,56435.0
-0.09,-0.13,0.79,-13.37,56453.0
-0.08,-0.14,0.83,-8.18,56474.0
-0.12,-0.11,0.87,-1.83,56492.0
-0.09,-0.07,0.89,-0.85,56512.0
-0.02,-0.08,0.91,4.27,56532.0
-0.01,-0.11,0.95,0.55,56552.0
-0.01,-0.08,1.05,-5.19,56570.0
-0.01,-0.04,1.13,-2.81,56588.0
-0.05,-0.02,1.04,6.9,56608.0
-0.07,-0.09,0.87,8.12,56630.0
-0.06,-0.11,0.81,6.35,56649.0
-0.08,-0.05,0.89,5.86,56672.0
-0.03,-0.04,0.98,0.37,56692.0
-0.04,-0.06,1.05,2.14,56711.0
-0.08,-0.07,1.05,8.67,56730.0
-0.04,-0.02,1.07,4.7,56750.0
-0.04,-0.03,1.07,7.02,56768.0
-0.09,-0.04,1.07,7.81,56786.0
-0.09,-0.04,1.09,7.08,56804.0
-0.09,-0.04,1.18,-0.98,56823.0
-0.09,-0.09,1.18,1.89,56846.0
-0.12,-0.15,1.16,7.69,56864.0
-0.13,-0.16,1.23,17.88,56883.0
-0.15,-0.21,1.18,26.37,56902.0
-0.14,-0.25,1.12,31.68,56921.0
-0.08,-0.27,1.12,36.07,56942.0
-0.13,-0.24,1.23,40.77,56961.0
-0.14,-0.3,1.17,49.38,56982.0
-0.17,-0.32,1.14,55.42,57000.0
-0.21,-0.27,1.04,59.39,57019.0
-0.19,-0.26,0.96,61.04,57042.0
-0.15,-0.3,0.93,58.9,57061.0
-0.17,-0.26,1.02,72.14,57080.0
-0.14,-0.16,1.11,61.04,57100.0
-0.1,-0.11,1.1,62.56,57118.0
-0.09,-0.06,1.06,70.62,57140.0
-0.11,0.02,1.09,72.02,57158.0
-0.15,0.01,1.06,75.68,57178.0
-0.18,-0.01,0.97,78.49,57198.0
-0.13,0.1,0.98,72.51,57219.0
-0.13,0.24,1.04,72.81,57238.0
-0.09,0.3,1.02,73.3,57257.0
-0.19,0.23,0.88,73.61,57277.0
-0.19,0.2,0.76,58.96,57296.0
-0.2,0.2,0.69,50.05,57314.0
-0.25,0.17,0.59,40.22,57335.0
-0.29,0.11,0.53,39.31,57355.0
-0.33,0.1,0.53,50.48,57375.0
-0.3,0.08,0.45,36.87,57393.0
-0.28,0.01,0.38,24.96,57411.0
-0.3,0.02,0.43,26.25,57429.0
-0.23,0.13,0.68,23.01,57448.0
-0.23,0.18,0.8,15.14,57466.0
-0.3,0.12,0.73,-2.87,57485.0
-0.25,0.13,0.74,-10.56,57508.0
-0.13,0.27,1.12,-5.92,57527.0
-0.29,0.23,1.27,11.6,57549.0
-0.32,0.19,1.2,19.9,57569.0
-0.33,0.21,1.18,19.59,57589.0
-0.26,0.29,1.21,7.2,57607.0
-0.17,0.79,2.04,22.46,57625.0
-0.19,0.42,2.1,22.83,57647.0
-0.57,-0.13,0.84,-86.85,57666.0
-0.48,-0.25,0.21,-67.2,57685.0
-0.37,-0.11,0.3,0.85,57706.0
-0.18,-0.0,0.33,-9.22,57725.0
-0.07,0.1,0.81,-7.26,57744.0
-0.33,0.12,1.34,-23.93,57764.0
-0.34,0.17,1.39,-52.49,57785.0
-0.3,0.06,0.91,-53.96,57809.0
-0.44,-0.17,0.64,-38.39,57829.0
-0.54,-0.25,0.6,6.59,57850.0
-0.48,-0.19,0.73,3.48,57870.0
-0.47,-0.05,1.27,-11.6,57890.0
-0.35,0.05,1.33,-26.31,57908.0
-0.34,0.01,1.1,-46.08,57926.0
-0.36,-0.09,0.84,-38.02,57945.0
-0.39,-0.14,0.69,-24.48,57964.0
-0.33,-0.09,0.69,-26.43,57982.0
-0.21,0.07,1.07,-12.39,58003.0
-0.26,0.09,1.33,-33.69,58021.0
-0.29,0.02,1.26,-44.56,58041.0
-0.32,-0.06,1.0,-35.46,58061.0
-0.29,-0.04,0.89,-30.33,58079.0
-0.26,0.01,0.88,-20.63,58099.0
-0.29,-0.04,0.91,-26.06,58119.0
-0.26,-0.02,1.04,-21.61,58137.0
-0.26,0.08,1.18,-22.28,58158.0
-0.24,0.04,1.02,-39.18,58179.0
-0.19,-0.04,0.87,-31.8,58198.0
-0.28,-0.04,0.99,-28.44,58218.0
-0.3,-0.03,1.06,-29.42,58238.0
-0.3,0.01,1.06,-22.28,58258.0
-0.26,0.01,0.97,-18.92,58277.0
-0.23,0.02,0.91,-16.78,58297.0
-0.18,0.04,0.95,-27.71,58316.0
-0.14,0.03,0.93,-51.94,58336.0
-0.12,0.01,0.93,-68.85,58354.0
-0.16,-0.16,0.82,-34.55,58376.0
-0.23,-0.22,0.82,-1.83,58394.0
-0.33,-0.27,0.85,-11.9,58416.0
-0.27,-0.18,0.92,14.28,58437.0
-0.33,-0.19,0.87,35.58,58457.0
-0.21,-0.18,0.78,37.54,58475.0
-0.19,-0.05,0.87,50.6,58494.0
-0.27,0.04,0.98,41.63,58515.0
-0.22,-0.0,0.95,31.07,58537.0
-0.22,-0.08,1.02,46.63,58559.0
-0.27,-0.12,0.99,73.0,58580.0
-0.23,-0.07,0.94,71.72,58600.0
-0.12,0.05,0.86,60.0,58620.0
-0.02,0.08,0.79,57.25,58640.0
-0.01,0.08,0.68,47.55,58658.0
-0.01,0.15,0.78,53.83,58680.0
-0.21,-0.06,1.27,62.93,58701.0
0.55,1.88,3.23,140.56,58720.0
0.26,0.32,1.51,117.49,58739.0
-0.11,0.3,1.13,59.57,58757.0
0.07,0.19,1.04,-19.78,58778.0
0.04,0.24,1.0,-9.64,58797.0
-0.02,0.07,1.02,-6.77,58815.0
-0.05,0.09,1.02,-49.07,58836.0
0.02,0.02,0.99,-37.66,58855.0
0.05,0.02,1.02,-16.85,58874.0
0.02,0.05,1.02,2.01,58894.0
-0.03,0.07,1.02,-3.11,58912.0
-0.03,0.07,1.0,-9.46,58933.0
-0.02,0.08,1.0,-7.08,58951.0
0.01,0.12,1.01,-4.39,58969.0
-0.0,0.12,1.0,-5.13,58989.0
-0.04,0.1,0.99,1.53,59008.0
-0.09,0.08,0.97,0.0,59026.0
0.04,0.1,1.06,-0.37,59046.0
-0.06,0.09,0.98,-5.86,59066.0
-0.06,0.08,0.98,-5.13,59086.0
-0.06,0.07,0.97,-19.1,59106.0
-0.06,0.04,1.0,-34.24,59125.0
0.07,0.11,0.97,-42.54,59147.0
0.01,0.07,0.96,-41.99,59165.0
0.04,0.07,1.0,-46.39,59188.0
0.02,-0.04,1.02,-45.17,59206.0
0.02,0.0,1.01,-24.11,59226.0
0.02,0.15,1.24,-19.04,59245.0
0.02,0.07,0.94,-25.15,59266.0
-0.05,0.12,1.02,-16.48,59289.0
0.07,0.2,0.98,-10.31,59309.0
0.01,0.15,0.98,2.69,59329.0
-0.07,0.15,1.02,7.87,59347.0
-0.07,0.14,0.97,21.85,59365.0
-0.08,0.16,1.0,20.81,59384.0
-0.0,0.11,0.92,4.46,59408.0
-0.03,0.06,0.94,-1.4,59426.0
-0.07,0.15,1.03,20.26,59447.0
-0.09,0.09,1.07,35.22,59465.0
0.05,0.14,0.98,32.29,59486.0
-0.01,0.24,1.04,30.94,59505.0
-0.07,0.24,1.06,22.4,59525.0
-0.08,0.1,1.01,12.57,59543.0
-0.08,0.12,0.96,10.8,59563.0
-0.13,0.18,1.06,11.35,59584.0
-0.05,0.13,1.01,16.6,59605.0
-0.03,0.18,0.98,17.7,59623.0
-0.03,0.15,1.08,16.17,59644.0
-0.05,0.1,0.9,9.7,59662.0
-0.05,0.04,0.9,3.66,59683.0
-0.02,0.15,0.98,2.44,59703.0
-0.01,0.13,1.03,5.8,59723.0
0.01,0.12,0.93,10.5,59743.0
-0.08,0.08,1.04,18.01,59763.0
-0.06,0.16,1.08,19.65,59785.0
0.04,0.07,0.92,13.85,59806.0
-0.07,0.23,1.07,13.43,59824.0
-0.06,0.19,0.98,7.26,59845.0
-0.06,0.12,1.07,3.6,59865.0
-0.07,0.08,0.98,14.04,59884.0
-0.05,0.13,0.97,15.01,59905.0
-0.0,0.07,0.99,13.55,59925.0
-0.04,0.17,0.98,8.42,59946.0
0.01,0.16,0.92,6.1,59965.0
-0.1,0.22,1.01,9.83,59983.0
-0.1,0.27,1.12,0.61,60004.0
-0.06,0.23,1.07,1.59,60023.0
-0.02,0.15,1.0,-0.06,60043.0
-0.06,0.09,1.02,0.49,60064.0
-0.06,0.14,0.97,0.49,60082.0
-0.04,0.12,0.95,4.7,60102.0
-0.05,0.24,1.01,7.75,60121.0
-0.08,0.14,0.96,12.33,60140.0
-0.04,0.17,0.93,3.97,60160.0
-0.07,0.08,1.06,0.43,60180.0
-0.04,0.09,1.07,3.36,60202.0
-0.11,0.02,0.94,20.75,60222.0
-0.04,0.17,1.04,25.88,60241.0
0.02,0.17,1.07,15.69,60262.0
-0.03,0.04,0.98,12.39,60280.0
-0.14,0.14,0.99,13.92,60301.0
-0.03,0.08,0.95,12.94,60323.0
0.01,0.13,1.05,12.82,60341.0
-0.07,0.18,1.07,21.18,60363.0
-0.11,0.23,1.11,18.37,60383.0
-0.05,0.27,1.07,11.35,60401.0
-0.06,0.27,1.1,10.01,60424.0
-0.05,0.21,0.95,6.65,60443.0
-0.01,0.23,0.83,-2.01,60465.0
-0.04,0.34,0.92,-7.51,60483.0
-0.1,0.31,0.94,-9.58,60502.0
-0.08,0.37,0.96,-10.86,60521.0
-0.09,0.22,0.97,-2.5,60542.0
-0.11,0.23,0.97,-26.86,60565.0
-0.09,0.19,0.99,-33.94,60586.0
-0.11,0.24,0.93,-28.63,60607.0
-0.08,0.25,0.98,-16.97,60628.0
-0.14,0.27,1.02,-18.43,60647.0
-0.1,0.27,0.92,-5.0,60667.0
-0.11,0.34,0.9,14.95,60686.0
-0.15,0.37,0.91,13.73,60705.0
-0.06,0.37,0.81,-7.87,60725.0
-0.05,0.37,1.05,-18.43,60744.0
0.04,0.43,0.83,-23.62,60764.0
-0.1,0.24,0.99,-20.14,60783.0
-0.14,0.23,1.08,-23.68,60801.0
-0.09,0.25,0.89,-17.27,60823.0
-0.07,0.33,0.95,-25.82,60841.0
-0.12,0.4,0.99,-29.48,60860.0
-0.12,0.36,1.01,-34.79,60879.0
-0.12,0.29,1.01,-58.59,60897.0
-0.2,0.17,0.97,-58.41,60917.0
-0.1,0.23,0.96,-72.27,60937.0
-0.12,0.18,0.98,-60.18,60958.0
-0.08,0.11,0.99,-62.68,60977.0
-0.12,0.02,0.98,-52.37,60996.0
-0.01,0.17,0.99,-44.25,61018.0
0.1,0.29,0.97,-38.7,61039.0
-0.05,0.21,0.97,-40.89,61060.0
-0.05,0.18,1.02,-50.35,61079.0
0.04,0.2,0.97,-56.15,61101.0
0.13,0.09,1.0,-53.28,61121.0
-0.07,0.2,0.97,-56.15,61143.0
-0.06,0.11,0.94,-63.17,61164.0
-0.08,0.11,1.02,-73.3,61184.0
0.05,0.18,1.0,-69.21,61202.0
-0.03,0.09,1.05,-49.5,61221.0
-0.06,0.05,1.0,-44.86,61241.0
-0.03,0.09,0.96,-50.78,61260.0
-0.06,0.07,1.07,-43.33,61280.0
-0.06,0.1,0.95,-44.37,61301.0
-0.09,0.08,0.93,-38.64,61319.0
-0.08,0.12,0.91,-31.92,61340.0
-0.03,0.09,1.05,-39.18,61358.0
-0.06,0.1,1.08,-39.31,61378.0
0.02,0.17,1.01,-18.86,61400.0
-0.08,0.12,0.97,-15.81,61419.0
-0.07,0.08,1.01,-20.87,61444.0
-0.03,0.08,1.02,-20.81,61465.0
0.02,0.07,0.95,-16.48,61483.0
-0.02,0.09,1.13,-13.24,61502.0
-0.02,0.14,1.05,-9.46,61522.0
-0.05,0.13,0.97,-10.13,61542.0
-0.05,0.09,1.06,-12.08,61562.0
-0.04,0.14,1.03,-12.7,61583.0
-0.05,0.13,1.0,-12.45,61602.0
-0.08,0.09,0.9,-9.95,61621.0
-0.04,0.13,0.95,-3.85,61640.0
-0.08,0.13,0.98,10.5,61660.0
-0.09,0.11,0.95,2.5,61679.0
-0.0,0.11,0.98,-4.46,61700.0
-0.03,0.11,1.02,0.61,61718.0
-0.08,0.11,1.02,-0.24,61739.0
-0.04,0.1,0.97,8.24,61758.0
-0.07,0.13,1.04,1.95,61777.0
-0.06,0.1,0.95,3.66,61800.0
-0.0,0.06,1.2,6.65,61818.0
0.01,0.14,1.08,4.15,61836.0
-0.02,0.1,1.07,6.29,61855.0
-0.1,0.12,1.01,5.37,61874.0
-0.01,0.16,0.98,6.96,61891.0
-0.04,0.2,1.0,4.39,61912.0
-0.02,0.17,0.99,9.64,61931.0
-0.08,0.24,0.91,8.24,61951.0
-0.06,0.12,1.01,5.55,61969.0
-0.1,0.17,1.01,9.4,61987.0
-0.03,0.14,1.01,0.12,62006.0
-0.07,0.2,0.91,-0.31,62024.0
-0.04,0.13,1.0,-2.87,62045.0
-0.05,0.14,0.99,4.39,62065.0
-0.04,0.13,1.01,7.14,62083.0
-0.09,0.18,0.98,5.25,62100.0
-0.01,0.14,1.04,-4.94,62120.0
-0.06,0.15,0.99,1.59,62138.0
-0.07,0.15,0.99,5.74,62156.0
-0.1,0.17,1.01,10.68,62175.0
-0.04,0.13,0.98,7.87,62195.0
-0.0,0.16,0.97,3.11,62214.0
-0.02,0.14,1.0,-4.94,62238.0
-0.03,0.13,1.01,0.12,62260.0
-0.03,0.15,1.0,-0.79,62277.0
-0.04,0.14,0.98,1.53,62295.0
-0.05,0.14,0.99,-1.53,62315.0
-0.05,0.16,0.99,-1.34,62333.0
-0.05,0.17,0.99,-2.81,62354.0
-0.04,0.15,0.98,-4.94,62374.0
-0.06,0.18,0.99,-5.98,62392.0
-0.04,0.16,0.98,-1.22,62416.0
-0.05,0.16,0.99,-0.24,62435.0
-0.04,0.16,0.99,-0.06,62456.0
-0.05,0.16,0.98,1.53,62478.0
-0.05,0.16,0.99,2.81,62496.0
-0.05,0.16,0.98,2.08,62516.0
-0.04,0.16,0.99,1.53,62535.0
-0.05,0.16,0.99,2.38,62560.0
-0.05,0.15,0.99,3.48,62579.0
-0.07,0.21,1.0,8.36,62596.0
-0.05,0.15,0.99,9.22,62618.0
-0.05,0.15,0.99,10.13,62636.0
-0.06,0.15,0.99,11.17,62656.0
-0.06,0.15,0.99,11.47,62675.0
-0.05,0.16,0.98,10.38,62694.0
0.02,0.14,0.99,0.12,62715.0
-0.05,0.15,0.99,0.79,62734.0
-0.06,0.16,0.98,-0.06,62754.0
-0.06,0.16,0.98,-0.55,62773.0
-0.06,0.16,0.99,0.0,62791.0
-0.06,0.16,0.99,-0.12,62809.0
-0.06,0.15,0.99,0.49,62827.0
-0.06,0.16,0.99,2.08,62846.0
-0.13,0.31,1.02,6.9,62867.0
-0.15,0.23,1.07,4.21,62888.0
-0.05,0.18,1.01,4.15,62907.0
-0.07,0.17,0.98,2.62,62926.0
-0.06,0.16,0.99,-0.73,62944.0
-0.07,0.17,0.98,2.99,62964.0
-0.04,0.16,1.0,1.65,62983.0
-0.05,0.16,0.99,3.17,63002.0
-0.05,0.16,1.0,1.4,63022.0
-0.04,0.15,0.99,-0.61,63044.0
-0.05,0.15,0.98,-0.31,63063.0
-0.06,0.15,0.99,-0.61,63082.0
-0.05,0.15,0.99,0.31,63102.0
-0.05,0.16,0.99,0.67,63120.0
-0.05,0.16,0.98,0.55,63139.0
-0.06,0.16,0.98,0.06,63158.0
-0.06,0.16,0.99,-0.18,63180.0
-0.06,0.16,0.99,0.37,63198.0
-0.05,0.16,0.98,0.49,63218.0
-0.05,0.16,0.98,0.24,63235.0
-0.06,0.16,0.99,0.98,63253.0
-0.05,0.16,0.99,0.92,63271.0
-0.05,0.16,0.99,0.92,63291.0
-0.05,0.16,0.99,1.16,63309.0
-0.05,0.16,0.99,1.1,63331.0
-0.05,0.17,0.99,1.59,63349.0
-0.05,0.17,0.99,1.28,63368.0
-0.05,0.16,0.98,0.61,63388.0
-0.04,0.16,0.99,0.98,63407.0
-0.05,0.17,0.98,1.4,63426.0
-0.05,0.16,0.98,1.16,63444.0
-0.05,0.17,0.99,1.1,63462.0
-0.05,0.17,0.99,0.98,63483.0
-0.05,0.17,0.98,1.16,63500.0
-0.04,0.17,0.99,1.34,63518.0
-0.04,0.17,0.99,1.22,63539.0
-0.04,0.17,0.98,1.59,63559.0
-0.04,0.17,0.98,1.53,63576.0
-0.04,0.17,0.98,1.22,63597.0
-0.04,0.17,0.98,0.73,63617.0
-0.04,0.17,0.99,0.37,63642.0
-0.04,0.17,0.99,0.92,63663.0
-0.04,0.17,0.99,0.67,63684.0
-0.04,0.17,0.99,1.28,63703.0
-0.04,0.17,0.99,1.4,63723.0
-0.04,0.17,0.98,0.98,63743.0
-0.04,0.17,0.99,0.85,63763.0
-0.09,0.21,0.98,7.75,63780.0
-0.05,0.17,0.98,1.16,63798.0
-0.04,0.17,0.98,0.55,63817.0
-0.04,0.17,0.98,0.73,63835.0
-0.04,0.17,0.98,0.18,63856.0
-0.04,0.17,0.99,0.67,63873.0
-0.03,0.17,0.98,0.79,63893.0
-0.08,0.21,1.0,7.2,63911.0
-0.04,0.18,0.98,4.46,63930.0
-0.03,0.16,0.98,2.75,63947.0
-0.02,0.17,0.98,4.27,63965.0
-0.02,0.18,0.99,6.65,63983.0
0.03,0.16,1.0,14.71,64002.0
0.0,0.16,1.0,31.31,64019.0
0.03,0.22,1.0,36.93,64037.0
0.07,0.18,0.96,27.53,64057.0
-0.03,0.17,1.01,33.26,64075.0
-0.08,0.09,1.06,42.11,64097.0
0.05,0.16,1.01,41.2,64119.0
-0.05,0.19,1.1,54.99,64139.0
0.19,0.16,1.07,40.28,64162.0
0.09,0.1,1.12,9.16,64180.0
-0.15,0.11,1.29,28.87,64199.0
-0.03,0.03,1.14,57.19,64220.0
0.06,0.03,1.05,85.27,64238.0
0.03,-0.01,0.98,106.57,64256.0
-0.02,0.04,0.92,68.54,64274.0
0.12,0.25,0.98,69.52,64293.0
0.06,0.33,1.05,78.98,64313.0
0.1,0.26,1.01,77.21,64333.0
0.05,0.28,0.97,120.85,64351.0
-0.07,0.24,0.92,127.87,64369.0
0.02,0.26,0.9,116.7,64387.0
0.03,0.23,0.92,124.82,64408.0
0.02,0.26,0.97,100.71,64428.0
0.08,0.35,1.03,70.43,64449.0
0.11,0.3,0.92,90.94,64471.0
0.13,0.34,0.89,107.54,64489.0
0.13,0.4,0.8,110.96,64508.0
0.03,0.33,0.73,128.66,64528.0
0.03,0.37,0.71,127.75,64548.0
0.08,0.46,0.78,88.99,64568.0
0.2,0.58,0.88,79.96,64588.0
0.2,0.57,0.88,98.45,64609.0
0.2,0.55,0.81,110.05,64628.0
0.16,0.54,0.78,110.72,64647.0
0.14,0.5,0.71,94.06,64670.0
0.22,0.49,0.7,95.34,64688.0
0.18,0.48,0.73,98.21,64707.0
0.12,0.49,0.82,73.85,64727.0
0.19,0.45,0.87,72.39,64747.0
0.16,0.41,0.91,92.9,64767.0
0.17,0.39,0.91,97.66,64788.0
0.19,0.41,0.91,91.37,64805.0
0.23,0.4,0.9,78.61,64826.0
0.24,0.39,0.84,90.03,64844.0
0.21,0.39,0.77,89.9,64864.0
0.28,0.4,0.73,86.0,64884.0
0.27,0.45,0.78,77.76,64903.0
0.34,0.48,0.81,53.96,64924.0
0.37,0.5,0.82,49.01,64944.0
0.3,0.51,0.84,47.42,64964.0
0.27,0.5,0.86,40.1,64982.0
0.26,0.46,0.87,34.12,65000.0
0.25,0.43,0.88,27.4,65019.0
0.25,0.4,0.88,22.4,65040.0
0.28,0.46,0.95,14.04,65059.0
0.27,0.47,0.98,14.47,65079.0
0.27,0.4,0.93,14.53,65098.0
0.31,0.39,0.96,4.52,65117.0
0.35,0.38,0.99,-2.69,65136.0
0.33,0.37,1.02,-2.14,65156.0
0.32,0.33,0.99,-1.22,65175.0
0.29,0.27,0.9,8.06,65194.0
0.33,0.2,0.81,9.28,65213.0
0.47,0.19,0.8,8.61,65232.0
0.49,0.2,0.85,22.46,65250.0
0.51,0.2,0.86,26.73,65272.0
0.56,0.24,0.85,22.46,65292.0
0.57,0.27,0.83,30.4,65310.0
0.56,0.29,0.79,32.53,65330.0
0.45,0.24,0.66,40.04,65350.0
0.43,0.19,0.55,49.68,65370.0
0.43,0.19,0.59,55.97,65390.0
0.44,0.17,0.71,56.27,65408.0
0.63,0.19,0.91,44.98,65434.0
0.71,0.38,1.14,52.06,65451.0
0.72,0.56,1.26,58.53,65472.0
0.72,0.51,1.1,75.32,65491.0
0.6,0.37,0.86,104.31,65509.0
0.48,0.26,0.67,109.74,65528.0
0.42,0.15,0.55,94.06,65547.0
0.43,0.19,0.63,93.14,65565.0
0.44,0.25,0.76,84.9,65585.0
0.5,0.27,0.85,87.1,65603.0
0.54,0.27,0.88,98.51,65622.0
0.56,0.25,0.91,107.12,65642.0
0.56,0.24,0.93,118.77,65660.0
0.55,0.2,0.86,123.11,65680.0
0.56,0.16,0.78,132.2,65700.0
0.61,0.14,0.72,142.82,65718.0
0.67,0.19,0.75,153.75,65743.0
0.71,0.16,0.77,145.94,65761.0
0.74,0.17,0.86,138.79,65780.0
0.7,0.2,0.96,120.79,65803.0
0.58,0.26,0.97,134.28,65826.0
0.46,0.17,0.8,130.92,65846.0
0.49,0.15,0.72,119.51,65864.0
0.43,0.14,0.67,116.33,65887.0
0.41,0.18,0.72,111.33,65908.0
0.42,0.21,0.77,98.33,65927.0
0.43,0.26,0.9,89.42,65949.0
0.42,0.31,0.95,86.18,65970.0
0.45,0.29,0.93,82.34,65989.0
0.48,0.3,0.91,81.12,66008.0
0.44,0.31,0.88,73.97,66029.0
0.42,0.28,0.84,67.08,66050.0
0.46,0.26,0.79,59.02,66067.0
0.47,0.27,0.81,60.12,66085.0
0.39,0.23,0.83,56.09,66106.0
0.41,0.22,0.84,46.2,66124.0
0.47,0.2,0.81,52.8,66148.0
0.48,0.19,0.77,63.84,66165.0
0.5,0.25,0.76,66.77,66186.0
0.54,0.23,0.71,65.49,66204.0
0.68,0.11,0.67,70.31,66222.0
0.78,0.15,0.77,65.06,66244.0
0.81,0.37,0.95,48.1,66266.0
0.84,0.46,0.94,34.36,66284.0
0.77,0.37,0.8,38.09,66302.0
0.62,0.29,0.71,26.18,66321.0
0.54,0.2,0.61,14.59,66338.0
0.48,0.12,0.52,19.17,66357.0
0.45,0.09,0.57,22.77,66377.0
0.52,0.1,0.69,38.45,66397.0
0.67,0.26,0.92,41.26,66416.0
0.74,0.47,1.15,5.43,66437.0
0.88,0.61,1.23,-10.01,66455.0
0.84,0.55,1.06,5.13,66473.0
0.7,0.4,0.88,3.72,66491.0
0.59,0.29,0.73,-4.46,66509.0
0.53,0.24,0.64,-21.36,66528.0
0.49,0.28,0.65,-29.17,66547.0
0.45,0.3,0.67,-41.44,66565.0
0.51,0.31,0.66,-44.19,66586.0
0.53,0.33,0.67,-48.03,66604.0
0.53,0.35,0.72,-45.04,66624.0
0.49,0.34,0.76,-44.37,66642.0
0.52,0.3,0.79,-51.33,66663.0
0.61,0.28,0.84,-51.15,66682.0
0.65,0.34,0.98,-68.85,66700.0
0.63,0.41,1.12,-86.43,66719.0
0.62,0.35,1.08,-88.81,66737.0
0.6,0.22,0.93,-96.19,66758.0
0.51,0.15,0.82,-93.69,66780.0
0.46,0.08,0.71,-92.77,66798.0
0.39,0.0,0.62,-87.77,66821.0
0.32,-0.07,0.57,-79.53,66841.0
0.33,-0.04,0.65,-76.35,66861.0
0.34,0.01,0.8,-75.87,66881.0
0.46,0.16,1.07,-95.83,66902.0
0.52,0.27,1.22,-101.26,66921.0
0.55,0.39,1.32,-114.32,66939.0
0.54,0.4,1.27,-119.02,66957.0
0.5,0.34,1.11,-128.11,66977.0
0.42,0.24,0.92,-128.97,66995.0
0.4,0.21,0.79,-150.15,67014.0
0.36,0.19,0.72,-151.49,67034.0
0.3,0.16,0.72,-158.51,67055.0
0.32,0.2,0.79,-166.63,67076.0
0.31,0.24,0.87,-172.85,67095.0
0.37,0.28,0.97,-172.67,67118.0
0.37,0.28,0.95,-181.03,67139.0
0.42,0.31,0.95,-195.25,67157.0
0.41,0.26,0.92,-197.27,67178.0
0.43,0.22,0.89,-204.28,67198.0
0.46,0.22,0.91,-211.73,67216.0
0.52,0.2,0.95,-213.62,67236.0
0.52,0.26,1.05,-210.39,67254.0
0.47,0.3,1.11,-222.29,67275.0
0.49,0.29,1.07,-223.57,67295.0
0.5,0.26,0.97,-215.03,67317.0
0.47,0.29,0.91,-212.46,67337.0
0.48,0.29,0.86,-211.06,67355.0
0.43,0.25,0.81,-200.32,67378.0
0.37,0.26,0.81,-201.9,67398.0
0.37,0.32,0.88,-219.48,67418.0
0.38,0.4,0.98,-207.21,67439.0
0.32,0.33,1.0,-197.2,67457.0
0.27,0.27,1.05,-200.01,67480.0
0.23,0.3,1.12,-198.49,67499.0
0.14,0.3,1.15,-189.94,67520.0
0.1,0.31,1.11,-158.26,67540.0
0.08,0.26,0.98,-150.27,67560.0
0.09,0.22,0.88,-151.31,67579.0
0.07,0.21,0.87,-153.26,67598.0
0.09,0.16,0.86,-158.51,67617.0
0.08,0.18,0.94,-140.75,67638.0
0.03,0.26,1.07,-142.7,67658.0
0.03,0.27,1.06,-147.4,67679.0
0.05,0.17,0.96,-143.01,67699.0
0.0,0.13,0.91,-130.55,67717.0
-0.08,0.11,0.87,-125.12,67735.0
-0.12,0.07,0.9,-122.25,67754.0
-0.23,0.06,1.0,-125.18,67777.0
-0.18,0.06,1.02,-133.3,67798.0
0.0,0.01,0.94,-139.04,67819.0
0.08,0.11,0.94,-118.96,67839.0
0.05,0.17,0.95,-110.84,67858.0
-0.04,0.19,0.91,-95.83,67878.0
-0.06,0.05,0.79,-71.72,67897.0
-0.02,0.02,0.79,-77.45,67917.0
-0.02,0.14,0.93,-92.04,67937.0
-0.06,0.21,1.07,-102.54,67957.0
-0.12,0.12,1.04,-68.18,67978.0
-0.11,0.01,0.93,-55.05,67996.0
0.03,-0.06,0.86,-55.97,68016.0
0.06,0.06,0.94,-66.04,68036.0
-0.04,0.19,1.06,-88.26,68054.0
-0.13,0.1,1.1,-70.92,68072.0
-0.19,-0.02,0.96,-52.8,68097.0
-0.06,0.02,0.89,-62.62,68115.0
0.03,0.11,0.91,-84.11,68135.0
-0.06,0.1,0.93,-89.42,68155.0
-0.15,0.04,0.91,-92.1,68173.0
-0.19,0.07,0.99,-81.54,68199.0
-0.2,0.11,1.01,-78.98,68217.0
-0.14,0.12,0.98,-80.32,68237.0
-0.15,0.05,0.89,-72.33,68255.0
-0.12,0.03,0.83,-74.52,68275.0
-0.11,0.09,0.87,-70.8,68297.0
-0.16,0.13,0.92,-78.19,68316.0
-0.16,0.12,0.92,-73.49,68335.0
-0.15,0.07,0.91,-68.79,68354.0
-0.14,0.04,0.89,-60.06,68373.0
-0.1,0.05,0.91,-71.72,68395.0
-0.1,0.08,0.96,-75.13,68415.0
-0.14,0.05,1.05,-69.21,68437.0
-0.13,-0.01,1.07,-70.74,68457.0
-0.14,0.03,1.13,-62.62,68477.0
-0.17,0.02,1.18,-60.55,68497.0
-0.23,0.04,1.19,-53.47,68518.0
-0.27,0.07,1.18,-54.81,68536.0
-0.26,0.05,1.12,-54.93,68554.0
-0.28,-0.03,1.04,-54.63,68574.0
-0.29,-0.04,1.04,-51.82,68595.0
-0.31,-0.07,1.05,-46.57,68613.0
-0.3,-0.09,1.07,-41.99,68634.0
-0.28,0.0,1.12,-46.69,68655.0
-0.22,-0.0,1.11,-44.31,68673.0
-0.14,-0.05,1.06,-38.02,68692.0
-0.13,-0.15,0.98,-33.51,68714.0
-0.07,-0.18,0.97,-32.9,68733.0
-0.07,-0.2,0.98,-32.47,68752.0
0.01,-0.25,0.98,-34.73,68770.0
0.16,-0.19,1.11,-24.41,68790.0
0.07,-0.18,1.21,-9.4,68810.0
0.1,-0.2,1.23,-5.0,68829.0
0.13,-0.29,1.16,-8.06,68853.0
0.16,-0.36,1.09,-12.33,68875.0
0.18,-0.4,1.06,-6.41,68897.0
0.19,-0.45,1.02,16.3,68916.0
0.1,-0.42,1.02,39.12,68936.0
0.21,-0.35,1.01,26.55,68954.0
0.18,-0.33,1.02,38.21,68972.0
0.09,-0.35,0.99,46.33,68990.0
0.06,-0.32,0.98,44.19,69012.0
0.05,-0.32,0.95,45.9,69030.0
0.06,-0.32,0.87,50.96,69050.0
0.05,-0.28,0.86,46.26,69069.0
0.03,-0.3,0.88,41.99,69089.0
-0.04,-0.34,0.91,45.59,69111.0
-0.06,-0.31,0.94,41.63,69129.0
-0.03,-0.24,0.97,38.82,69149.0
-0.03,-0.24,0.96,38.27,69167.0
-0.07,-0.3,0.94,39.92,69187.0
-0.06,-0.28,0.95,38.76,69205.0
-0.04,-0.23,0.98,28.63,69228.0
-0.05,-0.26,0.96,33.33,69247.0
-0.05,-0.26,0.91,35.64,69269.0
-0.01,-0.21,0.91,29.36,69287.0
0.01,-0.18,0.91,21.97,69306.0
-0.04,-0.21,0.92,22.52,69327.0
-0.07,-0.19,0.99,12.45,69347.0
-0.07,-0.21,1.0,7.14,69366.0
-0.1,-0.27,1.01,2.99,69389.0
-0.12,-0.3,1.03,1.65,69407.0
-0.16,-0.32,1.0,6.77,69427.0
-0.16,-0.31,0.92,12.08,69446.0
-0.15,-0.28,0.91,4.76,69465.0
-0.15,-0.28,0.96,-3.17,69486.0
-0.15,-0.28,1.01,-2.99,69504.0
-0.17,-0.28,1.02,2.2,69525.0
-0.09,-0.23,1.01,0.12,69545.0
-0.03,-0.2,1.0,-4.88,69565.0
-0.04,-0.23,1.01,-13.0,69587.0
-0.03,-0.27,1.02,-15.62,69606.0
-0.03,-0.32,1.0,-15.2,69624.0
-0.04,-0.35,0.97,-17.82,69645.0
-0.0,-0.31,0.99,-18.37,69663.0
0.03,-0.29,1.02,-15.81,69685.0
0.02,-0.33,0.99,-9.89,69703.0
0.02,-0.37,0.92,-2.01,69725.0
0.07,-0.3,0.89,-1.89,69748.0
0.09,-0.27,0.87,1.04,69766.0
0.11,-0.27,0.84,3.11,69787.0
0.1,-0.27,0.85,4.09,69805.0
0.08,-0.27,0.9,3.17,69827.0
0.03,-0.27,0.93,2.81,69845.0
0.0,-0.33,0.95,2.01,69863.0
-0.04,-0.43,0.96,4.15,69881.0
-0.04,-0.48,0.98,9.7,69902.0
-0.01,-0.51,0.98,20.26,69923.0
0.03,-0.47,0.99,27.77,69945.0
0.06,-0.45,1.01,31.19,69963.0
0.08,-0.45,1.01,35.95,69983.0
0.05,-0.49,1.03,41.99,70003.0
0.02,-0.52,1.08,59.27,70024.0
-0.0,-0.52,1.09,62.07,70044.0
0.03,-0.51,1.07,72.51,70062.0
0.11,-0.41,1.08,77.94,70083.0
0.09,-0.4,1.08,92.35,70102.0
0.1,-0.39,1.07,100.28,70123.0
0.09,-0.23,1.1,103.52,70145.0
0.12,-0.17,1.07,112.67,70164.0
0.1,-0.16,1.06,106.2,70183.0
0.05,-0.17,1.01,113.4,70203.0
0.16,-0.17,0.92,105.9,70224.0
0.12,-0.16,0.87,119.81,70244.0
0.03,0.03,1.0,126.16,70262.0
-0.1,-0.01,0.98,145.26,70283.0
-0.15,-0.18,0.86,151.12,70302.0
-0.03,-0.03,0.93,123.96,70322.0
-0.11,0.14,1.02,154.79,70344.0
-0.12,0.16,0.98,156.56,70365.0
-0.14,0.08,0.84,160.52,70384.0
-0.24,-0.05,0.74,177.06,70403.0
-0.15,0.04,0.74,167.79,70422.0
-0.03,0.18,0.8,157.71,70442.0
-0.05,0.3,0.86,161.5,70461.0
-0.21,0.37,0.95,177.19,70479.0
-0.35,0.22,0.94,177.19,70501.0
-0.25,0.22,0.96,172.12,70519.0
-0.19,0.38,1.06,159.24,70541.0
-0.1,0.53,1.04,160.77,70560.0
-0.16,0.59,1.0,161.68,70578.0
-0.22,0.48,0.89,162.84,70600.0
-0.26,0.43,0.82,149.23,70619.0
-0.27,0.5,0.8,122.25,70639.0
-0.18,0.54,0.79,110.17,70657.0
-0.26,0.63,0.81,118.96,70677.0
-0.34,0.65,0.8,116.39,70698.0
-0.38,0.63,0.76,107.3,70719.0
-0.41,0.62,0.8,94.6,70740.0
-0.38,0.57,0.81,89.11,70757.0
-0.37,0.53,0.85,87.65,70777.0
-0.33,0.51,0.91,82.89,70797.0
-0.35,0.41,0.93,77.33,70818.0
-0.31,0.33,0.92,70.5,70838.0
-0.3,0.32,0.94,69.46,70862.0
-0.23,0.31,0.91,71.35,70880.0
-0.22,0.32,0.88,81.18,70903.0
-0.26,0.31,0.83,85.51,70922.0
-0.31,0.28,0.76,88.07,70942.0
-0.34,0.28,0.68,93.75,70964.0
-0.33,0.31,0.66,93.81,70983.0
-0.34,0.32,0.67,90.15,71003.0
-0.32,0.35,0.7,87.04,71021.0
-0.32,0.3,0.71,91.49,71039.0
-0.2,0.35,0.79,85.08,71059.0
-0.11,0.5,0.96,71.66,71077.0
-0.18,0.63,1.1,65.55,71096.0
-0.29,0.55,1.08,82.4,71115.0
-0.32,0.38,0.87,84.78,71136.0
-0.34,0.38,0.79,72.02,71157.0
-0.32,0.45,0.74,64.7,71176.0
-0.28,0.53,0.68,56.4,71195.0
-0.17,0.55,0.65,53.34,71218.0
-0.23,0.54,0.7,46.45,71237.0
-0.26,0.54,0.73,52.67,71258.0
-0.22,0.57,0.71,41.5,71277.0
-0.12,0.61,0.7,24.29,71295.0
0.01,0.58,0.7,22.71,71315.0
-0.0,0.65,0.85,7.87,71333.0
-0.12,0.6,1.03,-20.81,71351.0
-0.17,0.49,1.14,-26.67,71373.0
-0.21,0.34,1.09,-11.29,71392.0
-0.18,0.36,1.03,-20.75,71413.0
-0.08,0.52,0.99,-26.86,71435.0
-0.13,0.45,0.99,-28.38,71454.0
-0.3,0.28,0.97,-23.25,71474.0
-0.32,0.15,0.97,-36.19,71492.0
-0.16,0.33,1.16,-35.89,71511.0
-0.07,0.47,1.24,-42.85,71529.0
-0.01,0.5,1.18,-33.81,71549.0
-0.05,0.35,0.99,-20.94,71570.0
-0.07,0.13,0.8,-22.83,71588.0
-0.13,0.19,0.87,-15.93,71606.0
-0.08,0.39,0.99,-38.27,71627.0
-0.07,0.44,0.99,-21.97,71648.0
-0.11,0.38,0.9,-14.34,71668.0
-0.12,0.29,0.8,-13.12,71685.0
-0.07,0.28,0.82,-27.59,71703.0
-0.08,0.31,0.92,-48.34,71723.0
-0.08,0.34,0.98,-49.44,71742.0
-0.15,0.31,1.04,-36.38,71761.0
-0.2,0.25,1.01,-11.6,71780.0
-0.16,0.25,0.94,-5.55,71798.0
-0.05,0.37,0.95,-12.21,71819.0
0.03,0.45,0.91,-19.65,71840.0
0.05,0.46,0.89,-18.8,71860.0
0.0,0.39,0.88,-26.86,71881.0
-0.0,0.36,0.89,-34.3,71900.0
0.01,0.46,0.99,-50.72,71920.0
0.0,0.49,1.04,-57.31,71943.0
-0.02,0.48,1.0,-57.86,71961.0
-0.08,0.42,0.94,-53.04,71981.0
-0.11,0.38,0.93,-62.44,71999.0
-0.1,0.34,0.98,-59.02,72018.0
-0.01,0.37,1.02,-62.19,72036.0
0.14,0.39,1.03,-58.65,72055.0
0.27,0.42,1.03,-55.73,72081.0
0.25,0.43,0.99,-54.44,72103.0
0.21,0.4,0.89,-61.34,72124.0
0.18,0.34,0.77,-62.26,72144.0
0.14,0.28,0.71,-73.18,72162.0
0.11,0.21,0.72,-73.97,72183.0
0.07,0.26,0.81,-75.01,72202.0
0.1,0.35,0.95,-85.02,72223.0
0.08,0.35,1.04,-83.01,72243.0
0.02,0.31,1.04,-82.76,72262.0
0.05,0.28,0.97,-89.66,72282.0
0.11,0.28,0.91,-92.77,72301.0
0.12,0.3,0.92,-95.09,72321.0
0.13,0.29,0.9,-97.47,72340.0
0.16,0.19,0.89,-103.52,72360.0
0.11,0.16,0.96,-103.15,72378.0
0.03,0.15,1.04,-89.05,72398.0
0.03,0.15,1.01,-84.66,72419.0
0.09,0.23,1.03,-78.67,72440.0
0.14,0.3,1.04,-80.75,72458.0
0.14,0.34,0.99,-75.38,72476.0
0.03,0.31,0.96,-50.35,72494.0
-0.04,0.27,0.9,-45.23,72512.0
0.07,0.31,0.88,-61.95,72531.0
0.13,0.41,0.93,-79.65,72550.0
0.16,0.41,0.93,-73.97,72568.0
0.04,0.34,0.85,-41.32,72590.0
0.01,0.3,0.85,-41.5,72609.0
-0.1,0.22,0.79,-17.27,72629.0
-0.04,0.15,0.88,-9.64,72652.0
0.24,0.57,1.36,-127.01,72672.0
0.43,0.67,1.26,-22.89,72694.0
0.15,0.5,1.01,8.85,72712.0
0.0,0.4,0.89,8.06,72731.0
0.01,0.52,0.87,-10.56,72750.0
0.0,0.47,0.9,-32.78,72770.0
0.07,0.31,0.74,-26.67,72790.0
0.2,0.25,0.69,-14.65,72811.0
0.16,0.3,0.9,-13.31,72830.0
0.04,0.44,1.23,-28.63,72852.0
-0.03,0.25,1.01,-32.04,72873.0
0.03,0.28,1.15,7.69,72896.0
0.07,0.2,0.93,-11.66,72918.0
-0.03,0.2,0.99,-5.25,72940.0
0.04,0.25,0.93,-11.05,72960.0
0.13,0.29,0.99,-26.61,72981.0
0.15,0.2,0.91,-26.31,73001.0
0.08,0.18,0.89,-7.2,73022.0
0.03,0.16,0.92,-9.09,73042.0
0.01,0.13,0.91,-7.2,73063.0
0.07,0.21,0.98,-14.22,73082.0
0.17,0.28,1.02,-18.68,73100.0
0.12,0.25,1.05,-6.59,73119.0
0.07,0.21,1.01,-6.04,73137.0
0.1,0.22,0.99,-12.82,73156.0
0.13,0.26,1.05,-14.22,73175.0
0.06,0.25,1.06,-3.3,73193.0
0.05,0.25,1.0,-2.93,73213.0
0.04,0.28,1.03,-4.7,73231.0
0.01,0.25,0.99,1.95,73249.0
0.01,0.27,0.95,3.97,73269.0
-0.01,0.33,0.98,1.59,73287.0
-0.03,0.34,0.96,2.32,73305.0
-0.02,0.37,0.94,-0.31,73323.0
0.01,0.39,0.91,-1.95,73343.0
0.01,0.44,0.95,-8.97,73363.0
0.01,0.4,0.94,-9.89,73383.0
-0.08,0.31,0.92,-2.2,73402.0
-0.05,0.33,0.95,-17.52,73421.0
-0.01,0.36,0.97,-21.55,73439.0
-0.01,0.39,1.03,-21.0,73461.0
-0.07,0.4,1.05,-23.8,73483.0
-0.11,0.35,1.0,-25.02,73502.0
-0.16,0.33,0.99,-21.42,73525.0
-0.16,0.33,1.0,-28.2,73545.0
-0.12,0.34,1.01,-37.54,73565.0
-0.08,0.33,1.02,-29.17,73583.0
-0.07,0.27,1.01,-27.28,73603.0
-0.07,0.22,1.02,-24.23,73622.0
-0.1,0.19,1.03,-26.61,73642.0
-0.09,0.18,0.99,-37.48,73662.0
-0.03,0.23,0.97,-37.66,73681.0
-0.07,0.2,0.94,-30.4,73700.0
-0.12,0.19,0.87,-34.73,73722.0
-0.04,0.23,0.86,-41.08,73744.0
-0.08,0.24,0.91,-37.48,73762.0
-0.13,0.29,0.97,-36.74,73782.0
-0.13,0.31,0.96,-38.15,73800.0
-0.08,0.25,0.9,-41.26,73819.0
0.01,0.2,0.86,-41.38,73839.0
0.04,0.23,0.92,-44.19,73859.0
0.03,0.25,0.99,-43.76,73879.0
0.0,0.24,0.99,-39.98,73900.0
-0.01,0.16,0.95,-45.1,73923.0
-0.01,0.11,0.91,-47.55,73943.0
-0.0,0.13,0.92,-36.8,73962.0
-0.02,0.14,0.97,-40.47,73985.0
-0.02,0.11,1.01,-39.79,74006.0
0.02,0.09,1.02,-35.77,74025.0
0.0,0.14,1.06,-33.14,74045.0
0.02,0.16,1.03,-30.52,74063.0
0.01,0.11,0.96,-21.73,74081.0
-0.01,0.11,0.91,-16.72,74100.0
-0.05,0.17,0.88,-10.62,74119.0
-0.07,0.17,0.84,-1.46,74139.0
0.01,0.12,0.84,2.5,74160.0
0.04,0.18,0.98,5.62,74178.0
0.09,0.33,1.05,6.96,74196.0
0.09,0.35,1.0,6.71,74214.0
0.16,0.3,0.91,6.65,74233.0
0.12,0.35,0.93,22.64,74250.0
0.05,0.38,0.91,26.61,74269.0
0.09,0.42,0.86,12.39,74289.0
0.12,0.55,0.92,15.99,74306.0
0.0,0.59,0.96,31.8,74326.0
-0.11,0.52,0.88,37.48,74346.0
-0.13,0.46,0.81,43.7,74365.0
-0.08,0.46,0.8,34.91,74384.0
0.05,0.51,0.93,-4.64,74405.0
0.2,0.49,0.97,-23.5,74423.0
0.13,0.38,0.96,-9.4,74445.0
-0.07,0.44,1.03,20.26,74466.0
-0.15,0.5,0.99,16.05,74485.0
-0.03,0.5,0.8,16.48,74507.0
0.09,0.5,0.68,28.69,74528.0
0.25,0.51,0.64,36.32,74548.0
0.32,0.46,0.64,39.92,74568.0
0.43,0.46,0.7,30.33,74587.0
0.42,0.52,0.87,30.15,74607.0
0.33,0.55,0.98,29.72,74629.0
0.26,0.5,0.96,35.64,74647.0
0.18,0.45,0.87,42.36,74665.0
0.15,0.41,0.78,42.42,74683.0
0.12,0.36,0.77,44.13,74704.0
0.1,0.37,0.79,52.86,74722.0
0.13,0.37,0.81,57.37,74744.0
0.24,0.4,0.9,62.32,74764.0
0.28,0.4,0.99,64.15,74782.0
0.39,0.44,1.05,59.75,74802.0
0.44,0.54,1.1,60.24,74822.0
0.41,0.56,1.11,60.79,74839.0
0.28,0.47,1.05,81.67,74862.0
0.18,0.44,1.03,104.55,74882.0
0.2,0.41,1.01,101.2,74900.0
0.3,0.39,1.03,96.37,74920.0
0.33,0.5,1.15,90.45,74939.0
0.3,0.46,1.1,84.9,74964.0
0.28,0.36,0.96,90.76,74983.0
0.24,0.3,0.9,86.24,75002.0
0.11,0.28,0.94,80.87,75022.0
-0.03,0.26,0.96,72.75,75041.0
-0.02,0.25,0.9,56.34,75061.0
0.1,0.3,0.94,54.75,75080.0
0.09,0.38,1.16,57.68,75100.0
0.02,0.4,1.28,45.9,75118.0
0.02,0.35,1.26,53.71,75137.0
-0.04,0.27,1.23,70.07,75159.0
-0.0,0.25,1.2,64.88,75181.0
0.0,0.31,1.18,66.28,75201.0
0.04,0.31,1.04,70.98,75221.0
0.04,0.31,0.85,84.11,75241.0
0.0,0.35,0.74,86.36,75260.0
-0.05,0.33,0.61,85.94,75280.0
-0.11,0.28,0.49,86.3,75298.0
-0.09,0.24,0.39,90.03,75316.0
-0.1,0.32,0.48,75.32,75336.0
-0.03,0.46,0.57,74.77,75357.0
-0.1,0.48,0.65,75.74,75375.0
-0.15,0.46,0.63,88.5,75393.0
-0.17,0.44,0.61,100.34,75412.0
-0.2,0.47,0.61,105.47,75430.0
-0.17,0.47,0.57,99.12,75450.0
-0.16,0.48,0.6,103.64,75470.0
-0.22,0.56,0.68,101.68,75488.0
-0.25,0.61,0.7,97.29,75508.0
-0.29,0.53,0.6,106.38,75528.0
-0.27,0.53,0.54,104.86,75546.0
-0.26,0.57,0.52,95.58,75571.0
-0.19,0.54,0.57,91.74,75592.0
-0.22,0.58,0.65,93.2,75611.0
-0.22,0.61,0.74,86.98,75633.0
-0.2,0.66,0.77,88.93,75655.0
-0.21,0.63,0.71,88.56,75678.0
-0.19,0.66,0.71,94.67,75696.0
-0.13,0.74,0.8,94.12,75716.0
-0.03,0.83,0.91,68.42,75735.0
-0.05,0.82,0.95,64.03,75755.0
-0.04,0.8,0.87,59.57,75775.0
0.03,0.79,0.78,53.1,75794.0
0.17,0.71,0.73,39.55,75813.0
0.17,0.72,0.76,29.05,75831.0
0.08,0.76,0.85,21.42,75849.0
0.01,0.78,0.87,16.17,75872.0
-0.04,0.78,0.83,23.07,75892.0
-0.0,0.71,0.73,21.55,75912.0
0.02,0.69,0.78,18.68,75931.0
0.03,0.72,0.84,15.5,75950.0
0.04,0.76,0.87,12.08,75969.0
0.14,0.76,0.82,2.14,75988.0
0.23,0.7,0.76,-3.3,76008.0
0.16,0.68,0.78,8.79,76027.0
0.01,0.6,0.75,1.53,76046.0
-0.02,0.55,0.71,0.24,76064.0
-0.06,0.54,0.69,-0.31,76087.0
-0.04,0.56,0.71,-4.64,76106.0
-0.03,0.53,0.75,0.37,76128.0
-0.01,0.52,0.76,-3.42,76147.0
0.02,0.52,0.86,2.38,76171.0
0.01,0.53,0.97,-0.92,76191.0
0.02,0.52,0.97,5.07,76214.0
-0.01,0.48,0.88,16.42,76233.0
-0.05,0.43,0.79,18.86,76253.0
-0.04,0.46,0.74,17.09,76273.0
-0.01,0.51,0.75,12.76,76293.0
0.03,0.53,0.78,10.8,76311.0
0.03,0.52,0.83,8.85,76331.0
-0.0,0.49,0.87,6.96,76349.0
-0.07,0.47,0.9,3.3,76368.0
-0.1,0.48,0.93,8.48,76388.0
-0.05,0.49,0.96,15.26,76408.0
-0.01,0.49,1.02,14.34,76428.0
0.02,0.49,0.97,13.49,76447.0
0.06,0.52,0.9,8.0,76468.0
0.13,0.5,0.83,7.57,76490.0
0.07,0.43,0.82,20.02,76508.0
0.03,0.44,0.86,22.58,76525.0
0.07,0.45,0.89,12.88,76545.0
0.08,0.45,0.88,7.63,76565.0
0.14,0.5,0.9,-4.09,76584.0
0.13,0.51,0.92,-7.69,76602.0
0.05,0.47,0.91,-12.33,76621.0
-0.02,0.44,0.88,-3.72,76641.0
0.03,0.47,0.88,-8.54,76661.0
0.09,0.51,0.94,-12.88,76683.0
0.07,0.5,0.97,-22.95,76704.0
0.06,0.49,0.96,-18.25,76723.0
0.06,0.46,0.89,-21.18,76743.0
0.01,0.42,0.85,-25.57,76761.0
-0.05,0.39,0.85,-24.78,76780.0
-0.09,0.4,0.84,-32.71,76799.0
-0.05,0.38,0.8,-42.24,76819.0
-0.02,0.38,0.8,-35.58,76837.0
-0.01,0.41,0.85,-37.66,76857.0
-0.06,0.38,0.88,-41.08,76877.0
-0.03,0.37,0.89,-35.03,76899.0
0.01,0.37,0.94,-44.98,76919.0
-0.0,0.39,0.98,-50.35,76937.0
-0.04,0.4,0.97,-47.36,76956.0
-0.05,0.39,0.92,-44.86,76975.0
-0.0,0.36,0.87,-47.36,76994.0
0.0,0.38,0.9,-45.65,77017.0
0.01,0.4,0.94,-58.84,77035.0
0.04,0.38,0.94,-64.94,77053.0
0.04,0.32,0.94,-64.45,77071.0
0.0,0.31,0.98,-63.05,77092.0
-0.06,0.31,1.01,-57.62,77110.0
-0.08,0.3,0.99,-60.73,77128.0
-0.06,0.27,0.97,-67.38,77148.0
-0.02,0.33,0.96,-57.19,77168.0
-0.03,0.4,1.01,-48.1,77188.0
-0.01,0.42,0.99,-52.61,77208.0
0.01,0.41,0.92,-38.33,77228.0
0.05,0.47,0.9,-39.49,77248.0
0.15,0.49,0.95,-65.92,77270.0
0.13,0.42,0.96,-91.13,77291.0
0.03,0.35,0.98,-92.47,77313.0
-0.1,0.26,0.96,-75.13,77331.0
-0.17,0.21,0.89,-56.7,77351.0
-0.15,0.19,0.82,-61.04,77373.0
-0.12,0.16,0.79,-67.87,77392.0
-0.13,0.17,0.82,-64.27,77411.0
-0.12,0.2,0.89,-60.55,77432.0
-0.12,0.18,0.95,-49.87,77452.0
-0.1,0.22,0.99,-36.99,77470.0
-0.03,0.29,1.05,-38.02,77490.0
-0.01,0.26,1.05,-49.01,77510.0
-0.06,0.2,1.03,-60.12,77531.0
-0.13,0.14,1.01,-62.62,77550.0
-0.17,0.14,1.02,-49.62,77569.0
-0.14,0.2,1.02,-45.53,77589.0
-0.1,0.2,1.01,-47.79,77608.0
-0.07,0.23,0.99,-31.86,77629.0
-0.07,0.28,1.02,-30.52,77648.0
-0.05,0.32,1.06,-34.36,77666.0
-0.05,0.34,1.09,-36.25,77684.0
-0.07,0.31,1.1,-51.09,77703.0
-0.14,0.19,1.04,-68.05,77728.0
-0.23,0.1,0.97,-48.77,77748.0
-0.26,-0.02,0.85,-31.01,77768.0
-0.19,0.04,0.87,-18.62,77788.0
-0.12,0.18,0.97,-19.29,77807.0
-0.09,0.26,1.02,-23.86,77828.0
-0.13,0.24,1.02,-28.14,77847.0
-0.15,0.08,0.91,-24.41,77865.0
-0.22,-0.07,0.82,-21.79,77884.0
-0.23,-0.03,0.86,-5.92,77902.0
-0.16,0.1,0.97,1.1,77921.0
-0.07,0.18,1.06,-3.85,77945.0
-0.09,0.16,1.07,14.1,77965.0
-0.09,0.15,1.02,4.33,77984.0
-0.07,0.08,0.91,3.11,78004.0
-0.03,0.13,0.89,7.75,78025.0
0.01,0.26,0.98,5.62,78045.0
0.01,0.27,1.04,-2.56,78064.0
-0.06,0.21,1.06,-3.23,78085.0
-0.11,0.22,1.04,4.64,78104.0
-0.11,0.28,1.08,-4.33,78124.0
-0.12,0.26,1.03,-11.9,78144.0
-0.16,0.19,0.97,-15.93,78164.0
-0.21,0.13,0.94,-11.6,78184.0
-0.25,0.05,0.91,-3.42,78205.0
-0.25,0.03,0.91,1.22,78224.0
-0.21,0.11,0.96,-0.49,78243.0
-0.15,0.16,0.99,0.24,78262.0
-0.14,0.17,1.03,-3.91,78280.0
-0.13,0.14,1.0,0.43,78300.0
-0.18,0.12,0.99,-4.15,78318.0
-0.17,0.07,0.96,-14.16,78338.0
-0.18,0.05,0.94,-3.97,78358.0
-0.22,0.06,0.93,5.86,78377.0
-0.19,0.08,0.93,1.4,78399.0
-0.18,0.11,0.92,5.55,78416.0
-0.16,0.13,0.93,5.49,78436.0
-0.18,0.13,0.95,5.07,78457.0
-0.18,0.13,0.94,0.61,78475.0
-0.15,0.14,0.97,-6.59,78493.0
-0.19,0.08,1.0,-13.92,78511.0
-0.21,0.05,1.01,-8.24,78530.0
-0.24,0.09,1.05,2.26,78552.0
-0.19,0.12,0.99,3.97,78570.0
-0.19,0.12,0.97,10.25,78588.0
-0.17,0.15,0.92,11.41,78609.0
-0.14,0.23,0.99,1.53,78629.0
-0.12,0.23,1.01,-9.95,78648.0
-0.13,0.2,1.03,-14.16,78668.0
-0.2,0.12,1.0,-1.04,78689.0
-0.2,0.14,0.93,-1.83,78711.0
-0.12,0.15,0.91,-5.74,78732.0
-0.13,0.12,0.95,-10.93,78750.0
-0.18,0.06,0.98,-12.63,78770.0
-0.2,0.06,1.02,-7.63,78788.0
-0.2,0.05,1.01,-3.05,78806.0
-0.18,0.04,0.96,-1.1,78827.0
-0.18,0.07,0.98,0.43,78846.0
-0.15,0.04,0.93,1.53,78866.0
-0.17,0.05,0.98,-3.48,78884.0
-0.15,0.08,1.01,-10.31,78904.0
-0.15,0.07,1.02,-4.7,78923.0
-0.17,0.05,1.0,6.59,78942.0
-0.15,0.08,0.99,6.16,78960.0
-0.17,0.1,0.99,1.95,78978.0
-0.14,0.09,0.96,-8.12,78996.0
-0.16,0.08,1.01,-10.07,79014.0
-0.16,0.07,0.99,-2.26,79033.0
-0.15,0.1,1.02,-3.11,79051.0
-0.16,0.07,0.98,-3.3,79070.0
-0.16,0.08,0.97,-1.34,79090.0
-0.16,0.08,0.98,-7.93,79110.0
-0.17,0.03,0.94,-9.03,79129.0
-0.17,0.05,0.94,-7.51,79149.0
-0.16,0.09,1.02,-14.28,79169.0
-0.16,0.07,0.99,-12.33,79190.0
-0.17,0.08,0.99,-15.01,79210.0
-0.16,0.06,0.97,-20.63,79231.0
-0.16,0.07,0.99,-17.76,79254.0
-0.17,0.08,1.0,-13.85,79273.0
-0.18,0.09,1.03,-22.4,79291.0
-0.19,0.06,1.0,-18.07,79309.0
-0.2,0.03,0.97,-13.92,79328.0
-0.16,0.01,0.92,-17.27,79348.0
-0.18,0.04,0.99,-15.69,79366.0
-0.22,0.0,1.01,-16.66,79386.0
-0.23,-0.0,1.01,-9.58,79406.0
-0.22,0.01,0.98,-7.14,79424.0
-0.19,0.03,0.97,-4.33,79442.0
-0.21,0.05,0.97,-1.65,79461.0
-0.18,0.03,0.97,-5.68,79480.0
-0.22,0.01,1.01,-3.6,79498.0
-0.23,-0.01,0.98,5.25,79518.0
-0.22,0.03,0.98,9.83,79538.0
-0.19,0.06,0.97,6.04,79556.0
-0.21,0.04,0.96,3.66,79574.0
-0.2,0.06,0.97,2.44,79592.0
-0.18,0.11,0.99,0.31,79611.0
-0.13,0.14,0.98,1.65,79631.0
-0.17,0.07,0.99,3.97,79653.0
-0.18,0.07,1.02,-0.85,79672.0
-0.17,0.1,1.04,-2.81,79690.0
-0.16,0.07,1.03,-3.54,79711.0
-0.18,0.04,0.99,0.98,79730.0
-0.19,0.05,0.98,4.46,79747.0
-0.16,0.1,1.0,-2.87,79767.0
-0.17,0.09,0.98,0.67,79787.0
-0.2,0.06,0.96,-2.01,79807.0
-0.18,0.07,0.94,0.67,79826.0
-0.16,0.09,0.94,-1.28,79844.0
-0.17,0.06,0.95,-4.46,79864.0
-0.19,0.07,0.99,-3.54,79883.0
-0.18,0.12,1.02,-4.03,79902.0
-0.14,0.13,1.0,-5.0,79921.0
-0.14,0.14,1.04,-2.5,79941.0
-0.16,0.12,1.05,0.12,79963.0
-0.17,0.14,0.98,-16.3,80196.0
-0.17,0.13,0.95,-19.35,80216.0
-0.16,0.13,0.96,-18.98,80234.0
-0.17,0.14,1.0,-19.71,80255.0
-0.21,0.11,1.0,-22.34,80275.0
-0.22,0.04,0.94,-20.02,80295.0
-0.19,0.06,0.96,-24.17,80314.0
-0.21,0.04,0.97,-23.32,80335.0
-0.23,0.02,0.96,-20.14,80353.0
-0.2,0.03,0.96,-20.94,80371.0
-0.17,0.07,0.98,-17.33,80390.0
-0.19,0.06,1.02,-17.15,80408.0
-0.2,0.06,1.04,-15.87,80429.0
-0.2,0.06,1.03,-16.05,80449.0
-0.2,0.04,0.99,-11.66,80469.0
-0.2,0.05,0.98,-10.19,80491.0
-0.2,0.09,0.99,-8.91,80513.0
-0.18,0.15,1.0,-8.73,80531.0
-0.16,0.17,1.0,-11.96,80550.0
-0.22,0.12,0.99,-14.65,80574.0
-0.24,0.1,0.96,-12.94,80592.0
-0.24,0.12,0.95,-13.79,80611.0
-0.24,0.15,0.94,-11.78,80631.0
-0.21,0.19,0.98,-14.95,80653.0
-0.21,0.21,0.99,-18.25,80672.0
-0.22,0.2,0.98,-17.58,80693.0
-0.24,0.17,0.96,-20.81,80711.0
-0.21,0.18,0.94,-23.38,80733.0
-0.24,0.16,0.93,-23.56,80751.0
-0.24,0.14,0.91,-25.57,80770.0
-0.24,0.13,0.9,-24.29,80789.0
-0.22,0.14,0.92,-26.49,80809.0
-0.24,0.13,0.94,-28.99,80828.0
-0.24,0.11,0.94,-29.36,80848.0
-0.23,0.13,0.96,-29.11,80867.0
-0.22,0.12,0.94,-21.97,80888.0
-0.27,0.04,0.89,-18.19,80909.0
-0.23,0.08,0.91,-22.58,80930.0
-0.16,0.11,0.91,-21.91,80950.0
-0.13,0.13,0.96,-24.6,80968.0
-0.15,0.14,1.04,-31.62,80992.0
-0.14,0.11,1.0,-28.87,81012.0
-0.16,0.09,0.92,-31.56,81032.0
-0.14,0.09,0.89,-34.73,81050.0
-0.16,0.09,0.9,-34.67,81070.0
-0.13,0.11,0.88,-38.27,81088.0
-0.15,0.08,0.88,-34.91,81108.0
-0.14,0.04,0.88,-37.48,81127.0
-0.13,0.02,0.92,-38.21,81145.0
-0.13,0.02,1.0,-39.98,81167.0
-0.1,0.01,1.03,-36.56,81186.0
-0.13,-0.01,1.07,-29.6,81208.0
-0.12,0.01,1.08,-29.54,81227.0
-0.1,0.02,1.06,-29.05,81246.0
-0.12,0.01,1.03,-23.62,81268.0
-0.12,0.03,1.05,-23.32,81290.0
-0.11,0.05,1.05,-23.01,81313.0
-0.11,0.06,1.05,-22.4,81331.0
-0.11,0.05,1.05,-23.99,81351.0
-0.08,0.06,1.04,-22.34,81371.0
-0.07,0.08,1.03,-20.39,81392.0
-0.05,0.1,1.04,-18.62,81411.0
-0.05,0.12,1.05,-17.82,81431.0
-0.05,0.13,1.05,-19.17,81452.0
-0.06,0.12,1.02,-18.19,81473.0
-0.08,0.13,1.03,-25.33,81492.0
-0.07,0.13,1.03,-22.09,81513.0
-0.1,0.13,1.03,-25.82,81535.0
-0.09,0.15,1.05,-26.61,81553.0
-0.09,0.18,1.05,-25.63,81573.0
-0.12,0.17,1.01,-24.41,81593.0
-0.09,0.18,0.96,-32.78,81613.0
-0.08,0.21,0.98,-35.52,81631.0
-0.09,0.21,1.02,-43.46,81650.0
-0.09,0.19,1.01,-42.18,81669.0
-0.1,0.15,1.0,-46.94,81687.0
-0.11,0.14,1.02,-48.28,81706.0
-0.11,0.14,1.07,-52.55,81726.0
-0.12,0.14,1.09,-55.73,81744.0
-0.1,0.15,1.06,-57.98,81762.0
-0.12,0.15,1.03,-55.05,81780.0
-0.15,0.11,0.97,-53.83,81799.0
-0.15,0.08,0.96,-56.15,81820.0
-0.16,0.1,0.97,-53.77,81839.0
-0.16,0.12,0.98,-48.46,81859.0
-0.19,0.11,0.98,-39.18,81877.0
-0.2,0.07,0.94,-36.93,81895.0
-0.15,0.09,0.94,-38.76,81915.0
-0.15,0.09,0.95,-32.17,81937.0
-0.09,0.09,0.96,-32.71,81956.0
-0.15,0.12,0.97,-23.38,81976.0
-0.15,0.09,0.96,-18.92,81996.0
-0.11,0.06,0.93,-25.02,82015.0
-0.06,0.06,0.94,-27.04,82033.0
-0.08,0.1,0.97,-19.29,82052.0
-0.08,0.08,0.97,-17.46,82070.0
-0.07,0.04,0.97,-15.44,82088.0
-0.03,0.05,1.01,-19.04,82107.0
-0.05,0.12,1.0,-10.62,82127.0
-0.12,0.07,0.99,-9.95,82148.0
-0.11,-0.02,0.91,-2.81,82167.0
-0.09,-0.02,0.94,-13.73,82187.0
-0.07,-0.0,0.98,-12.08,82208.0
-0.07,0.01,1.04,-8.79,82227.0
-0.08,-0.04,0.98,5.19,82249.0
-0.04,-0.03,0.96,4.39,82269.0
-0.04,-0.0,0.99,4.76,82287.0
-0.07,-0.01,0.98,5.37,82305.0
-0.04,0.12,1.03,48.16,82692.0
-0.05,0.14,1.04,55.24,82714.0
-0.09,0.13,1.01,55.73,82736.0
-0.08,0.09,0.98,58.78,82756.0
-0.11,0.08,1.0,63.78,82774.0
-0.1,0.13,1.01,72.63,82794.0
-0.08,0.13,0.97,80.57,82814.0
-0.07,0.14,0.99,85.33,82837.0
-0.08,0.11,1.0,82.52,82857.0
-0.09,0.12,1.0,89.48,82877.0
-0.06,0.19,1.0,92.96,82897.0
0.01,0.23,1.01,91.61,82917.0
-0.08,0.23,1.06,88.5,82935.0
-0.01,0.21,1.0,95.64,82953.0
-0.03,0.22,1.0,99.18,82973.0
0.02,0.27,1.01,90.33,82994.0
-0.01,0.31,1.01,77.27,83014.0
0.04,0.3,1.04,76.35,83034.0
-0.03,0.22,0.99,80.02,83052.0
-0.08,0.17,0.95,71.29,83070.0
-0.12,0.17,0.96,65.92,83091.0
-0.09,0.19,0.96,62.07,83109.0
-0.04,0.25,0.99,58.41,83130.0
-0.04,0.23,1.01,50.78,83151.0
-0.09,0.16,1.0,47.3,83170.0
-0.14,0.15,1.01,39.43,83191.0
-0.13,0.15,0.98,39.79,83209.0
-0.07,0.19,0.98,35.46,83230.0
-0.09,0.18,1.0,35.28,83252.0
-0.13,0.16,1.0,31.01,83272.0
-0.11,0.15,0.98,30.82,83290.0
-0.04,0.16,0.99,27.53,83309.0
-0.01,0.15,1.02,29.24,83332.0
0.01,0.16,1.09,21.79,83352.0
0.01,0.17,1.13,21.3,83371.0
-0.03,0.16,1.08,24.48,83390.0
-0.0,0.17,1.01,19.65,83413.0
-0.04,0.13,0.94,21.24,83431.0
-0.07,0.09,0.86,24.23,83449.0
-0.06,0.14,0.89,20.57,83470.0
-0.02,0.19,0.92,17.58,83489.0
-0.02,0.19,0.93,17.27,83509.0
-0.03,0.21,0.96,16.97,83528.0
-0.03,0.21,0.96,16.6,83551.0
0.0,0.24,0.99,13.0,83569.0
0.0,0.28,1.01,10.19,83591.0
0.02,0.27,0.99,6.04,83609.0
0.03,0.26,1.05,3.72,83628.0
-0.02,0.28,1.04,-8.42,83647.0
-0.02,0.26,1.0,-2.62,83668.0
-0.04,0.23,0.96,-8.54,83690.0
-0.03,0.22,0.97,-10.38,83709.0
-0.05,0.22,1.01,-9.46,83728.0
-0.05,0.2,1.03,-11.6,83748.0
-0.04,0.19,1.03,-10.99,83767.0
0.0,0.21,1.03,-19.47,83789.0
-0.03,0.18,1.0,-12.7,83810.0
-0.04,0.17,0.99,-11.72,83829.0
-0.06,0.16,0.99,-9.95,83850.0
-0.06,0.16,0.96,-10.62,83869.0
0.0,0.19,0.94,-13.43,83890.0
0.0,0.21,0.95,-14.77,83911.0
0.02,0.23,0.99,-13.85,83931.0
0.0,0.22,1.01,-17.15,83950.0
0.0,0.17,0.97,-11.54,83968.0
-0.01,0.17,0.97,-15.01,83987.0
-0.01,0.18,0.97,-15.62,84009.0
-0.01,0.18,0.97,-17.15,84029.0
-0.0,0.18,0.98,-14.65,84048.0
-0.02,0.2,0.97,-13.67,84070.0
-0.03,0.16,0.94,-12.88,84093.0
-0.07,0.15,0.98,-11.47,84113.0
-0.06,0.16,0.99,-15.38,84131.0
-0.04,0.17,1.0,-14.59,84154.0
-0.05,0.17,1.01,-11.54,84174.0
-0.05,0.17,1.04,-8.42,84193.0
-0.06,0.18,1.04,-13.24,84213.0
-0.0,0.18,1.01,-10.93,84231.0
-0.0,0.2,1.0,-9.03,84249.0
-0.01,0.21,1.01,-11.72,84268.0
-0.03,0.18,0.98,-10.44,84288.0
-0.01,0.18,0.95,-11.23,84310.0
-0.03,0.16,0.95,-10.99,84331.0
-0.05,0.21,0.91,-15.26,84351.0
-0.03,0.17,0.98,-11.05,84372.0
-0.03,0.15,0.97,-11.72,84392.0
-0.03,0.13,0.96,-7.69,84410.0
-0.04,0.13,0.98,-5.92,84431.0
-0.04,0.18,1.01,-6.53,84450.0
-0.02,0.18,1.0,-7.63,84470.0
-0.03,0.18,1.0,-4.82,84488.0
-0.04,0.15,0.96,-1.46,84509.0
-0.02,0.16,0.96,-3.3,84529.0
-0.03,0.18,0.98,-0.98,84547.0
-0.05,0.2,0.98,-0.73,84568.0
-0.05,0.17,0.98,2.62,84589.0
-0.04,0.16,0.95,8.12,84610.0
-0.03,0.17,1.0,1.65,84631.0
-0.07,0.22,0.99,4.39,84649.0
-0.08,0.21,0.99,4.52,84668.0
-0.05,0.19,0.97,10.62,84687.0
-0.05,0.18,0.94,8.42,84708.0
-0.02,0.23,1.01,3.66,84727.0
-0.03,0.25,0.99,4.39,84748.0
-0.03,0.23,0.99,6.84,84766.0
-0.03,0.21,0.97,10.01,84785.0
-0.05,0.21,0.96,7.87,84803.0
-0.03,0.24,0.96,-0.18,84821.0
-0.02,0.23,0.98,1.65,84839.0
-0.05,0.21,0.97,8.48,84859.0
-0.04,0.25,0.98,3.17,84878.0
-0.03,0.27,0.99,3.97,84898.0
-0.02,0.29,0.97,4.09,84918.0
-0.03,0.26,0.95,3.91,84936.0
-0.04,0.27,0.95,-2.38,84956.0
-0.04,0.26,0.93,0.73,84975.0
-0.05,0.27,0.93,5.19,84994.0
-0.04,0.27,0.93,3.05,85011.0
-0.05,0.27,0.95,4.88,85030.0
-0.06,0.3,0.99,4.09,85048.0
-0.04,0.31,0.99,-2.01,85068.0
-0.05,0.27,0.94,0.24,85089.0
-0.06,0.29,0.96,1.22,85107.0
-0.05,0.31,0.96,0.49,85127.0
-0.05,0.29,0.95,0.12,85148.0
-0.06,0.29,0.95,0.31,85168.0
-0.08,0.29,0.96,1.59,85189.0
-0.07,0.27,0.92,1.89,85210.0
-0.03,0.32,0.92,3.66,85229.0
-0.07,0.32,1.01,12.63,85247.0
-0.04,0.32,0.98,8.48,85266.0
-0.11,0.3,1.16,15.26,85286.0
-0.09,0.36,0.89,4.46,85306.0
-0.06,0.41,0.53,-1.83,85324.0
-0.09,0.37,1.06,-0.92,85343.0
-0.08,0.37,1.03,2.01,85361.0
-0.04,0.31,0.94,6.53,85380.0
-0.05,0.36,0.95,-8.0,85399.0
-0.05,0.32,0.92,-3.91,85417.0
-0.07,0.31,0.93,-0.18,85438.0
-0.08,0.32,0.94,-5.07,85458.0
-0.06,0.33,0.93,-5.19,85476.0
-0.08,0.32,0.95,-3.42,85495.0
-0.09,0.3,0.93,-0.73,85513.0
-0.1,0.33,0.97,-6.84,85536.0
-0.09,0.36,0.98,-5.31,85555.0
-0.12,0.32,0.97,-1.89,85573.0
-0.12,0.32,0.97,-7.81,85596.0
-0.12,0.36,0.99,-7.75,85614.0
-0.1,0.35,0.96,-7.93,85633.0
-0.1,0.38,1.01,-6.23,85652.0
-0.07,0.45,1.07,-20.02,85670.0
-0.09,0.51,1.15,-5.0,85689.0
-0.05,0.47,1.15,-3.78,85709.0
-0.2,0.48,1.1,-7.75,85727.0
-0.2,0.49,1.08,-28.69,85745.0
-0.15,0.47,1.02,-46.63,85763.0
-0.15,0.45,0.95,-54.5,85782.0
-0.17,0.41,0.89,-58.96,85807.0
-0.17,0.38,0.84,-69.09,85828.0
-0.17,0.37,0.81,-77.15,85848.0
-0.17,0.39,0.84,-81.67,85870.0
-0.23,0.37,0.86,-84.9,85892.0
-0.25,0.36,0.85,-89.6,85910.0
-0.23,0.33,0.8,-95.21,85929.0
-0.22,0.24,0.79,-96.56,85952.0
-0.25,0.24,0.82,-93.08,85972.0
-0.24,0.28,0.89,-96.86,85993.0
-0.26,0.31,0.96,-108.34,86013.0
-0.24,0.3,0.97,-106.93,86033.0
-0.27,0.2,0.92,-114.26,86051.0
-0.26,0.2,0.92,-99.98,86069.0
-0.27,0.2,0.9,-95.52,86089.0
-0.28,0.19,0.93,-99.67,86110.0
-0.22,0.21,0.94,-107.97,86131.0
-0.21,0.24,0.98,-109.5,86153.0
-0.19,0.2,1.0,-110.72,86173.0
-0.21,0.14,1.01,-115.42,86194.0
-0.24,0.1,0.98,-108.89,86217.0
-0.21,0.07,0.95,-117.43,86237.0
-0.2,0.04,0.96,-115.54,86258.0
-0.21,0.0,0.95,-100.89,86277.0
-0.26,-0.03,0.92,-106.02,86295.0
-0.28,-0.04,0.94,-100.22,86316.0
-0.31,-0.06,0.92,-99.0,86337.0
-0.27,-0.07,0.95,-110.66,86361.0
-0.31,-0.12,0.94,-95.58,86379.0
-0.35,-0.12,0.93,-101.62,86398.0
-0.37,-0.12,0.91,-110.11,86419.0
-0.34,-0.14,0.88,-80.87,86438.0
-0.37,-0.2,0.87,-76.17,86457.0
-0.34,-0.17,0.9,-70.01,86477.0
-0.31,-0.16,0.93,-80.81,86497.0
-0.37,-0.2,0.94,-68.18,86517.0
-0.43,-0.28,0.89,-61.34,86536.0
-0.31,-0.26,0.82,-70.74,86556.0
-0.28,-0.27,0.82,-72.39,86577.0
-0.3,-0.24,0.82,-53.89,86597.0
-0.35,-0.27,0.91,-69.21,86618.0
-0.27,-0.32,0.89,-86.73,86637.0
-0.28,-0.37,0.87,-80.63,86657.0
-0.27,-0.36,0.92,-79.53,86677.0
-0.29,-0.42,0.91,-65.06,86697.0
-0.25,-0.44,0.93,-74.65,86715.0
-0.21,-0.5,0.92,-72.02,86734.0
-0.21,-0.51,0.93,-55.79,86752.0
-0.24,-0.48,0.94,-52.25,86773.0
-0.23,-0.48,0.93,-52.73,86793.0
-0.21,-0.6,0.83,-36.38,86814.0
-0.16,-0.58,0.81,-29.42,86835.0
-0.15,-0.5,0.86,-42.3,86853.0
-0.17,-0.54,0.89,-48.52,86871.0
-0.22,-0.64,0.8,-17.64,86894.0
-0.15,-0.67,0.72,-23.19,86914.0
-0.17,-0.61,0.81,-27.47,86936.0
-0.19,-0.57,0.91,-29.72,86954.0
-0.18,-0.55,0.91,-23.13,86975.0
-0.15,-0.51,0.87,-12.94,86994.0
-0.16,-0.59,0.78,-7.02,87014.0
-0.2,-0.61,0.77,-13.49,87033.0
-0.17,-0.59,0.76,-13.79,87051.0
-0.23,-0.61,0.74,-3.91,87069.0
-0.26,-0.62,0.71,-10.38,87087.0
-0.25,-0.59,0.66,-5.13,87105.0
-0.22,-0.53,0.7,-2.14,87124.0
-0.23,-0.51,0.72,-5.31,87144.0
-0.24,-0.48,0.78,-7.2,87164.0
-0.21,-0.44,0.81,-5.68,87185.0
-0.24,-0.49,0.78,-7.39,87204.0
-0.19,-0.49,0.81,-13.18,87223.0
-0.2,-0.52,0.8,-5.68,87243.0
-0.19,-0.55,0.76,-8.06,87262.0
-0.14,-0.51,0.77,-13.12,87280.0
-0.13,-0.48,0.83,-14.4,87298.0
-0.1,-0.43,0.88,-16.72,87316.0
-0.07,-0.43,0.89,-17.27,87336.0
-0.08,-0.45,0.88,-20.87,87356.0
-0.07,-0.49,0.87,-14.77,87374.0
-0.02,-0.51,0.81,-22.52,87394.0
-0.06,-0.46,0.84,-9.03,87415.0
-0.06,-0.42,0.9,-22.77,87433.0
-0.05,-0.45,0.9,-24.23,87454.0
-0.03,-0.5,0.85,-26.49,87475.0
0.01,-0.52,0.8,-25.63,87495.0
0.04,-0.52,0.78,-22.71,87515.0
0.03,-0.47,0.79,-21.36,87534.0
0.04,-0.5,0.83,-32.53,87556.0
0.05,-0.53,0.89,-43.95,87576.0
0.12,-0.67,0.85,-42.97,87595.0
0.13,-0.7,0.92,-16.97,87613.0
0.07,-0.79,0.98,-4.39,87632.0
0.07,-0.84,1.03,6.53,87651.0
0.07,-0.79,1.05,15.87,87670.0
0.09,-0.72,1.01,30.15,87691.0
0.11,-0.71,0.96,29.24,87710.0
0.09,-0.72,0.91,41.32,87729.0
0.11,-0.72,0.91,39.31,87751.0
0.07,-0.7,0.94,46.08,87770.0
0.04,-0.69,0.94,54.99,87788.0
0.06,-0.7,0.9,55.85,87808.0
0.09,-0.69,0.88,61.65,87826.0
0.04,-0.64,0.9,67.44,87846.0
0.02,-0.57,0.91,69.34,87864.0
0.04,-0.59,0.91,69.7,87884.0
0.0,-0.62,0.88,81.12,87904.0
-0.03,-0.59,0.85,83.25,87926.0
-0.04,-0.53,0.86,86.61,87947.0
-0.07,-0.48,0.83,95.34,87967.0
-0.07,-0.44,0.8,92.04,87987.0
-0.04,-0.5,0.8,89.48,88006.0
-0.13,-0.58,0.85,106.2,88025.0
-0.15,-0.48,0.92,102.36,88050.0
-0.11,-0.41,0.89,95.95,88068.0
-0.1,-0.43,0.85,99.24,88087.0
-0.11,-0.47,0.78,104.49,88108.0
-0.14,-0.55,0.77,103.64,88127.0
-0.14,-0.54,0.78,107.54,88146.0
-0.14,-0.49,0.8,114.26,88165.0
-0.13,-0.38,0.8,115.84,88185.0
-0.15,-0.37,0.78,117.49,88206.0
-0.21,-0.43,0.77,123.47,88225.0
-0.23,-0.43,0.79,112.12,88246.0
-0.25,-0.36,0.84,114.38,88264.0
-0.27,-0.41,0.86,113.89,88282.0
-0.29,-0.39,0.88,125.0,88302.0
-0.3,-0.33,0.89,120.91,88322.0
-0.29,-0.26,0.9,112.3,88340.0
-0.26,-0.23,0.88,103.7,88360.0
-0.32,-0.31,0.88,110.29,88379.0
-0.35,-0.33,0.82,114.93,88399.0
-0.28,-0.23,0.8,100.34,88423.0
-0.23,-0.2,0.8,92.77,88443.0
-0.33,-0.21,0.92,88.87,88463.0
-0.35,-0.22,0.97,83.31,88482.0
-0.34,-0.18,0.98,79.96,88504.0
-0.34,-0.13,0.99,66.77,88524.0
-0.33,-0.13,1.02,58.35,88542.0
-0.41,-0.16,1.02,61.34,88563.0
-0.37,-0.19,0.94,56.58,88582.0
-0.35,-0.2,0.89,54.87,88601.0
-0.38,-0.24,0.89,54.87,88622.0
-0.4,-0.2,0.88,52.86,88641.0
-0.4,-0.13,0.91,47.3,88662.0
-0.38,-0.12,0.9,33.51,88681.0
-0.34,-0.13,0.9,21.97,88699.0
-0.4,-0.08,0.96,19.35,88719.0
-0.43,-0.09,1.01,12.33,88739.0
-0.41,-0.2,1.0,8.54,88757.0
-0.46,-0.25,0.97,21.61,88777.0
-0.45,-0.22,0.96,15.08,88796.0
-0.44,-0.22,0.95,8.85,88817.0
-0.51,-0.16,1.0,12.88,88835.0
-0.53,-0.14,0.97,3.78,88856.0
-0.53,-0.18,0.9,7.32,88874.0
-0.56,-0.23,0.86,5.0,88892.0
-0.61,-0.23,0.91,2.93,88914.0
-0.62,-0.18,0.92,-4.58,88932.0
-0.59,-0.09,0.96,-11.78,88950.0
-0.54,-0.03,1.0,-11.11,88972.0
-0.54,-0.08,1.0,-12.51,88991.0
-0.55,-0.1,0.99,-19.65,89009.0
-0.53,-0.11,0.94,-33.14,89029.0
-0.47,-0.08,0.91,-42.85,89047.0
-0.47,-0.09,0.89,-39.31,89065.0
-0.48,-0.07,0.89,-41.44,89085.0
-0.44,-0.04,0.88,-49.07,89104.0
-0.4,-0.05,0.87,-34.61,89124.0
-0.46,-0.05,0.99,-49.93,89142.0
-0.45,-0.12,0.94,-51.82,89161.0
-0.39,-0.06,0.87,-72.27,89185.0
-0.33,-0.04,0.84,-73.18,89203.0
-0.35,-0.09,0.86,-69.95,89223.0
-0.35,-0.14,0.82,-72.2,89243.0
-0.32,-0.16,0.77,-73.3,89263.0
-0.22,-0.11,0.77,-93.44,89282.0
-0.2,-0.17,0.79,-91.06,89301.0
-0.21,-0.22,0.82,-91.98,89322.0
-0.23,-0.23,0.83,-86.0,89341.0
-0.21,-0.23,0.81,-93.32,89359.0
-0.15,-0.26,0.78,-99.55,89378.0
-0.11,-0.34,0.79,-93.81,89398.0
-0.16,-0.4,0.86,-92.35,89417.0
-0.22,-0.39,0.94,-105.22,89439.0
-0.14,-0.39,0.95,-101.44,89458.0
-0.14,-0.41,0.95,-85.02,89478.0
-0.13,-0.39,0.94,-93.14,89498.0
-0.11,-0.37,0.94,-94.6,89516.0
-0.1,-0.4,0.97,-88.13,89538.0
-0.13,-0.45,1.01,-83.92,89556.0
-0.09,-0.45,1.02,-88.38,89575.0
-0.05,-0.45,1.02,-80.44,89596.0
-0.02,-0.45,1.02,-78.06,89616.0
-0.02,-0.47,1.02,-73.3,89634.0
0.05,-0.47,1.06,-71.04,89655.0
-0.01,-0.48,1.08,-46.69,89675.0
0.02,-0.46,1.0,-43.15,89698.0
0.04,-0.48,0.95,-35.58,89716.0
0.05,-0.51,0.91,-25.82,89737.0
0.04,-0.5,0.92,-17.21,89758.0
0.05,-0.47,0.95,-13.67,89778.0
0.04,-0.48,0.93,-6.9,89800.0
0.09,-0.5,0.92,-9.7,89819.0
0.09,-0.51,0.91,1.59,89838.0
0.13,-0.49,0.95,3.05,89862.0
0.13,-0.5,0.98,9.46,89880.0
0.1,-0.49,0.94,33.63,89905.0
0.12,-0.45,0.92,28.26,89925.0
0.12,-0.43,0.95,20.87,89944.0
0.08,-0.45,0.96,31.8,89965.0
0.06,-0.49,0.9,43.4,89984.0
0.1,-0.56,0.86,62.19,90007.0
0.14,-0.38,1.02,54.81,90026.0
0.09,-0.11,0.99,57.62,90045.0
0.14,-0.38,1.04,107.85,90066.0
0.05,-0.36,1.01,59.81,90084.0
0.05,-0.2,1.03,57.25,90108.0
0.09,-0.22,1.03,61.95,90127.0
0.06,-0.25,0.98,76.9,90145.0
0.05,-0.2,0.97,84.66,90166.0
-0.05,-0.07,1.06,88.01,90189.0
-0.13,0.05,1.1,84.41,90212.0
-0.13,-0.03,1.09,75.44,90233.0
-0.19,-0.04,1.02,81.42,90252.0
-0.02,-0.15,1.08,95.52,90272.0
-0.1,-0.12,1.16,51.88,90290.0
-0.09,-0.01,1.17,108.46,90310.0
-0.11,-0.05,1.24,139.04,90329.0
-0.2,0.11,1.22,190.37,90350.0
-0.28,0.9,0.62,407.78,90370.0
7.69,-3.08,-0.87,-1067.87,90388.0
-0.62,0.65,-0.63,382.81,90407.0
-0.37,-0.27,-0.5,88.87,90425.0
-0.36,-0.34,-0.79,318.42,90443.0
-2.13,0.57,-1.54,-1317.99,90461.0
0.39,-0.35,-0.83,-652.47,90481.0
0.25,-1.5,-0.99,858.64,90500.0
-0.13,-0.5,-1.1,-462.46,90519.0
-0.7,0.21,1.5,20.32,90537.0
-0.02,1.11,1.63,-369.02,90557.0
-0.32,0.57,0.81,-719.97,90576.0
-0.46,0.4,0.44,-561.4,90595.0
-0.28,-0.78,0.67,111.69,90616.0
-0.46,0.11,0.22,-230.41,90634.0
-0.64,0.1,0.06,-381.16,90652.0
-1.51,-0.25,0.41,-41.69,90672.0
-0.96,-0.03,0.3,151.55,90691.0
-0.24,1.03,1.74,175.35,90715.0
-1.68,0.21,0.81,159.0,90735.0
-0.55,0.19,0.86,-51.39,90756.0
-0.32,0.17,0.52,-102.11,90776.0
-0.71,0.29,0.37,-228.7,90794.0
-1.15,0.58,0.92,214.48,90813.0
-0.2,0.18,1.01,256.16,90833.0
-0.18,0.04,0.43,77.15,90851.0
-0.31,0.13,1.22,166.69,90871.0
-0.04,0.88,1.93,230.83,90889.0
-0.11,0.69,0.93,-78.12,90909.0
-0.07,0.45,1.0,-56.27,90927.0
-0.04,0.27,0.7,-7.93,90946.0
-0.09,0.22,0.91,-19.17,90965.0
-0.1,0.2,0.96,97.72,90989.0
-0.14,0.08,0.98,91.55,91009.0
-0.07,0.09,1.03,87.89,91030.0
-0.11,0.13,1.08,36.13,91051.0
-0.15,0.22,1.04,-18.62,91070.0
-0.05,0.25,0.95,-37.11,91090.0
-0.22,0.24,0.89,-33.14,91110.0
-0.28,0.19,0.9,3.17,91133.0
-0.27,0.22,0.89,13.98,91151.0
-0.23,0.29,0.88,22.58,91174.0
-0.14,0.27,0.91,7.2,91193.0
-0.17,0.36,1.02,-7.81,91213.0
-0.17,0.4,0.89,-10.5,91234.0
-0.22,0.32,0.92,-22.71,91252.0
-0.33,0.33,0.93,-21.97,91272.0
-0.37,0.27,0.83,3.05,91292.0
-0.27,0.2,0.86,-21.42,91312.0
-0.32,0.22,0.88,5.43,91335.0
-0.27,0.35,0.91,35.34,91356.0
-0.17,0.33,0.87,38.02,91374.0
-0.19,0.44,0.92,7.75,91396.0
-0.18,0.42,0.92,2.2,91414.0
-0.12,0.36,0.97,-3.91,91433.0
-0.11,0.42,0.92,-43.58,91452.0
-0.08,0.47,0.95,-43.76,91473.0
-0.44,0.11,0.69,184.81,91497.0
-0.43,0.46,0.57,3.6,91517.0
-0.47,0.33,0.99,-178.89,91535.0
-0.0,0.75,0.71,-344.79,91555.0
0.4,0.99,0.87,-346.19,91573.0
1.19,0.97,0.95,-1.77,91594.0
-0.1,0.69,0.96,240.78,91614.0
-0.32,0.78,0.98,160.58,91633.0
-0.26,0.81,1.09,-12.57,91653.0
-0.04,0.7,1.18,-104.74,91671.0
0.11,0.77,1.04,-117.19,91690.0
0.14,0.83,0.77,-105.96,91708.0
0.1,0.86,0.64,-99.37,91726.0
0.06,0.8,0.69,-11.54,91748.0
-0.02,0.65,0.82,68.85,91767.0
-0.1,0.54,0.89,62.07,91785.0
-0.19,0.52,0.85,13.92,91806.0
-0.19,0.51,0.7,-69.95,91826.0
-0.12,0.53,0.65,-146.0,91848.0
-0.06,0.41,0.71,-131.16,91866.0
-0.03,0.41,0.74,-67.75,91884.0
-0.13,0.35,0.67,36.13,91905.0
-0.32,0.38,0.54,110.41,91924.0
-0.44,0.48,0.45,52.25,91945.0
-0.41,0.52,0.49,-51.03,91964.0
-0.33,0.44,0.58,-97.66,91982.0
-0.28,0.27,0.55,-10.19,92002.0
-0.44,0.29,0.38,139.89,92022.0
-0.65,0.46,0.27,205.02,92045.0
-0.76,0.53,0.32,180.97,92064.0
-0.76,0.56,0.47,123.9,92084.0
-0.7,0.58,0.6,36.74,92106.0
-0.6,0.47,0.66,4.82,92125.0
-0.54,0.59,0.57,14.53,92146.0
-0.56,0.71,0.49,16.66,92165.0
-0.56,0.77,0.41,19.41,92184.0
-0.57,0.83,0.33,20.87,92205.0
-0.53,0.86,0.32,10.44,92224.0
-0.45,0.9,0.3,-3.66,92245.0
-0.41,0.88,0.28,10.44,92264.0
-0.46,0.85,0.26,50.42,92285.0
-0.54,0.78,0.22,86.73,92305.0
-0.66,0.71,0.17,108.76,92323.0
-0.84,0.72,0.12,71.53,92345.0
-0.82,0.62,0.13,-15.38,92367.0
-0.69,0.71,0.2,-79.9,92387.0
-0.62,0.8,0.29,-74.77,92405.0
-0.6,0.89,0.3,18.07,92423.0
-0.71,0.7,0.28,106.93,92444.0
-1.24,0.22,0.19,85.33,92464.0
-0.97,0.77,0.17,-151.0,92485.0
-0.81,0.71,0.26,-227.84,92503.0
-0.66,0.6,0.36,-224.0,92522.0
-0.62,0.6,0.27,-132.75,92543.0
-0.49,0.65,0.18,19.84,92562.0
-1.04,0.59,-0.01,131.1,92582.0
-1.06,0.57,-0.05,59.57,92603.0
-0.94,0.47,-0.01,7.51,92624.0
-0.87,0.5,0.0,-19.96,92644.0
-0.86,0.55,0.01,-21.55,92665.0
-0.83,0.5,0.04,-30.03,92687.0
-0.69,0.55,0.05,-24.72,92706.0
-0.82,0.56,0.01,-28.99,92726.0
-0.9,0.54,-0.07,-66.1,92745.0
-0.9,0.5,-0.05,-96.62,92768.0
-0.93,0.54,0.13,-130.31,92788.0
-1.08,0.55,-0.05,-31.74,92807.0
-0.89,0.53,0.1,-60.67,92825.0
-0.92,0.47,0.04,-35.83,92845.0
-0.91,0.44,0.04,-37.41,92864.0
-0.95,0.46,0.04,-79.9,92885.0
-0.86,0.48,0.16,-84.47,92903.0
-0.92,0.44,0.11,-44.13,92923.0
-0.95,0.42,0.1,-19.78,92942.0
-0.93,0.44,0.12,-28.38,92963.0
-0.96,0.42,0.13,-27.71,92983.0
-0.99,0.38,0.15,-45.53,93002.0
-0.98,0.34,0.17,-48.52,93020.0
-0.96,0.37,0.18,-39.18,93038.0
-0.97,0.35,0.17,-31.74,93057.0
-1.02,0.33,0.17,-37.29,93079.0
-0.99,0.34,0.17,-48.4,93097.0
-0.98,0.37,0.14,-32.47,93115.0
-0.91,0.39,0.14,-28.26,93134.0
-0.92,0.42,0.11,-27.65,93153.0
-0.85,0.57,0.07,-40.28,93175.0
-0.88,0.51,0.16,-32.47,93194.0
-0.87,0.44,0.2,-26.73,93215.0
-0.95,0.4,0.16,-17.52,93235.0
-0.84,0.46,0.19,-31.19,93256.0
-0.8,0.32,0.21,-25.57,93276.0
-0.79,0.24,0.25,3.42,93295.0
-0.94,0.2,0.25,19.9,93314.0
-0.91,0.22,0.24,8.85,93332.0
-0.86,0.23,0.25,14.59,93350.0
-0.88,0.3,0.27,25.02,93368.0
-0.93,0.36,0.27,28.81,93388.0
-0.98,0.37,0.27,40.41,93406.0
-1.04,0.47,0.34,32.29,93425.0
-1.01,0.54,0.42,9.46,93445.0
-0.9,0.57,0.43,-16.48,93465.0
-0.99,0.44,0.47,11.54,93488.0
-0.93,0.26,0.54,-2.32,93507.0
-0.94,0.13,0.55,-10.93,93530.0
-1.13,0.15,0.28,-49.01,93549.0
-1.05,0.11,0.23,-49.93,93568.0
-1.1,0.07,0.39,12.76,93587.0
-1.16,0.02,0.41,35.03,93607.0
-1.03,0.03,0.31,47.18,93628.0
-0.78,-0.0,0.2,57.25,93646.0
-1.06,0.02,-0.1,31.37,93666.0
-0.93,-0.05,0.01,38.7,93686.0
-0.87,-0.1,0.09,45.78,93706.0
-0.82,-0.14,0.02,34.61,93725.0
-0.83,-0.14,-0.16,2.01,93745.0
-0.8,-0.18,-0.08,-10.5,93764.0
-0.77,-0.19,-0.07,-11.11,93786.0
-0.78,-0.13,-0.19,-15.2,93805.0
-0.91,-0.12,-0.31,-3.66,93823.0
-0.83,-0.14,-0.21,-23.74,93843.0
-0.79,-0.03,-0.03,3.54,93862.0
-1.17,0.07,0.36,0.24,93883.0
-0.97,0.22,0.17,-63.05,93901.0
-0.92,0.3,0.13,-83.74,93920.0
-0.93,0.37,0.17,-94.85,93940.0
-1.03,0.54,0.15,-90.09,93958.0
-1.12,0.8,0.08,-87.46,93977.0
-0.95,0.74,0.09,20.81,93997.0
-1.28,0.45,0.17,72.75,94015.0
-1.13,0.43,0.09,-66.65,94034.0
-0.9,0.59,0.05,-118.16,94055.0
-0.9,0.65,0.03,-126.65,94076.0
-1.02,0.5,0.07,-50.6,94097.0
-0.98,0.42,0.05,-55.97,94115.0
-1.05,0.28,-0.08,-53.47,94133.0
-1.02,0.17,-0.04,-49.74,94151.0
-0.98,0.18,-0.01,-37.41,94170.0
-0.89,0.31,0.14,-39.25,94192.0
-0.79,0.36,0.17,-1.4,94212.0
-0.85,0.32,0.25,21.06,94232.0
-0.65,0.08,0.21,72.51,94254.0
-1.13,0.25,0.13,118.59,94272.0
-1.49,0.52,0.11,6.77,94293.0
-0.93,0.52,1.17,-46.57,94312.0
-0.88,0.35,0.31,23.56,94332.0
-0.89,0.13,0.29,9.03,94352.0
-0.78,0.16,0.27,-138.31,94372.0
-0.59,0.06,0.32,-24.84,94395.0
-0.72,0.09,0.22,35.58,94415.0
-0.77,0.17,0.18,71.53,94437.0
-0.74,0.12,0.17,89.36,94456.0
-0.84,0.41,0.23,151.18,94477.0
-0.8,0.63,1.1,141.3,94497.0
-0.56,0.1,0.44,74.16,94517.0
-0.31,0.01,0.2,173.52,94537.0
-0.67,0.12,1.09,401.67,94555.0
-0.72,0.38,0.98,199.89,94573.0
-0.35,0.74,0.96,110.84,94594.0
-0.19,0.3,0.77,29.72,94612.0
-0.05,0.32,0.84,75.93,94630.0
0.17,0.3,0.89,122.56,94650.0
0.04,0.41,0.98,1.95,94669.0
-0.08,0.43,0.99,-29.17,94686.0
-0.03,0.26,1.01,-27.04,94707.0
-0.04,0.27,0.95,-4.27,94727.0
-0.04,0.29,0.91,-5.8,94746.0
-0.05,0.26,0.95,-4.21,94767.0
-0.04,0.27,0.95,15.01,94788.0
-0.01,0.31,0.96,17.15,94809.0
0.05,0.32,1.05,13.24,94830.0
0.01,0.32,0.91,-1.16,94848.0
-0.01,0.3,0.95,-14.89,94867.0
-0.02,0.28,0.97,-4.46,94885.0
-0.01,0.3,0.93,7.81,94907.0
-0.0,0.3,0.94,3.54,94925.0
0.02,0.3,1.01,4.46,94943.0
-0.0,0.3,0.93,-0.31,94963.0
-0.0,0.3,0.97,-2.26,94983.0
-0.0,0.3,0.95,2.56,95001.0
0.0,0.3,0.95,2.14,95020.0
0.01,0.3,0.96,0.43,95038.0
0.01,0.29,0.95,-0.92,95057.0
0.01,0.29,0.95,0.67,95076.0
0.01,0.3,0.95,-0.06,95095.0
-0.03,0.26,0.99,42.72,95115.0
0.04,0.34,0.91,22.71,95134.0
-0.01,0.29,0.94,9.4,95152.0
0.01,0.31,0.96,8.61,95172.0
0.0,0.3,0.96,8.48,95189.0
0.01,0.31,0.95,10.13,95209.0
-0.05,0.29,0.97,11.47,95229.0
-0.16,0.28,0.96,-7.63,95247.0
0.04,0.26,0.95,-37.11,95265.0
0.07,0.29,1.03,-15.81,95285.0
-0.04,0.29,0.95,-21.85,95305.0
0.02,0.33,0.91,-33.94,95326.0
0.01,0.25,0.96,-27.28,95344.0
-0.23,0.1,1.01,-52.67,95363.0
0.03,0.34,0.9,-71.41,95385.0
0.31,0.38,0.86,-90.88,95405.0
0.04,0.22,0.95,17.94,95425.0
-0.03,0.32,0.9,-25.33,95447.0
0.08,0.31,0.99,-16.78,95465.0
-0.04,0.3,0.99,-10.8,95487.0
0.03,0.3,0.91,-15.87,95505.0
0.06,0.3,0.98,3.48,95525.0
-0.01,0.29,0.93,9.28,95547.0
0.04,0.31,0.92,2.87,95567.0
0.06,0.29,0.94,6.71,95587.0
0.0,0.29,0.96,0.67,95606.0
-0.03,0.3,0.95,6.04,95627.0
0.03,0.28,0.95,0.92,95646.0
0.01,0.3,0.95,4.39,95663.0
-0.0,0.3,0.96,2.14,95681.0
0.04,0.27,0.96,4.39,95699.0
0.0,0.29,0.95,5.98,95718.0
0.01,0.31,0.94,7.87,95736.0
-0.01,0.29,0.94,7.2,95756.0
0.03,0.32,1.02,3.97,95777.0
0.02,0.28,0.95,-2.87,95796.0
0.01,0.31,0.96,8.3,95814.0
-0.0,0.31,0.97,-1.65,95838.0
0.01,0.28,0.96,-2.87,95856.0
0.0,0.29,0.95,-0.67,95876.0
0.01,0.29,0.95,-1.1,95897.0
0.01,0.29,0.95,-1.28,95915.0
0.0,0.29,0.95,-0.92,95935.0
0.01,0.29,0.95,-0.55,95953.0
0.01,0.3,0.96,-0.61,95972.0
0.01,0.3,0.95,-0.67,95992.0
0.01,0.3,0.95,-0.24,96011.0
0.01,0.29,0.95,0.12,96028.0
0.01,0.29,0.96,0.24,96048.0
0.01,0.29,0.95,0.18,96066.0
0.01,0.3,0.95,0.12,96087.0
0.01,0.29,0.95,-0.18,96104.0
0.01,0.29,0.96,-0.43,96125.0
0.01,0.29,0.95,-0.67,96145.0
0.01,0.29,0.95,-0.92,96166.0
0.01,0.29,0.95,-0.85,96188.0
0.01,0.29,0.95,-1.1,96207.0
0.0,0.3,0.95,-1.34,96226.0
0.0,0.3,0.95,-1.28,96248.0
0.0,0.29,0.96,-1.16,96267.0
0.01,0.3,0.95,-0.85,96287.0
0.0,0.3,0.96,-0.67,96306.0
0.01,0.29,0.95,0.06,96327.0
0.01,0.3,0.95,-0.12,96348.0
0.01,0.3,0.95,0.0,96366.0
0.01,0.3,0.95,-0.24,96386.0
0.02,0.29,0.95,-1.95,96404.0
0.02,0.3,0.95,-3.42,96424.0
0.01,0.3,0.96,-1.77,96446.0
0.01,0.29,0.95,-1.1,96464.0
0.01,0.29,0.95,-0.92,96482.0
0.01,0.3,0.95,-0.55,96503.0
0.0,0.3,0.95,-1.83,96520.0
-0.02,0.31,0.95,-8.24,96542.0
0.03,0.29,0.96,-3.66,96562.0
0.0,0.29,0.97,-1.1,96581.0
-0.0,0.29,0.98,-13.43,96601.0
0.01,0.3,0.95,1.1,96626.0
-0.04,0.26,0.93,-0.85,96648.0
0.01,0.29,0.95,0.18,96669.0
0.02,0.3,0.95,1.16,96693.0
0.01,0.29,0.95,-0.06,96713.0
0.01,0.29,0.95,-0.31,96735.0
0.01,0.29,0.95,0.0,96752.0
0.01,0.29,0.95,-0.12,96770.0
0.01,0.29,0.95,-0.24,96794.0
