Acc_X,Acc_Y,Acc_Z,Rot_Z,Millis
0.37,-0.266,-0.84,151.672,1505270
0.281,-0.599,-1.308,202.759,1505275
0.281,-0.599,-1.308,216.248,1505280
0.25,-0.367,-0.923,215.027,1505286
0.25,-0.367,-0.923,160.522,1505291
0.277,-0.358,-0.673,-42.847,1505296
-0.056,-0.601,-0.877,-28.381,1505302
-0.056,-0.601,-0.877,254.578,1505307
-0.092,-0.386,-1.043,154.419,1505312
-0.092,-0.386,-1.043,109.863,1505318
-0.184,-0.309,-1.02,119.08,1505323
-0.184,-0.309,-1.02,87.83,1505329
-0.187,-0.394,-0.907,56.213,1505334
-0.187,-0.394,-0.907,33.264,1505339
-0.219,-0.41,-0.939,-13.55,1505344
-0.219,-0.41,-0.939,-51.025,1505350
-0.077,-0.351,-1.0,-68.909,1505355
-0.077,-0.351,-1.0,-116.211,1505361
0.248,-0.349,-0.977,-312.378,1505366
0.381,-0.257,-0.8,-356.873,1505371
0.381,-0.257,-0.8,-355.835,1505377
0.154,-0.309,-1.095,-294.25,1505382
0.154,-0.309,-1.095,-198.853,1505387
0.21,-0.286,-1.007,-158.569,1505393
0.21,-0.286,-1.007,-123.657,1505398
0.191,-0.259,-0.714,-40.649,1505404
0.191,-0.259,-0.714,48.584,1505409
0.202,-0.298,-0.925,148.743,1505414
0.202,-0.298,-0.925,227.6,1505419
0.251,-0.127,-0.545,272.156,1505425
-0.085,-0.243,-1.368,253.967,1505430
-0.085,-0.243,-1.368,162.476,1505435
0.079,-0.333,-0.989,102.539,1505441
0.079,-0.333,-0.989,49.744,1505446
0.132,-0.351,-0.942,17.09,1505451
0.132,-0.351,-0.942,-9.46,1505457
0.14,-0.288,-0.847,-57.007,1505462
0.14,-0.288,-0.847,-50.171,1505467
-0.705,-0.378,-1.226,251.77,1505473
-0.705,-0.378,-1.226,348.572,1505478
-0.122,-0.246,-0.934,140.991,1505483
-0.122,-0.246,-0.934,73.12,1505489
0.074,-0.279,-0.847,136.902,1505494
0.074,-0.279,-0.847,127.93,1505499
-0.177,-0.309,-1.087,82.458,1505505
0.012,-0.255,-0.959,77.576,1505510
0.012,-0.255,-0.959,54.871,1505515
0.059,-0.217,-0.933,68.481,1505521
0.059,-0.217,-0.933,69.946,1505526
0.031,-0.253,-0.977,64.209,1505531
0.031,-0.253,-0.977,80.2,1505536
0.078,-0.344,-0.944,83.984,1505542
0.078,-0.344,-0.944,93.872,1505547
0.021,-0.234,-0.952,99.304,1505552
0.021,-0.234,-0.952,85.51,1505557
0.026,-0.284,-0.938,72.144,1505563
0.026,-0.284,-0.938,86.243,1505568
-0.067,-0.403,-1.088,91.187,1505573
-0.067,-0.403,-1.088,62.744,1505579
-0.102,-0.281,-0.917,23.438,1505584
-0.128,-0.349,-0.962,13.184,1505589
-0.128,-0.349,-0.962,1.77,1505595
0.035,-0.309,-0.958,-1.221,1505600
0.035,-0.309,-0.958,1.221,1505605
0.057,-0.298,-0.96,0.61,1505610
0.057,-0.298,-0.96,0.0,1505615
0.039,-0.303,-0.959,0.488,1505621
0.039,-0.303,-0.959,0.854,1505626
0.04,-0.302,-0.966,1.16,1505631
0.04,-0.302,-0.966,2.869,1505636
0.037,-0.303,-0.982,3.723,1505641
0.037,-0.303,-0.982,4.395,1505647
0.032,-0.3,-0.955,4.395,1505652
0.032,-0.3,-0.955,2.991,1505657
0.031,-0.296,-0.925,0.549,1505662
0.031,-0.296,-0.925,-1.953,1505667
0.03,-0.3,-0.941,-3.784,1505673
0.03,-0.3,-0.941,-4.7,1505678
0.036,-0.3,-0.967,-4.761,1505683
0.043,-0.302,-0.994,-2.136,1505688
0.043,-0.302,-0.994,0.488,1505694
0.038,-0.299,-0.961,-1.465,1505699
0.038,-0.299,-0.961,-0.61,1505704
0.04,-0.3,-0.959,-0.549,1505709
0.04,-0.3,-0.959,-0.671,1505715
0.042,-0.3,-0.963,-0.732,1505720
0.042,-0.3,-0.963,-0.366,1505725
0.042,-0.299,-0.963,-0.183,1505730
0.042,-0.299,-0.963,-0.061,1505736
0.041,-0.299,-0.962,0.244,1505741
0.041,-0.299,-0.962,0.793,1505746
0.042,-0.298,-0.962,0.793,1505751
0.042,-0.298,-0.962,0.732,1505757
0.04,-0.297,-0.961,0.427,1505762
0.04,-0.297,-0.961,0.183,1505767
0.04,-0.298,-0.961,0.305,1505772
0.04,-0.299,-0.964,0.61,1505777
0.04,-0.299,-0.964,0.916,1505783
0.04,-0.299,-0.961,0.671,1505788
0.04,-0.299,-0.961,0.488,1505793
0.039,-0.297,-0.954,-0.122,1505798
0.039,-0.297,-0.954,-1.038,1505803
0.039,-0.297,-0.946,-1.892,1505809
0.039,-0.297,-0.946,-2.93,1505814
0.044,-0.304,-0.976,-0.916,1505819
0.044,-0.304,-0.976,-0.427,1505824
0.044,-0.302,-0.963,-0.671,1505830
0.044,-0.302,-0.963,-0.366,1505835
0.043,-0.302,-0.957,-0.061,1505840
0.043,-0.302,-0.957,-0.244,1505845
0.042,-0.302,-0.958,-0.305,1505851
0.042,-0.302,-0.958,-0.183,1505856
0.042,-0.302,-0.96,0.0,1505861
0.042,-0.302,-0.96,0.122,1505866
0.042,-0.304,-0.959,0.122,1505872
0.04,-0.302,-0.957,0.244,1505877
0.04,-0.302,-0.957,0.183,1505882
0.039,-0.301,-0.959,0.0,1505887
0.039,-0.301,-0.959,-0.061,1505892
0.039,-0.302,-0.958,0.0,1505898
0.039,-0.302,-0.958,-0.061,1505903
0.039,-0.302,-0.959,-0.183,1505908
0.039,-0.302,-0.959,-0.183,1505913
0.04,-0.303,-0.959,-0.183,1505918
0.04,-0.303,-0.959,-0.183,1505924
0.039,-0.301,-0.959,-0.244,1505929
0.039,-0.301,-0.959,-0.305,1505934
0.039,-0.302,-0.959,-0.427,1505939
0.039,-0.302,-0.959,-0.244,1505945
0.039,-0.303,-0.959,-0.122,1505950
0.039,-0.303,-0.959,-0.122,1505955
0.039,-0.302,-0.961,-0.122,1505961
0.039,-0.3,-0.96,-0.183,1505966
0.039,-0.3,-0.96,-0.183,1505971
0.039,-0.298,-0.962,-0.244,1505976
0.039,-0.298,-0.962,-0.183,1505982
0.04,-0.298,-0.963,-0.122,1505987
0.04,-0.298,-0.963,0.0,1505992
0.04,-0.298,-0.961,0.061,1505997
0.04,-0.298,-0.961,-0.122,1506002
0.037,-0.297,-0.96,-0.244,1506008
0.037,-0.297,-0.96,-0.183,1506013
0.04,-0.297,-0.959,-0.183,1506018
0.04,-0.297,-0.959,-0.122,1506023
0.04,-0.297,-0.963,-0.244,1506029
0.04,-0.297,-0.963,-0.244,1506034
0.039,-0.298,-0.963,-0.366,1506039
0.039,-0.298,-0.963,-0.366,1506044
0.04,-0.298,-0.962,-0.122,1506050
0.04,-0.298,-0.961,-0.244,1506055
0.04,-0.298,-0.961,-0.061,1506060
0.042,-0.298,-0.961,-0.122,1506065
0.042,-0.298,-0.961,-0.183,1506071
0.043,-0.298,-0.963,-0.122,1506076
0.043,-0.298,-0.963,-0.122,1506081
0.043,-0.298,-0.962,-0.122,1506086
0.043,-0.298,-0.962,-0.305,1506092
0.042,-0.298,-0.961,-0.183,1506097
0.042,-0.298,-0.961,-0.183,1506102
0.043,-0.299,-0.961,-0.183,1506107
0.043,-0.299,-0.961,-0.244,1506113
0.042,-0.298,-0.961,-0.183,1506118
0.042,-0.298,-0.961,-0.183,1506123
0.042,-0.299,-0.962,-0.183,1506128
0.042,-0.299,-0.962,-0.366,1506134
0.041,-0.298,-0.963,-0.305,1506139
0.04,-0.298,-0.96,-0.183,1506144
0.04,-0.298,-0.96,-0.061,1506149
0.04,-0.301,-0.959,-0.183,1506155
0.04,-0.301,-0.959,-0.122,1506160
0.042,-0.302,-0.96,0.0,1506165
0.042,-0.302,-0.96,0.0,1506170
0.04,-0.302,-0.959,-0.061,1506176
0.04,-0.302,-0.959,-0.183,1506181
0.039,-0.302,-0.959,-0.122,1506186
0.039,-0.302,-0.959,-0.122,1506191
0.041,-0.303,-0.959,-0.183,1506197
0.041,-0.303,-0.959,-0.183,1506202
0.04,-0.302,-0.958,-0.061,1506207
0.04,-0.302,-0.958,-0.061,1506212
0.039,-0.301,-0.958,-0.366,1506218
0.039,-0.301,-0.958,-0.305,1506223
0.039,-0.302,-0.959,-0.122,1506228
0.039,-0.302,-0.959,-0.305,1506233
0.038,-0.303,-0.958,-0.305,1506239
0.04,-0.302,-0.958,-0.183,1506244
0.04,-0.302,-0.958,-0.122,1506249
0.04,-0.301,-0.961,-0.244,1506254
0.04,-0.301,-0.961,-0.244,1506260
0.041,-0.301,-0.959,-0.122,1506265
0.041,-0.301,-0.959,-0.244,1506270
0.041,-0.302,-0.96,-0.183,1506275
0.041,-0.302,-0.96,-0.061,1506281
0.042,-0.302,-0.96,-0.061,1506286
0.042,-0.302,-0.96,0.0,1506291
0.042,-0.3,-0.96,-0.061,1506296
0.042,-0.3,-0.96,-0.122,1506301
0.041,-0.3,-0.96,0.0,1506307
0.041,-0.3,-0.96,-0.244,1506312
0.043,-0.298,-0.96,-0.183,1506317
0.043,-0.298,-0.96,-0.122,1506322
0.043,-0.296,-0.961,-0.183,1506328
0.042,-0.299,-0.961,-0.122,1506333
0.042,-0.299,-0.961,-0.183,1506338
0.042,-0.298,-0.961,-0.244,1506343
0.042,-0.298,-0.961,-0.244,1506349
0.042,-0.297,-0.961,-0.244,1506354
0.042,-0.297,-0.961,-0.305,1506359
0.04,-0.297,-0.962,-0.305,1506364
0.04,-0.297,-0.962,-0.061,1506370
0.041,-0.297,-0.962,-0.122,1506375
0.041,-0.297,-0.962,-0.061,1506380
0.041,-0.296,-0.962,-0.183,1506385
0.041,-0.296,-0.962,-0.183,1506391
0.04,-0.297,-0.962,-0.244,1506396
0.04,-0.297,-0.962,-0.305,1506401
0.041,-0.298,-0.961,-0.244,1506406
0.041,-0.298,-0.961,-0.061,1506412
0.041,-0.299,-0.961,-0.183,1506417
0.039,-0.298,-0.962,-0.244,1506422
0.039,-0.298,-0.962,-0.244,1506427
0.04,-0.3,-0.961,-0.183,1506433
0.04,-0.3,-0.961,-0.244,1506438
0.039,-0.301,-0.96,-0.244,1506443
0.039,-0.301,-0.96,-0.183,1506448
0.037,-0.3,-0.961,-0.244,1506454
0.037,-0.3,-0.961,-0.183,1506459
0.037,-0.299,-0.96,-0.305,1506464
0.037,-0.299,-0.96,-0.183,1506469
0.036,-0.299,-0.96,-0.122,1506475
0.036,-0.299,-0.96,-0.183,1506480
0.038,-0.299,-0.959,-0.244,1506485
0.038,-0.299,-0.959,-0.183,1506490
0.039,-0.301,-0.961,-0.122,1506496
0.039,-0.301,-0.961,-0.366,1506501
0.039,-0.301,-0.96,-0.183,1506506
0.04,-0.3,-0.961,-0.244,1506511
0.04,-0.3,-0.961,-0.122,1506517
0.041,-0.301,-0.961,-0.305,1506522
0.041,-0.301,-0.961,-0.305,1506527
0.042,-0.302,-0.96,-0.244,1506532
0.042,-0.302,-0.96,-0.183,1506538
0.043,-0.3,-0.959,-0.183,1506543
0.043,-0.3,-0.959,-0.061,1506548
0.044,-0.302,-0.96,-0.122,1506553
0.044,-0.302,-0.96,-0.183,1506559
0.044,-0.302,-0.959,-0.183,1506564
0.044,-0.302,-0.959,-0.244,1506569
0.043,-0.302,-0.959,-0.244,1506574
0.043,-0.302,-0.959,-0.183,1506580
0.043,-0.303,-0.957,-0.122,1506585
0.043,-0.303,-0.957,-0.122,1506590
0.043,-0.301,-0.959,-0.244,1506596
0.043,-0.3,-0.958,-0.244,1506601
0.043,-0.3,-0.958,-0.183,1506606
0.044,-0.3,-0.96,-0.183,1506611
0.044,-0.3,-0.96,-0.244,1506617
0.044,-0.301,-0.96,-0.183,1506622
0.044,-0.301,-0.96,-0.183,1506627
0.042,-0.3,-0.961,-0.183,1506632
0.042,-0.3,-0.961,-0.183,1506638
0.042,-0.3,-0.961,-0.183,1506643
0.042,-0.3,-0.961,-0.183,1506648
0.042,-0.301,-0.959,-0.183,1506653
0.042,-0.301,-0.959,-0.122,1506659
0.041,-0.3,-0.959,-0.122,1506664
0.041,-0.3,-0.959,-0.122,1506669
0.038,-0.302,-0.959,-0.183,1506674
0.038,-0.302,-0.959,-0.061,1506680
0.037,-0.298,-0.958,-0.244,1506685
0.038,-0.299,-0.959,-0.244,1506690
0.038,-0.299,-0.959,-0.061,1506695
0.037,-0.301,-0.961,-0.122,1506701
0.037,-0.301,-0.961,-0.305,1506706
0.038,-0.301,-0.967,-0.183,1506711
0.038,-0.301,-0.967,-0.183,1506716
0.037,-0.298,-0.963,-0.061,1506722
0.037,-0.298,-0.963,0.0,1506727
0.037,-0.296,-0.955,0.0,1506732
0.037,-0.296,-0.955,-0.061,1506737
0.036,-0.297,-0.959,-0.244,1506742
0.036,-0.297,-0.959,-0.305,1506748
0.037,-0.297,-0.966,-0.305,1506753
0.037,-0.297,-0.966,-0.305,1506758
0.039,-0.299,-0.964,-0.183,1506763
0.039,-0.299,-0.964,-0.183,1506769
0.04,-0.299,-0.959,-0.244,1506774
0.039,-0.299,-0.962,-0.061,1506779
0.039,-0.299,-0.962,-0.244,1506784
0.041,-0.3,-0.962,-0.244,1506790
0.041,-0.3,-0.962,-0.366,1506795
0.042,-0.299,-0.961,-0.244,1506800
0.042,-0.299,-0.961,-0.122,1506805
0.043,-0.298,-0.961,-0.122,1506811
0.043,-0.298,-0.961,-0.061,1506816
0.042,-0.3,-0.961,-0.244,1506821
0.042,-0.3,-0.961,-0.244,1506826
0.043,-0.3,-0.961,-0.183,1506832
0.043,-0.3,-0.961,-0.122,1506837
0.043,-0.299,-0.959,-0.183,1506842
0.043,-0.299,-0.959,-0.183,1506847
0.043,-0.301,-0.961,-0.122,1506853
0.043,-0.301,-0.961,-0.122,1506858
0.043,-0.302,-0.959,-0.366,1506863
0.044,-0.303,-0.958,-0.244,1506868
0.044,-0.303,-0.958,-0.183,1506874
0.044,-0.303,-0.959,-0.305,1506879
0.044,-0.303,-0.959,-0.183,1506884
0.043,-0.302,-0.958,-0.122,1506889
0.043,-0.302,-0.958,-0.305,1506895
0.041,-0.303,-0.96,-0.244,1506900
0.041,-0.303,-0.96,-0.244,1506905
0.041,-0.303,-0.959,-0.122,1506910
0.041,-0.303,-0.959,-0.183,1506916
0.04,-0.302,-0.957,-0.061,1506921
0.04,-0.302,-0.957,-0.061,1506926
0.04,-0.302,-0.956,-0.122,1506931
0.04,-0.302,-0.956,-0.183,1506937
0.039,-0.302,-0.958,-0.122,1506942
0.039,-0.302,-0.958,-0.061,1506947
0.042,-0.304,-0.96,0.0,1506952
0.042,-0.303,-0.958,-0.183,1506958
0.042,-0.303,-0.958,0.0,1506963
0.04,-0.301,-0.958,0.0,1506968
0.04,-0.301,-0.958,0.061,1506973
0.039,-0.301,-0.958,-0.122,1506978
0.039,-0.301,-0.958,-0.305,1506984
0.042,-0.3,-0.962,-0.183,1506989
0.042,-0.3,-0.962,-0.244,1506994
0.041,-0.299,-0.96,-0.061,1506999
0.041,-0.299,-0.96,-0.122,1507005
0.04,-0.297,-0.96,-0.122,1507010
0.04,-0.297,-0.96,-0.183,1507015
0.039,-0.297,-0.962,-0.183,1507020
0.039,-0.297,-0.962,-0.122,1507026
0.038,-0.297,-0.962,-0.183,1507031
0.038,-0.297,-0.962,-0.122,1507036
0.041,-0.296,-0.962,0.0,1507041
0.041,-0.296,-0.962,-0.122,1507047
0.04,-0.296,-0.964,-0.244,1507052
0.039,-0.297,-0.964,-0.183,1507057
0.039,-0.297,-0.964,-0.183,1507062
0.039,-0.295,-0.963,-0.122,1507068
0.039,-0.295,-0.963,-0.183,1507073
0.038,-0.296,-0.962,-0.244,1507078
0.038,-0.296,-0.962,-0.122,1507083
0.039,-0.296,-0.961,-0.122,1507089
0.039,-0.296,-0.961,-0.244,1507094
0.039,-0.296,-0.962,-0.244,1507099
0.039,-0.296,-0.962,-0.122,1507104
0.039,-0.296,-0.964,-0.122,1507110
0.039,-0.296,-0.964,-0.122,1507115
0.038,-0.296,-0.961,-0.122,1507120
0.038,-0.296,-0.961,-0.183,1507125
0.04,-0.298,-0.96,-0.122,1507131
0.04,-0.298,-0.96,-0.366,1507136
0.04,-0.3,-0.962,-0.122,1507141
0.038,-0.298,-0.959,-0.244,1507146
0.038,-0.298,-0.959,-0.244,1507152
0.039,-0.298,-0.96,-0.183,1507157
0.039,-0.298,-0.96,-0.244,1507162
0.038,-0.3,-0.961,-0.244,1507167
0.038,-0.3,-0.961,-0.244,1507173
0.041,-0.302,-0.96,-0.122,1507178
0.041,-0.302,-0.96,-0.244,1507183
0.042,-0.302,-0.96,-0.183,1507188
0.042,-0.302,-0.96,-0.061,1507194
0.04,-0.302,-0.959,-0.061,1507199
0.04,-0.302,-0.959,-0.122,1507204
0.041,-0.303,-0.957,-0.061,1507209
0.041,-0.303,-0.957,-0.122,1507215
0.041,-0.303,-0.958,-0.244,1507220
0.041,-0.303,-0.958,-0.244,1507225
0.042,-0.305,-0.96,-0.061,1507230
0.042,-0.303,-0.959,-0.061,1507236
0.042,-0.303,-0.959,-0.244,1507241
0.043,-0.303,-0.956,-0.122,1507246
0.043,-0.303,-0.956,-0.183,1507251
0.042,-0.303,-0.957,-0.183,1507257
0.042,-0.303,-0.957,-0.305,1507262
0.042,-0.303,-0.958,-0.244,1507267
0.042,-0.303,-0.958,-0.244,1507272
0.044,-0.303,-0.958,-0.244,1507278
0.044,-0.303,-0.958,-0.305,1507283
0.043,-0.303,-0.958,-0.244,1507288
0.043,-0.303,-0.958,-0.122,1507293
0.042,-0.302,-0.958,-0.305,1507299
0.042,-0.302,-0.958,-0.244,1507304
0.043,-0.302,-0.96,-0.183,1507309
0.043,-0.302,-0.96,-0.183,1507314
0.042,-0.299,-0.96,-0.305,1507320
0.04,-0.299,-0.96,-0.122,1507325
0.04,-0.299,-0.96,-0.122,1507330
0.04,-0.3,-0.959,0.0,1507335
0.04,-0.3,-0.959,0.061,1507341
0.038,-0.299,-0.964,-0.061,1507346
0.038,-0.299,-0.964,0.061,1507351
0.037,-0.297,-0.963,0.122,1507356
0.037,-0.297,-0.963,0.0,1507361
0.038,-0.295,-0.96,0.061,1507367
0.038,-0.295,-0.96,0.0,1507372
0.039,-0.295,-0.963,0.0,1507377
0.039,-0.295,-0.963,-0.122,1507382
0.036,-0.296,-0.961,-0.061,1507387
0.036,-0.296,-0.961,-0.061,1507393
0.038,-0.295,-0.961,-0.183,1507398
0.038,-0.295,-0.961,-0.122,1507403
0.036,-0.296,-0.962,0.061,1507408
0.036,-0.296,-0.962,-0.122,1507414
0.038,-0.296,-0.962,-0.183,1507419
0.038,-0.296,-0.962,-0.305,1507424
0.038,-0.296,-0.962,-0.305,1507429
0.039,-0.296,-0.962,-0.244,1507435
0.039,-0.296,-0.962,-0.488,1507440
0.04,-0.298,-0.962,-0.305,1507445
0.04,-0.298,-0.962,-0.244,1507450
0.041,-0.298,-0.961,-0.305,1507456
0.041,-0.298,-0.961,-0.244,1507461
0.04,-0.299,-0.959,-0.244,1507466
0.04,-0.299,-0.959,-0.244,1507471
0.04,-0.299,-0.961,-0.305,1507477
0.04,-0.299,-0.961,-0.183,1507482
0.04,-0.3,-0.96,-0.305,1507487
0.04,-0.3,-0.96,-0.366,1507492
0.041,-0.3,-0.96,-0.305,1507498
0.041,-0.3,-0.96,-0.244,1507503
0.042,-0.301,-0.961,0.061,1507508
0.041,-0.301,-0.96,0.0,1507513
0.041,-0.301,-0.96,0.061,1507519
0.04,-0.301,-0.958,-0.061,1507524
0.04,-0.301,-0.958,-0.183,1507529
0.042,-0.301,-0.958,-0.183,1507534
0.042,-0.301,-0.958,-0.244,1507539
0.041,-0.302,-0.957,-0.183,1507545
0.041,-0.302,-0.957,-0.183,1507550
0.04,-0.304,-0.959,-0.061,1507555
0.04,-0.304,-0.959,0.061,1507560
0.039,-0.303,-0.959,0.122,1507566
0.039,-0.303,-0.959,0.122,1507571
0.04,-0.303,-0.958,0.0,1507576
0.04,-0.303,-0.958,-0.061,1507581
0.039,-0.304,-0.958,-0.122,1507586
0.039,-0.304,-0.958,-0.122,1507592
0.038,-0.302,-0.958,-0.122,1507597
0.038,-0.302,-0.958,0.0,1507602
0.037,-0.302,-0.958,-0.061,1507607
0.037,-0.303,-0.958,-0.061,1507613
0.037,-0.303,-0.958,-0.061,1507618
0.038,-0.301,-0.959,-0.183,1507623
0.038,-0.301,-0.959,-0.183,1507628
0.038,-0.299,-0.96,-0.122,1507634
0.038,-0.299,-0.96,-0.183,1507639
0.037,-0.3,-0.96,-0.244,1507644
0.037,-0.3,-0.96,-0.244,1507649
0.038,-0.299,-0.959,-0.305,1507655
0.038,-0.299,-0.959,-0.244,1507660
0.039,-0.299,-0.96,-0.183,1507665
0.039,-0.299,-0.96,-0.366,1507670
0.039,-0.299,-0.961,-0.427,1507676
0.039,-0.299,-0.961,-0.488,1507681
0.04,-0.298,-0.961,-0.427,1507686
0.04,-0.298,-0.961,-0.549,1507691
0.042,-0.298,-0.962,-0.427,1507697
0.042,-0.298,-0.961,-0.305,1507702
0.042,-0.298,-0.961,-0.244,1507707
0.041,-0.297,-0.962,-0.244,1507712
0.041,-0.297,-0.962,-0.244,1507718
0.04,-0.297,-0.963,-0.366,1507723
0.04,-0.297,-0.963,-0.305,1507728
0.041,-0.296,-0.963,-0.305,1507733
0.041,-0.296,-0.963,-0.366,1507739
0.041,-0.297,-0.963,-0.305,1507744
0.041,-0.297,-0.963,-0.061,1507749
0.039,-0.297,-0.962,0.0,1507754
0.039,-0.297,-0.962,0.061,1507760
0.041,-0.297,-0.962,-0.061,1507765
0.041,-0.297,-0.962,-0.061,1507770
0.039,-0.298,-0.962,0.061,1507775
0.039,-0.298,-0.962,0.061,1507781
0.038,-0.298,-0.96,-0.061,1507786
0.038,-0.299,-0.962,0.061,1507791
0.038,-0.299,-0.962,0.0,1507796
0.039,-0.3,-0.961,0.122,1507801
0.039,-0.3,-0.961,0.061,1507807
0.037,-0.3,-0.961,0.244,1507812
0.037,-0.3,-0.961,0.183,1507817
0.036,-0.301,-0.96,0.061,1507822
0.036,-0.301,-0.96,0.0,1507827
0.036,-0.3,-0.959,0.061,1507833
0.036,-0.3,-0.959,0.122,1507838
0.037,-0.301,-0.958,0.0,1507843
0.037,-0.301,-0.958,-0.061,1507848
0.035,-0.302,-0.959,0.0,1507853
0.035,-0.302,-0.959,0.0,1507858
0.037,-0.304,-0.959,-0.183,1507864
0.037,-0.304,-0.959,-0.305,1507869
0.039,-0.304,-0.959,-0.305,1507874
0.039,-0.304,-0.959,-0.183,1507879
0.036,-0.301,-0.959,-0.366,1507885
0.036,-0.301,-0.959,-0.244,1507890
0.035,-0.302,-0.958,-0.366,1507895
0.038,-0.302,-0.957,-0.427,1507900
0.038,-0.302,-0.957,-0.427,1507906
0.038,-0.302,-0.958,-0.427,1507911
0.038,-0.302,-0.958,-0.427,1507916
0.04,-0.303,-0.958,-0.427,1507921
0.04,-0.303,-0.958,-0.366,1507927
0.039,-0.302,-0.96,-0.305,1507932
0.039,-0.302,-0.96,-0.366,1507937
0.04,-0.302,-0.959,-0.427,1507942
0.04,-0.302,-0.959,-0.488,1507948
0.041,-0.301,-0.959,-0.244,1507953
0.041,-0.301,-0.959,-0.305,1507958
0.04,-0.3,-0.96,-0.183,1507963
0.04,-0.3,-0.96,-0.244,1507969
0.041,-0.299,-0.962,-0.122,1507974
0.041,-0.299,-0.962,-0.061,1507979
0.039,-0.301,-0.961,0.0,1507984
0.039,-0.299,-0.961,0.122,1507990
0.039,-0.299,-0.961,0.061,1507995
0.038,-0.299,-0.961,0.061,1508000
0.038,-0.299,-0.961,0.061,1508005
0.037,-0.298,-0.961,0.061,1508010
0.037,-0.298,-0.961,0.061,1508016
0.039,-0.298,-0.962,-0.061,1508021
0.039,-0.298,-0.962,0.0,1508026
0.036,-0.297,-0.963,0.0,1508031
0.036,-0.297,-0.963,0.183,1508036
0.035,-0.298,-0.961,0.122,1508042
0.035,-0.298,-0.961,0.122,1508047
0.036,-0.297,-0.961,0.0,1508052
0.036,-0.297,-0.961,-0.061,1508057
0.035,-0.296,-0.962,-0.061,1508063
0.035,-0.296,-0.962,-0.122,1508068
0.034,-0.297,-0.962,-0.244,1508073
0.034,-0.297,-0.962,-0.183,1508078
0.033,-0.297,-0.961,-0.122,1508084
0.035,-0.298,-0.963,-0.061,1508089
0.035,-0.298,-0.963,-0.122,1508094
0.036,-0.299,-0.961,-0.183,1508099
0.036,-0.299,-0.961,-0.183,1508105
0.037,-0.3,-0.961,-0.366,1508110
0.037,-0.3,-0.961,-0.427,1508115
0.036,-0.299,-0.96,-0.549,1508120
0.036,-0.299,-0.96,-0.427,1508126
0.037,-0.3,-0.959,-0.244,1508131
0.037,-0.3,-0.959,-0.244,1508136
0.036,-0.3,-0.961,-0.305,1508141
0.036,-0.3,-0.961,-0.366,1508147
0.036,-0.301,-0.96,-0.366,1508152
0.036,-0.301,-0.96,-0.244,1508157
0.04,-0.3,-0.96,-0.366,1508162
0.04,-0.3,-0.96,-0.488,1508168
0.04,-0.3,-0.959,-0.427,1508173
0.04,-0.3,-0.961,-0.244,1508178
0.04,-0.3,-0.961,-0.183,1508183
0.04,-0.3,-0.962,-0.122,1508189
0.04,-0.3,-0.962,-0.183,1508194
0.04,-0.301,-0.961,-0.244,1508199
0.04,-0.301,-0.961,-0.122,1508204
0.041,-0.303,-0.959,-0.061,1508210
0.041,-0.303,-0.959,0.0,1508215
0.04,-0.303,-0.96,-0.061,1508220
0.04,-0.303,-0.96,-0.366,1508225
0.037,-0.301,-0.961,-0.244,1508230
0.037,-0.301,-0.961,0.0,1508236
0.038,-0.3,-0.959,0.122,1508241
0.038,-0.3,-0.959,0.061,1508246
0.039,-0.301,-0.961,0.061,1508251
0.039,-0.301,-0.961,0.0,1508256
0.037,-0.301,-0.96,-0.122,1508262
0.037,-0.301,-0.96,-0.122,1508267
0.037,-0.301,-0.959,-0.183,1508272
0.036,-0.301,-0.961,0.061,1508277
0.036,-0.301,-0.961,0.122,1508283
0.036,-0.301,-0.962,-0.061,1508288
0.036,-0.301,-0.962,-0.061,1508293
0.034,-0.3,-0.96,0.061,1508298
0.034,-0.3,-0.96,-0.183,1508303
0.034,-0.298,-0.96,-0.183,1508309
0.034,-0.298,-0.96,-0.122,1508314
0.033,-0.3,-0.96,-0.427,1508319
0.033,-0.3,-0.96,-0.366,1508324
0.034,-0.302,-0.96,-0.183,1508330
0.034,-0.302,-0.96,-0.122,1508335
0.034,-0.298,-0.962,-0.244,1508340
0.034,-0.298,-0.962,-0.183,1508345
0.034,-0.299,-0.961,-0.366,1508351
0.034,-0.299,-0.961,-0.427,1508356
0.036,-0.297,-0.962,-0.427,1508361
0.035,-0.296,-0.96,-0.366,1508367
0.035,-0.296,-0.96,-0.366,1508372
0.035,-0.299,-0.962,-0.305,1508377
0.035,-0.299,-0.962,-0.183,1508382
0.036,-0.299,-0.962,-0.183,1508388
0.036,-0.299,-0.962,-0.244,1508393
0.036,-0.3,-0.963,-0.366,1508398
0.036,-0.3,-0.963,-0.366,1508403
0.037,-0.298,-0.962,-0.305,1508409
0.037,-0.298,-0.962,-0.427,1508414
0.037,-0.298,-0.961,-0.366,1508419
0.037,-0.298,-0.961,-0.305,1508424
0.038,-0.298,-0.959,-0.427,1508430
0.038,-0.298,-0.959,-0.244,1508435
0.041,-0.301,-0.961,-0.244,1508440
0.041,-0.301,-0.961,-0.183,1508445
0.04,-0.298,-0.962,-0.244,1508451
0.041,-0.299,-0.96,-0.183,1508456
0.041,-0.299,-0.96,-0.061,1508461
0.041,-0.3,-0.96,-0.244,1508466
0.041,-0.3,-0.96,-0.305,1508472
0.042,-0.303,-0.964,-0.366,1508477
0.042,-0.303,-0.964,-0.366,1508482
0.043,-0.302,-0.958,-0.305,1508487
0.043,-0.302,-0.958,-0.183,1508493
0.043,-0.302,-0.957,0.061,1508498
0.043,-0.302,-0.957,0.0,1508503
0.042,-0.303,-0.959,-0.061,1508508
0.042,-0.303,-0.959,-0.366,1508513
0.044,-0.305,-0.959,-0.366,1508519
0.044,-0.305,-0.959,-0.183,1508524
0.042,-0.304,-0.958,-0.122,1508529
0.042,-0.304,-0.958,-0.061,1508534
0.042,-0.302,-0.959,-0.061,1508540
0.038,-0.303,-0.959,0.183,1508545
0.038,-0.303,-0.959,0.183,1508550
0.034,-0.302,-0.959,0.244,1508555
0.034,-0.302,-0.959,0.183,1508561
0.033,-0.301,-0.96,0.122,1508566
0.033,-0.301,-0.96,0.0,1508571
0.031,-0.302,-0.96,0.183,1508576
0.031,-0.302,-0.96,0.366,1508581
0.03,-0.301,-0.96,0.305,1508586
0.03,-0.301,-0.96,0.427,1508592
0.03,-0.301,-0.959,0.305,1508597
0.03,-0.301,-0.959,0.427,1508602
0.03,-0.301,-0.957,0.244,1508607
0.03,-0.301,-0.957,0.061,1508613
0.03,-0.3,-0.958,0.061,1508618
0.03,-0.3,-0.958,-0.183,1508623
0.03,-0.301,-0.96,-0.244,1508628
0.03,-0.301,-0.96,-0.244,1508633
0.031,-0.3,-0.96,-0.122,1508639
0.032,-0.298,-0.961,-0.366,1508644
0.032,-0.298,-0.961,-0.427,1508649
0.033,-0.298,-0.96,-0.488,1508654
0.033,-0.298,-0.96,-0.488,1508660
0.033,-0.299,-0.961,-0.732,1508665
0.033,-0.299,-0.961,-0.854,1508670
0.035,-0.297,-0.963,-0.732,1508675
0.035,-0.297,-0.963,-0.671,1508681
0.037,-0.297,-0.962,-0.61,1508686
0.037,-0.297,-0.962,-0.61,1508691
0.039,-0.295,-0.962,-0.671,1508696
0.039,-0.295,-0.962,-0.732,1508702
0.041,-0.296,-0.964,-0.793,1508707
0.041,-0.296,-0.964,-0.916,1508712
0.041,-0.296,-0.964,-0.732,1508717
0.041,-0.296,-0.964,-0.671,1508723
0.043,-0.297,-0.962,-0.61,1508728
0.045,-0.298,-0.961,-0.488,1508733
0.045,-0.298,-0.961,-0.427,1508738
0.043,-0.299,-0.964,-0.488,1508744
0.043,-0.299,-0.964,-0.366,1508749
0.045,-0.299,-0.965,-0.305,1508754
0.045,-0.299,-0.965,-0.183,1508759
0.043,-0.298,-0.965,-0.061,1508765
0.043,-0.298,-0.965,0.122,1508770
0.043,-0.298,-0.965,0.305,1508775
0.043,-0.298,-0.965,0.366,1508780
0.042,-0.298,-0.961,0.549,1508786
0.042,-0.298,-0.961,0.61,1508791
0.039,-0.297,-0.957,0.732,1508796
0.039,-0.297,-0.957,0.549,1508801
0.037,-0.3,-0.958,0.427,1508806
0.037,-0.3,-0.958,0.183,1508812
0.036,-0.303,-0.961,0.0,1508817
0.036,-0.303,-0.961,0.0,1508822
0.036,-0.302,-0.961,0.183,1508827
0.032,-0.302,-0.958,0.732,1508832
0.032,-0.302,-0.958,0.732,1508838
0.031,-0.302,-0.956,0.366,1508843
0.031,-0.302,-0.956,0.0,1508848
0.031,-0.304,-0.955,-0.305,1508853
0.031,-0.304,-0.955,-0.488,1508858
0.029,-0.304,-0.958,-0.549,1508864
0.029,-0.304,-0.958,-0.549,1508869
0.03,-0.307,-0.96,-0.366,1508874
0.03,-0.307,-0.96,-0.122,1508879
0.031,-0.306,-0.959,0.061,1508885
0.031,-0.306,-0.959,0.061,1508890
0.031,-0.303,-0.956,-0.244,1508895
0.031,-0.303,-0.956,-0.305,1508900
0.032,-0.304,-0.957,-0.549,1508906
0.032,-0.304,-0.957,-0.671,1508911
0.031,-0.302,-0.957,-0.61,1508916
0.031,-0.302,-0.957,-0.549,1508921
0.033,-0.303,-0.96,-0.427,1508927
0.036,-0.302,-0.962,-0.244,1508932
0.036,-0.302,-0.962,-0.244,1508937
0.037,-0.301,-0.96,-0.305,1508942
0.037,-0.301,-0.96,-0.366,1508948
0.04,-0.299,-0.957,-0.305,1508953
0.04,-0.299,-0.957,-0.488,1508958
0.042,-0.3,-0.958,-0.732,1508963
0.042,-0.3,-0.958,-0.61,1508969
0.044,-0.301,-0.962,-0.549,1508974
0.044,-0.301,-0.962,-0.366,1508979
0.044,-0.301,-0.963,-0.549,1508984
0.044,-0.301,-0.963,-0.305,1508990
0.046,-0.299,-0.963,-0.061,1508995
0.046,-0.299,-0.963,-0.122,1509000
0.044,-0.299,-0.961,-0.183,1509005
0.044,-0.299,-0.961,-0.244,1509011
0.043,-0.298,-0.963,-0.183,1509016
0.042,-0.295,-0.965,-0.183,1509021
0.042,-0.295,-0.965,-0.061,1509026
0.042,-0.297,-0.966,0.183,1509032
0.042,-0.297,-0.966,0.549,1509037
0.039,-0.296,-0.963,0.366,1509042
0.039,-0.296,-0.963,0.305,1509047
0.036,-0.296,-0.962,0.244,1509053
0.036,-0.296,-0.962,0.244,1509058
0.034,-0.295,-0.963,0.122,1509063
0.034,-0.295,-0.963,0.122,1509068
0.033,-0.295,-0.96,0.061,1509073
0.033,-0.295,-0.96,0.183,1509079
0.031,-0.297,-0.962,0.244,1509084
0.031,-0.297,-0.962,0.183,1509089
0.03,-0.3,-0.962,0.244,1509094
0.03,-0.3,-0.962,0.122,1509099
0.03,-0.3,-0.961,0.122,1509105
0.03,-0.3,-0.961,0.122,1509110
0.029,-0.299,-0.959,0.061,1509115
0.029,-0.301,-0.958,-0.061,1509120
0.029,-0.301,-0.958,-0.122,1509125
0.03,-0.302,-0.957,-0.305,1509131
0.03,-0.302,-0.957,-0.366,1509136
0.03,-0.303,-0.957,-0.366,1509141
0.03,-0.303,-0.957,-0.305,1509146
0.032,-0.303,-0.957,-0.488,1509152
0.032,-0.303,-0.957,-0.488,1509157
0.034,-0.303,-0.956,-0.61,1509162
0.034,-0.303,-0.956,-0.61,1509167
0.035,-0.302,-0.957,-0.671,1509173
0.035,-0.302,-0.957,-0.732,1509178
0.037,-0.303,-0.96,-0.793,1509183
0.037,-0.303,-0.96,-0.671,1509188
0.039,-0.304,-0.96,-0.732,1509194
0.039,-0.304,-0.96,-0.671,1509199
0.042,-0.304,-0.959,-0.549,1509204
0.043,-0.305,-0.96,-0.61,1509210
0.043,-0.305,-0.96,-0.671,1509215
0.043,-0.304,-0.96,-0.488,1509220
0.043,-0.304,-0.96,-0.488,1509225
0.044,-0.301,-0.958,-0.427,1509231
0.044,-0.301,-0.958,-0.244,1509236
0.045,-0.302,-0.961,-0.244,1509241
0.045,-0.302,-0.961,-0.122,1509246
0.044,-0.302,-0.961,0.0,1509251
0.044,-0.302,-0.961,-0.061,1509257
0.042,-0.301,-0.961,0.061,1509262
0.042,-0.301,-0.961,0.122,1509267
0.041,-0.3,-0.963,0.183,1509272
0.041,-0.3,-0.963,0.244,1509278
0.04,-0.297,-0.961,0.427,1509283
0.04,-0.297,-0.961,0.427,1509288
0.037,-0.299,-0.961,0.305,1509293
0.037,-0.299,-0.961,0.366,1509298
0.036,-0.298,-0.963,0.366,1509304
0.033,-0.298,-0.962,0.305,1509309
0.033,-0.298,-0.962,0.183,1509314
0.032,-0.299,-0.961,0.305,1509319
0.032,-0.299,-0.961,0.122,1509324
0.031,-0.297,-0.961,0.244,1509330
0.031,-0.297,-0.961,0.122,1509335
0.03,-0.297,-0.961,-0.061,1509340
0.03,-0.297,-0.961,-0.122,1509345
0.029,-0.298,-0.962,-0.061,1509351
0.029,-0.298,-0.962,-0.061,1509356
0.029,-0.3,-0.962,-0.061,1509361
0.029,-0.3,-0.962,-0.183,1509366
0.029,-0.299,-0.961,-0.244,1509372
0.029,-0.299,-0.961,-0.244,1509377
0.03,-0.301,-0.961,-0.122,1509382
0.03,-0.301,-0.961,-0.183,1509387
0.029,-0.3,-0.961,-0.244,1509393
0.031,-0.299,-0.959,-0.366,1509398
0.031,-0.299,-0.959,-0.549,1509403
0.033,-0.3,-0.96,-0.549,1509408
0.033,-0.3,-0.96,-0.488,1509414
0.036,-0.301,-0.961,-0.61,1509419
0.036,-0.301,-0.961,-0.61,1509424
0.036,-0.299,-0.96,-0.427,1509429
0.036,-0.299,-0.96,-0.366,1509435
0.037,-0.301,-0.96,-0.366,1509440
0.037,-0.301,-0.96,-0.366,1509445
0.04,-0.303,-0.958,-0.549,1509450
0.04,-0.303,-0.958,-0.549,1509456
0.042,-0.303,-0.962,-0.549,1509461
0.042,-0.303,-0.962,-0.427,1509466
0.042,-0.303,-0.959,-0.366,1509471
0.042,-0.303,-0.959,-0.366,1509477
0.042,-0.304,-0.957,-0.366,1509482
0.044,-0.304,-0.96,-0.183,1509487
0.044,-0.304,-0.96,-0.183,1509492
0.042,-0.304,-0.961,0.0,1509498
0.042,-0.304,-0.961,-0.122,1509503
0.04,-0.303,-0.959,-0.244,1509508
0.04,-0.303,-0.959,0.122,1509513
0.041,-0.302,-0.961,0.183,1509518
0.041,-0.302,-0.961,0.244,1509524
0.039,-0.301,-0.96,0.244,1509529
0.039,-0.301,-0.96,0.244,1509534
0.037,-0.302,-0.96,0.305,1509539
0.037,-0.302,-0.96,0.183,1509544
0.035,-0.302,-0.958,0.061,1509550
0.035,-0.302,-0.958,0.183,1509555
0.034,-0.302,-0.958,0.244,1509560
0.034,-0.302,-0.958,0.305,1509565
0.034,-0.301,-0.958,0.122,1509571
0.034,-0.301,-0.958,0.122,1509576
0.031,-0.3,-0.959,0.122,1509581
0.031,-0.3,-0.959,0.183,1509586
0.03,-0.302,-0.959,-0.122,1509591
0.03,-0.3,-0.96,-0.183,1509597
0.03,-0.3,-0.96,-0.183,1509602
0.03,-0.3,-0.962,-0.305,1509607
0.03,-0.3,-0.962,-0.244,1509612
0.031,-0.299,-0.963,-0.183,1509618
0.031,-0.299,-0.963,-0.122,1509623
0.03,-0.299,-0.964,-0.061,1509628
0.03,-0.299,-0.964,-0.122,1509633
0.03,-0.3,-0.962,-0.244,1509639
0.03,-0.3,-0.962,-0.183,1509644
0.032,-0.298,-0.961,-0.427,1509649
0.032,-0.298,-0.961,-0.549,1509654
0.032,-0.296,-0.962,-0.61,1509660
0.032,-0.296,-0.962,-0.488,1509665
0.034,-0.298,-0.963,-0.61,1509670
0.034,-0.298,-0.963,-0.549,1509675
0.035,-0.297,-0.963,-0.61,1509681
0.037,-0.296,-0.964,-0.61,1509686
0.037,-0.296,-0.964,-0.488,1509691
0.04,-0.296,-0.963,-0.427,1509696
0.04,-0.296,-0.963,-0.488,1509702
0.039,-0.296,-0.964,-0.793,1509707
0.039,-0.296,-0.964,-0.732,1509712
0.041,-0.295,-0.964,-0.427,1509717
0.041,-0.295,-0.964,-0.366,1509723
0.042,-0.296,-0.963,-0.244,1509728
0.042,-0.296,-0.963,-0.061,1509733
0.041,-0.296,-0.961,0.0,1509738
0.041,-0.296,-0.961,-0.122,1509744
0.041,-0.299,-0.961,-0.061,1509749
0.041,-0.299,-0.961,0.061,1509754
0.04,-0.3,-0.962,0.061,1509759
0.04,-0.3,-0.962,0.061,1509765
0.038,-0.299,-0.959,0.061,1509770
0.038,-0.3,-0.96,0.122,1509775
0.038,-0.3,-0.96,0.244,1509780
0.038,-0.302,-0.959,0.244,1509785
0.038,-0.302,-0.959,0.244,1509791
0.034,-0.303,-0.957,0.244,1509796
0.034,-0.303,-0.957,0.183,1509801
0.032,-0.305,-0.958,0.122,1509806
0.032,-0.305,-0.958,0.122,1509811
0.032,-0.307,-0.957,0.122,1509817
0.032,-0.307,-0.957,0.122,1509822
0.032,-0.307,-0.955,0.122,1509827
0.032,-0.307,-0.955,0.061,1509832
0.03,-0.308,-0.956,-0.122,1509837
0.03,-0.308,-0.956,-0.061,1509843
0.03,-0.307,-0.957,-0.244,1509848
0.03,-0.307,-0.957,-0.122,1509853
0.03,-0.309,-0.956,-0.305,1509858
0.03,-0.309,-0.956,-0.305,1509864
0.031,-0.309,-0.957,-0.488,1509869
0.031,-0.308,-0.957,-0.366,1509874
0.031,-0.308,-0.957,-0.366,1509879
0.031,-0.306,-0.958,-0.244,1509885
0.031,-0.306,-0.958,-0.305,1509890
0.033,-0.303,-0.956,-0.366,1509895
0.033,-0.303,-0.956,-0.427,1509900
0.034,-0.303,-0.958,-0.488,1509906
0.034,-0.303,-0.958,-0.488,1509911
0.035,-0.301,-0.959,-0.549,1509916
0.035,-0.301,-0.959,-0.549,1509921
0.036,-0.301,-0.96,-0.549,1509927
0.036,-0.301,-0.96,-0.488,1509932
0.037,-0.301,-0.962,-0.305,1509937
0.037,-0.301,-0.962,-0.244,1509942
0.04,-0.299,-0.962,-0.366,1509948
0.04,-0.299,-0.962,-0.305,1509953
0.041,-0.296,-0.962,-0.366,1509958
0.04,-0.295,-0.964,-0.183,1509964
0.04,-0.295,-0.964,-0.244,1509969
0.041,-0.294,-0.964,-0.244,1509974
0.041,-0.294,-0.964,-0.061,1509979
0.042,-0.294,-0.965,-0.122,1509985
0.042,-0.294,-0.965,-0.183,1509990
0.041,-0.294,-0.965,0.0,1509995
0.041,-0.294,-0.965,0.061,1510000
0.039,-0.294,-0.965,0.122,1510005
0.039,-0.294,-0.965,0.061,1510011
0.039,-0.294,-0.966,-0.061,1510016
0.039,-0.294,-0.966,-0.061,1510021
0.036,-0.294,-0.966,0.061,1510026
0.036,-0.294,-0.966,0.122,1510031
0.034,-0.293,-0.965,0.122,1510037
0.034,-0.293,-0.965,0.305,1510042
0.035,-0.295,-0.965,0.244,1510047
0.035,-0.295,-0.965,0.244,1510052
0.033,-0.296,-0.962,0.061,1510058
0.032,-0.296,-0.963,0.061,1510063
0.032,-0.296,-0.963,0.122,1510068
0.032,-0.298,-0.96,-0.061,1510073
0.032,-0.298,-0.96,-0.061,1510078
0.029,-0.299,-0.961,-0.061,1510084
0.029,-0.299,-0.961,-0.122,1510089
0.029,-0.301,-0.96,-0.061,1510094
0.029,-0.301,-0.96,-0.061,1510099
0.029,-0.302,-0.957,-0.183,1510105
0.029,-0.302,-0.957,-0.122,1510110
0.029,-0.304,-0.956,-0.183,1510115
0.029,-0.304,-0.956,-0.183,1510120
0.031,-0.306,-0.958,-0.366,1510126
0.031,-0.306,-0.958,-0.427,1510131
0.031,-0.306,-0.958,-0.366,1510136
0.031,-0.306,-0.958,-0.488,1510141
0.032,-0.307,-0.957,-0.427,1510147
0.033,-0.307,-0.956,-0.427,1510152
0.033,-0.307,-0.956,-0.549,1510157
0.035,-0.307,-0.957,-0.671,1510162
0.035,-0.307,-0.957,-0.488,1510168
0.037,-0.307,-0.957,-0.61,1510173
0.037,-0.307,-0.957,-0.732,1510178
0.038,-0.306,-0.958,-0.549,1510183
0.038,-0.306,-0.958,-0.427,1510189
0.039,-0.306,-0.958,-0.427,1510194
0.039,-0.306,-0.958,-0.244,1510199
0.04,-0.305,-0.958,-0.305,1510204
0.04,-0.305,-0.958,-0.305,1510210
0.04,-0.305,-0.959,-0.244,1510215
0.04,-0.305,-0.959,-0.366,1510220
0.041,-0.303,-0.961,-0.366,1510225
0.041,-0.303,-0.961,-0.305,1510231
0.041,-0.302,-0.962,-0.183,1510236
0.042,-0.301,-0.961,-0.244,1510241
0.042,-0.301,-0.961,0.0,1510246
0.04,-0.3,-0.962,0.244,1510252
0.04,-0.3,-0.962,0.122,1510257
0.038,-0.299,-0.962,0.061,1510262
0.038,-0.299,-0.962,0.183,1510267
0.036,-0.296,-0.96,0.183,1510272
0.036,-0.296,-0.96,0.0,1510278
0.035,-0.297,-0.962,0.122,1510283
0.035,-0.297,-0.962,0.122,1510288
0.034,-0.296,-0.965,0.061,1510293
0.034,-0.296,-0.965,0.183,1510298
0.032,-0.294,-0.963,0.183,1510304
0.032,-0.294,-0.963,0.061,1510309
0.031,-0.294,-0.962,0.122,1510314
0.031,-0.294,-0.962,0.061,1510319
0.029,-0.294,-0.964,-0.061,1510325
0.029,-0.294,-0.964,-0.122,1510330
0.029,-0.295,-0.964,-0.244,1510335
0.03,-0.295,-0.964,-0.061,1510340
0.03,-0.295,-0.964,-0.122,1510346
0.031,-0.294,-0.964,-0.061,1510351
0.031,-0.294,-0.964,-0.122,1510356
0.031,-0.295,-0.963,-0.122,1510361
0.031,-0.295,-0.963,-0.183,1510367
0.03,-0.295,-0.959,-0.244,1510372
0.03,-0.295,-0.959,-0.366,1510377
0.031,-0.298,-0.961,-0.549,1510382
0.031,-0.298,-0.961,-0.427,1510388
0.032,-0.297,-0.962,-0.549,1510393
0.032,-0.297,-0.962,-0.305,1510398
0.032,-0.298,-0.963,-0.488,1510403
0.032,-0.298,-0.963,-0.366,1510409
0.032,-0.3,-0.961,-0.366,1510414
0.032,-0.3,-0.961,-0.427,1510419
0.035,-0.302,-0.959,-0.488,1510424
0.037,-0.301,-0.959,-0.427,1510430
0.037,-0.301,-0.959,-0.366,1510435
0.038,-0.304,-0.96,-0.427,1510440
0.038,-0.304,-0.96,-0.305,1510445
0.04,-0.304,-0.959,-0.488,1510451
0.04,-0.304,-0.959,-0.366,1510456
0.041,-0.304,-0.958,-0.244,1510461
0.041,-0.304,-0.958,-0.244,1510466
0.04,-0.307,-0.956,-0.244,1510472
0.04,-0.307,-0.956,-0.183,1510477
0.041,-0.308,-0.957,-0.244,1510482
0.041,-0.308,-0.957,-0.305,1510487
0.042,-0.307,-0.959,-0.305,1510493
0.042,-0.307,-0.959,-0.122,1510498
0.039,-0.306,-0.959,-0.122,1510503
0.039,-0.306,-0.959,-0.122,1510508
0.04,-0.306,-0.957,0.0,1510514
0.037,-0.304,-0.958,0.061,1510519
0.037,-0.304,-0.958,0.061,1510524
0.036,-0.304,-0.958,-0.061,1510529
0.036,-0.304,-0.958,0.122,1510534
0.035,-0.305,-0.959,0.061,1510540
0.035,-0.305,-0.959,0.061,1510545
0.033,-0.303,-0.959,0.122,1510550
0.033,-0.303,-0.959,0.122,1510555
0.032,-0.302,-0.957,0.122,1510560
0.032,-0.302,-0.957,0.122,1510566
0.032,-0.301,-0.959,0.0,1510571
0.032,-0.301,-0.959,-0.061,1510576
0.029,-0.299,-0.961,0.0,1510581
0.029,-0.299,-0.961,0.061,1510586
0.028,-0.297,-0.961,-0.061,1510592
0.028,-0.297,-0.961,0.0,1510597
0.028,-0.296,-0.962,-0.061,1510602
0.028,-0.296,-0.962,-0.061,1510607
0.03,-0.298,-0.961,-0.122,1510613
0.03,-0.298,-0.961,-0.244,1510618
0.03,-0.296,-0.961,-0.244,1510623
0.03,-0.296,-0.964,-0.366,1510628
0.03,-0.296,-0.964,-0.366,1510634
0.031,-0.295,-0.963,-0.366,1510639
0.031,-0.295,-0.963,-0.366,1510644
0.032,-0.295,-0.962,-0.366,1510649
0.032,-0.295,-0.962,-0.427,1510655
0.033,-0.295,-0.964,-0.549,1510660
0.033,-0.295,-0.964,-0.488,1510665
0.034,-0.296,-0.963,-0.427,1510670
0.034,-0.296,-0.963,-0.366,1510676
0.035,-0.295,-0.964,-0.305,1510681
0.035,-0.295,-0.964,-0.366,1510686
0.036,-0.296,-0.962,-0.549,1510691
0.036,-0.296,-0.962,-0.427,1510697
0.038,-0.298,-0.962,-0.305,1510702
0.038,-0.298,-0.965,-0.244,1510707
0.038,-0.298,-0.965,-0.244,1510712
0.039,-0.3,-0.961,-0.366,1510718
0.039,-0.3,-0.961,-0.366,1510723
0.04,-0.3,-0.96,-0.244,1510728
0.04,-0.3,-0.96,-0.244,1510734
0.04,-0.301,-0.961,-0.061,1510739
0.04,-0.301,-0.961,0.0,1510744
0.039,-0.302,-0.959,-0.061,1510749
0.039,-0.302,-0.959,0.0,1510754
0.038,-0.303,-0.959,-0.122,1510760
0.038,-0.303,-0.959,-0.122,1510765
0.038,-0.305,-0.96,-0.061,1510770
0.038,-0.305,-0.96,0.061,1510775
0.036,-0.304,-0.958,0.183,1510780
0.036,-0.304,-0.958,0.183,1510786
0.034,-0.305,-0.956,0.061,1510791
0.034,-0.305,-0.956,0.0,1510796
0.033,-0.306,-0.956,0.061,1510801
0.033,-0.305,-0.955,-0.122,1510806
0.033,-0.305,-0.955,-0.061,1510812
0.033,-0.306,-0.957,-0.122,1510817
0.033,-0.306,-0.957,-0.061,1510822
0.032,-0.306,-0.96,-0.061,1510828
0.032,-0.306,-0.96,-0.122,1510833
0.032,-0.305,-0.958,-0.122,1510838
0.032,-0.305,-0.958,-0.061,1510843
0.032,-0.303,-0.958,-0.061,1510849
0.032,-0.303,-0.958,-0.122,1510854
0.032,-0.304,-0.958,-0.244,1510859
0.032,-0.304,-0.958,-0.183,1510864
0.031,-0.303,-0.958,-0.183,1510870
0.031,-0.303,-0.958,-0.305,1510875
0.031,-0.302,-0.958,-0.244,1510880
0.031,-0.302,-0.958,-0.183,1510885
0.031,-0.301,-0.959,-0.244,1510891
0.032,-0.299,-0.96,-0.427,1510896
0.032,-0.299,-0.96,-0.488,1510901
0.033,-0.296,-0.961,-0.366,1510906
0.033,-0.296,-0.961,-0.427,1510912
0.032,-0.295,-0.963,-0.427,1510917
0.032,-0.295,-0.963,-0.183,1510922
0.033,-0.296,-0.966,-0.183,1510927
0.033,-0.296,-0.966,-0.244,1510933
0.034,-0.294,-0.964,-0.183,1510938
0.034,-0.294,-0.964,-0.183,1510943
0.034,-0.294,-0.962,-0.305,1510948
0.034,-0.294,-0.962,-0.183,1510954
0.035,-0.294,-0.962,-0.183,1510959
0.035,-0.294,-0.962,-0.305,1510964
0.036,-0.296,-0.962,-0.244,1510969
0.036,-0.296,-0.962,-0.366,1510975
0.038,-0.297,-0.964,-0.427,1510980
0.039,-0.296,-0.965,-0.244,1510985
0.039,-0.296,-0.965,0.0,1510990
0.039,-0.295,-0.962,-0.122,1510996
0.039,-0.295,-0.962,-0.122,1511001
0.038,-0.297,-0.963,-0.183,1511006
0.038,-0.297,-0.963,-0.183,1511011
0.036,-0.298,-0.965,-0.122,1511017
0.036,-0.298,-0.965,-0.122,1511022
0.036,-0.298,-0.963,-0.244,1511027
0.036,-0.298,-0.963,-0.183,1511032
0.034,-0.301,-0.961,-0.122,1511038
0.034,-0.301,-0.961,-0.061,1511043
0.034,-0.301,-0.96,0.0,1511048
0.034,-0.301,-0.96,0.122,1511053
0.034,-0.3,-0.959,-0.061,1511058
0.034,-0.3,-0.959,0.0,1511064
0.033,-0.303,-0.96,-0.122,1511069
0.033,-0.303,-0.96,-0.122,1511074
0.033,-0.305,-0.96,-0.183,1511079
0.033,-0.305,-0.958,-0.122,1511085
0.033,-0.305,-0.958,0.0,1511090
0.031,-0.306,-0.957,0.0,1511095
0.031,-0.306,-0.957,-0.061,1511100
0.032,-0.308,-0.956,-0.122,1511105
0.032,-0.308,-0.956,-0.122,1511111
0.031,-0.308,-0.955,-0.183,1511116
0.031,-0.308,-0.955,-0.183,1511121
0.032,-0.308,-0.957,-0.244,1511126
0.032,-0.308,-0.957,-0.305,1511132
0.032,-0.306,-0.958,-0.244,1511137
0.032,-0.306,-0.958,-0.244,1511142
0.031,-0.305,-0.957,-0.244,1511147
0.031,-0.305,-0.957,-0.488,1511153
0.034,-0.307,-0.958,-0.305,1511158
0.034,-0.307,-0.958,-0.122,1511163
0.034,-0.304,-0.958,-0.366,1511168
0.033,-0.302,-0.959,-0.427,1511174
0.033,-0.302,-0.959,-0.305,1511179
0.035,-0.3,-0.962,-0.183,1511184
0.035,-0.3,-0.962,-0.244,1511189
0.035,-0.3,-0.96,-0.244,1511195
0.035,-0.3,-0.96,-0.244,1511200
0.034,-0.3,-0.959,-0.244,1511205
0.034,-0.3,-0.959,-0.305,1511210
0.033,-0.298,-0.963,-0.366,1511216
0.033,-0.298,-0.963,-0.366,1511221
0.035,-0.296,-0.965,-0.427,1511226
0.035,-0.296,-0.965,-0.305,1511231
0.037,-0.294,-0.965,0.0,1511237
0.037,-0.294,-0.965,0.061,1511242
0.038,-0.293,-0.964,0.061,1511247
0.038,-0.293,-0.964,0.122,1511252
0.036,-0.294,-0.963,-0.122,1511258
0.036,-0.294,-0.963,-0.122,1511263
0.036,-0.294,-0.963,-0.122,1511268
0.034,-0.292,-0.967,-0.183,1511273
0.034,-0.292,-0.967,-0.122,1511279
0.035,-0.292,-0.967,0.0,1511284
0.035,-0.292,-0.967,0.0,1511289
0.034,-0.293,-0.962,0.0,1511294
0.034,-0.293,-0.962,0.061,1511299
0.032,-0.295,-0.964,-0.061,1511304
0.032,-0.295,-0.964,-0.061,1511310
0.031,-0.296,-0.965,-0.305,1511315
0.031,-0.296,-0.965,-0.305,1511320
0.034,-0.297,-0.963,-0.183,1511325
0.034,-0.297,-0.963,-0.061,1511331
0.033,-0.299,-0.961,-0.183,1511336
0.033,-0.299,-0.961,-0.122,1511341
0.032,-0.3,-0.961,0.061,1511346
0.032,-0.3,-0.961,0.183,1511352
0.033,-0.302,-0.959,-0.244,1511357
0.032,-0.304,-0.959,-0.305,1511362
0.032,-0.304,-0.959,-0.244,1511367
0.033,-0.304,-0.959,-0.244,1511373
0.033,-0.304,-0.959,-0.244,1511378
0.034,-0.305,-0.958,-0.183,1511383
0.034,-0.305,-0.958,-0.244,1511388
0.033,-0.305,-0.957,-0.061,1511394
0.033,-0.305,-0.957,-0.122,1511399
0.033,-0.306,-0.958,-0.183,1511404
0.033,-0.306,-0.958,-0.244,1511409
0.033,-0.306,-0.958,-0.244,1511415
0.033,-0.306,-0.958,-0.305,1511420
0.033,-0.307,-0.956,-0.366,1511425
0.033,-0.307,-0.956,-0.366,1511430
0.034,-0.307,-0.956,-0.244,1511436
0.034,-0.307,-0.956,-0.305,1511441
0.034,-0.308,-0.957,-0.305,1511446
0.035,-0.306,-0.958,-0.305,1511451
0.035,-0.306,-0.958,-0.305,1511457
0.037,-0.304,-0.956,-0.244,1511462
0.037,-0.304,-0.956,-0.427,1511467
0.038,-0.304,-0.958,-0.366,1511472
0.038,-0.304,-0.958,-0.183,1511478
0.037,-0.305,-0.96,-0.183,1511483
0.037,-0.305,-0.96,-0.122,1511488
0.036,-0.303,-0.959,-0.183,1511493
0.036,-0.303,-0.959,-0.061,1511499
0.036,-0.301,-0.959,-0.061,1511504
0.036,-0.301,-0.959,-0.183,1511509
0.037,-0.3,-0.96,-0.061,1511514
0.037,-0.3,-0.96,-0.122,1511520
0.036,-0.299,-0.962,-0.122,1511525
0.036,-0.299,-0.962,-0.122,1511530
0.035,-0.297,-0.962,-0.122,1511535
0.034,-0.295,-0.963,0.061,1511541
0.034,-0.295,-0.963,0.122,1511546
0.034,-0.295,-0.966,0.061,1511551
0.034,-0.295,-0.966,0.0,1511556
0.032,-0.295,-0.964,0.061,1511562
0.032,-0.295,-0.964,0.0,1511567
0.032,-0.295,-0.964,0.0,1511572
0.032,-0.295,-0.964,-0.122,1511577
0.031,-0.293,-0.964,-0.122,1511582
0.031,-0.293,-0.964,-0.061,1511588
0.033,-0.293,-0.963,0.061,1511593
0.033,-0.293,-0.963,-0.122,1511598
0.032,-0.294,-0.966,-0.183,1511603
0.032,-0.294,-0.966,-0.061,1511609
0.031,-0.293,-0.964,-0.061,1511614
0.031,-0.293,-0.964,0.0,1511619
0.031,-0.294,-0.963,-0.061,1511624
0.031,-0.294,-0.963,-0.122,1511629
0.031,-0.295,-0.963,0.0,1511635
0.031,-0.297,-0.963,-0.183,1511640
0.031,-0.297,-0.963,-0.244,1511645
0.032,-0.297,-0.962,-0.183,1511650
0.032,-0.297,-0.962,-0.244,1511656
0.032,-0.299,-0.962,-0.305,1511661
0.032,-0.299,-0.962,-0.244,1511666
0.033,-0.301,-0.96,-0.244,1511671
0.033,-0.301,-0.96,-0.427,1511677
0.033,-0.302,-0.96,-0.427,1511682
0.033,-0.302,-0.96,-0.366,1511687
0.034,-0.304,-0.959,-0.305,1511692
0.034,-0.304,-0.959,-0.366,1511698
0.035,-0.303,-0.96,-0.244,1511703
0.035,-0.303,-0.96,-0.305,1511708
0.036,-0.304,-0.958,-0.305,1511713
0.036,-0.304,-0.958,-0.305,1511719
0.035,-0.306,-0.956,-0.122,1511724
0.036,-0.307,-0.957,-0.244,1511729
0.036,-0.307,-0.957,-0.122,1511734
0.037,-0.307,-0.957,-0.122,1511740
0.037,-0.307,-0.957,-0.122,1511745
0.037,-0.307,-0.958,-0.061,1511750
0.037,-0.307,-0.958,-0.061,1511755
0.037,-0.306,-0.958,-0.122,1511761
0.037,-0.306,-0.958,-0.183,1511766
0.035,-0.307,-0.959,0.061,1511771
0.035,-0.307,-0.959,0.0,1511776
0.034,-0.305,-0.958,-0.122,1511782
0.034,-0.305,-0.958,-0.061,1511787
0.035,-0.305,-0.959,0.0,1511792
0.035,-0.305,-0.959,0.0,1511797
0.034,-0.303,-0.96,-0.061,1511802
0.034,-0.303,-0.96,-0.183,1511808
0.033,-0.303,-0.96,0.0,1511813
0.033,-0.303,-0.96,0.0,1511818
0.034,-0.301,-0.959,-0.183,1511823
0.033,-0.299,-0.96,-0.122,1511828
0.033,-0.299,-0.96,-0.122,1511834
0.032,-0.301,-0.96,-0.122,1511839
0.032,-0.301,-0.96,-0.061,1511844
0.032,-0.299,-0.961,-0.244,1511849
0.032,-0.299,-0.961,-0.122,1511855
0.032,-0.297,-0.961,-0.061,1511860
0.032,-0.297,-0.961,-0.061,1511865
0.032,-0.298,-0.962,-0.061,1511870
0.032,-0.298,-0.962,-0.305,1511876
0.031,-0.297,-0.962,-0.244,1511881
0.031,-0.297,-0.962,-0.244,1511886
0.031,-0.296,-0.963,-0.244,1511891
0.031,-0.296,-0.963,-0.305,1511897
0.031,-0.296,-0.966,-0.305,1511902
0.031,-0.296,-0.966,-0.183,1511907
0.033,-0.293,-0.965,-0.183,1511912
0.034,-0.292,-0.963,-0.183,1511918
0.034,-0.292,-0.963,-0.305,1511923
0.033,-0.295,-0.965,-0.244,1511928
0.033,-0.295,-0.965,-0.244,1511933
0.033,-0.295,-0.964,-0.183,1511939
0.033,-0.295,-0.964,-0.244,1511944
0.034,-0.295,-0.963,-0.366,1511949
0.034,-0.295,-0.963,-0.366,1511954
0.034,-0.297,-0.964,-0.305,1511960
0.034,-0.297,-0.964,-0.305,1511965
0.035,-0.298,-0.962,-0.305,1511970
0.035,-0.298,-0.962,-0.366,1511975
0.035,-0.297,-0.961,-0.244,1511981
0.035,-0.297,-0.961,-0.122,1511986
0.035,-0.299,-0.961,-0.244,1511991
0.035,-0.299,-0.961,-0.488,1511997
0.034,-0.3,-0.96,-0.122,1512002
0.036,-0.301,-0.959,-0.061,1512007
0.036,-0.301,-0.959,-0.122,1512012
0.035,-0.302,-0.959,-0.061,1512018
0.035,-0.302,-0.959,-0.122,1512023
0.035,-0.303,-0.96,-0.122,1512028
0.035,-0.303,-0.96,-0.183,1512033
0.035,-0.305,-0.958,-0.183,1512039
0.035,-0.305,-0.958,-0.061,1512044
0.033,-0.305,-0.958,-0.183,1512049
0.033,-0.305,-0.958,-0.183,1512054
0.034,-0.305,-0.958,-0.122,1512060
0.034,-0.305,-0.958,-0.061,1512065
0.034,-0.307,-0.958,0.0,1512070
0.034,-0.307,-0.958,-0.183,1512075
0.035,-0.305,-0.958,-0.061,1512080
0.035,-0.305,-0.958,-0.122,1512086
0.033,-0.306,-0.959,-0.122,1512091
0.032,-0.306,-0.957,-0.061,1512096
0.032,-0.306,-0.957,-0.122,1512101
0.032,-0.305,-0.958,-0.061,1512107
0.032,-0.305,-0.958,0.0,1512112
0.032,-0.304,-0.959,-0.061,1512117
0.032,-0.304,-0.959,-0.122,1512122
0.033,-0.305,-0.959,-0.183,1512128
0.033,-0.305,-0.959,-0.305,1512133
0.033,-0.304,-0.96,-0.122,1512138
0.033,-0.304,-0.96,-0.244,1512143
0.032,-0.301,-0.96,-0.305,1512149
0.032,-0.301,-0.96,-0.244,1512154
0.033,-0.301,-0.959,-0.305,1512159
0.033,-0.301,-0.959,-0.305,1512164
0.032,-0.3,-0.96,-0.305,1512170
0.032,-0.3,-0.96,-0.244,1512175
0.033,-0.298,-0.961,-0.183,1512180
0.034,-0.297,-0.962,-0.244,1512185
0.034,-0.297,-0.962,-0.244,1512191
0.033,-0.297,-0.962,-0.366,1512196
0.033,-0.297,-0.962,-0.305,1512201
0.034,-0.297,-0.963,-0.305,1512206
0.034,-0.297,-0.963,-0.366,1512212
0.034,-0.295,-0.966,-0.244,1512217
0.034,-0.295,-0.966,-0.244,1512222
0.033,-0.295,-0.964,-0.244,1512227
0.033,-0.295,-0.964,-0.183,1512233
0.035,-0.294,-0.964,0.0,1512238
0.035,-0.294,-0.964,-0.061,1512243
0.035,-0.295,-0.964,-0.183,1512248
0.035,-0.295,-0.964,-0.122,1512254
0.034,-0.295,-0.963,-0.061,1512259
0.034,-0.295,-0.963,-0.122,1512264
0.034,-0.296,-0.963,-0.122,1512269
0.034,-0.296,-0.962,-0.061,1512275
0.034,-0.296,-0.962,-0.183,1512280
0.033,-0.298,-0.964,-0.122,1512285
0.033,-0.298,-0.964,-0.122,1512290
0.033,-0.298,-0.961,-0.183,1512296
0.033,-0.298,-0.961,-0.183,1512301
0.034,-0.299,-0.96,-0.183,1512306
0.034,-0.299,-0.96,-0.183,1512311
0.034,-0.299,-0.962,-0.122,1512317
0.034,-0.299,-0.962,-0.061,1512322
0.033,-0.301,-0.962,-0.244,1512327
0.033,-0.301,-0.962,-0.305,1512332
0.033,-0.302,-0.959,-0.244,1512338
0.033,-0.302,-0.959,-0.183,1512343
0.031,-0.304,-0.958,-0.122,1512348
0.031,-0.304,-0.958,-0.122,1512353
0.031,-0.306,-0.958,-0.122,1512359
0.032,-0.304,-0.958,-0.305,1512364
0.032,-0.304,-0.958,-0.244,1512369
0.033,-0.305,-0.958,-0.244,1512374
0.033,-0.305,-0.958,-0.183,1512380
0.033,-0.305,-0.956,-0.183,1512385
0.033,-0.305,-0.956,-0.183,1512390
0.033,-0.305,-0.957,-0.305,1512395
0.033,-0.305,-0.957,-0.366,1512401
0.033,-0.305,-0.958,-0.183,1512406
0.033,-0.305,-0.958,-0.183,1512411
0.033,-0.306,-0.958,-0.305,1512416
0.033,-0.306,-0.958,-0.244,1512422
0.034,-0.305,-0.958,-0.366,1512427
0.034,-0.305,-0.958,-0.305,1512432
0.033,-0.304,-0.959,-0.305,1512437
0.033,-0.304,-0.959,-0.244,1512443
0.034,-0.304,-0.959,-0.122,1512448
0.035,-0.303,-0.959,-0.122,1512453
0.035,-0.303,-0.959,-0.183,1512458
0.035,-0.303,-0.961,-0.305,1512464
0.035,-0.303,-0.961,-0.305,1512469
0.034,-0.3,-0.96,-0.244,1512474
0.034,-0.3,-0.96,-0.122,1512479
0.034,-0.3,-0.961,-0.122,1512485
0.034,-0.3,-0.961,-0.122,1512490
0.035,-0.299,-0.962,-0.183,1512495
0.035,-0.299,-0.962,-0.061,1512500
0.035,-0.297,-0.961,-0.122,1512506
0.035,-0.297,-0.961,-0.183,1512511
0.033,-0.298,-0.964,-0.183,1512516
0.033,-0.298,-0.964,-0.122,1512522
0.033,-0.296,-0.964,-0.122,1512527
0.033,-0.296,-0.964,-0.183,1512532
0.035,-0.294,-0.961,0.061,1512537
0.034,-0.296,-0.963,-0.061,1512542
0.034,-0.296,-0.963,-0.427,1512548
0.032,-0.298,-0.971,-0.61,1512553
0.032,-0.298,-0.971,-0.366,1512558
0.034,-0.295,-0.965,-0.061,1512563
0.034,-0.295,-0.965,0.366,1512569
0.032,-0.294,-0.957,0.61,1512574
0.032,-0.294,-0.957,0.305,1512579
0.031,-0.297,-0.961,-0.061,1512584
0.031,-0.297,-0.961,-0.427,1512590
0.03,-0.298,-0.966,-0.854,1512595
0.03,-0.298,-0.966,-0.732,1512600
0.03,-0.295,-0.962,-0.122,1512605
0.03,-0.295,-0.962,0.427,1512611
0.031,-0.297,-0.961,0.488,1512616
0.031,-0.297,-0.961,0.427,1512621
0.032,-0.301,-0.96,0.122,1512626
0.032,-0.301,-0.96,-0.122,1512631
0.031,-0.302,-0.957,-0.549,1512637
0.032,-0.302,-0.958,-0.427,1512642
0.032,-0.302,-0.958,-0.305,1512647
0.034,-0.302,-0.962,-0.183,1512652
0.034,-0.302,-0.962,0.0,1512658
0.033,-0.303,-0.961,0.0,1512663
0.033,-0.303,-0.961,-0.183,1512668
0.034,-0.304,-0.957,-0.305,1512673
0.034,-0.304,-0.957,-0.366,1512678
0.032,-0.303,-0.956,-0.427,1512684
0.032,-0.303,-0.956,-0.427,1512689
0.034,-0.304,-0.958,-0.488,1512694
0.034,-0.304,-0.958,-0.427,1512699
0.034,-0.305,-0.96,-0.427,1512705
0.034,-0.305,-0.96,-0.366,1512710
0.035,-0.306,-0.961,-0.488,1512715
0.035,-0.306,-0.961,-0.305,1512721
0.034,-0.304,-0.958,-0.183,1512726
0.034,-0.303,-0.956,-0.061,1512731
0.034,-0.303,-0.956,-0.183,1512736
0.036,-0.304,-0.959,-0.366,1512742
0.036,-0.304,-0.959,-0.427,1512747
0.036,-0.304,-0.962,-0.366,1512752
0.036,-0.304,-0.962,-0.183,1512757
0.034,-0.301,-0.96,0.061,1512763
0.034,-0.301,-0.96,0.244,1512768
0.036,-0.302,-0.959,0.305,1512773
0.036,-0.302,-0.959,0.305,1512778
0.034,-0.302,-0.96,-0.061,1512783
0.034,-0.302,-0.96,-0.183,1512789
0.035,-0.3,-0.96,-0.183,1512794
0.035,-0.3,-0.96,-0.122,1512799
0.033,-0.298,-0.963,-0.061,1512804
0.033,-0.298,-0.963,0.0,1512810
0.032,-0.298,-0.962,0.122,1512815
0.032,-0.298,-0.96,0.061,1512820
0.032,-0.298,-0.96,-0.061,1512825
0.032,-0.298,-0.96,-0.122,1512830
0.032,-0.298,-0.96,-0.305,1512836
0.031,-0.297,-0.962,-0.366,1512841
0.031,-0.297,-0.962,-0.183,1512846
0.03,-0.298,-0.963,-0.244,1512851
0.03,-0.298,-0.963,-0.244,1512857
0.03,-0.298,-0.962,-0.061,1512862
0.03,-0.298,-0.962,-0.244,1512867
0.032,-0.297,-0.961,-0.366,1512872
0.032,-0.297,-0.961,-0.244,1512878
0.032,-0.299,-0.961,-0.305,1512883
0.032,-0.299,-0.961,-0.244,1512888
0.032,-0.298,-0.962,-0.305,1512893
0.032,-0.298,-0.962,-0.244,1512899
0.033,-0.298,-0.961,-0.244,1512904
0.032,-0.298,-0.962,-0.244,1512909
0.032,-0.298,-0.962,-0.183,1512914
0.031,-0.297,-0.962,0.0,1512920
0.031,-0.297,-0.962,0.0,1512925
0.032,-0.299,-0.961,-0.122,1512930
0.032,-0.299,-0.961,-0.183,1512935
0.033,-0.302,-0.961,-0.305,1512941
0.033,-0.302,-0.961,-0.366,1512946
0.033,-0.302,-0.962,-0.244,1512951
0.033,-0.302,-0.962,-0.183,1512956
0.034,-0.301,-0.962,-0.061,1512962
0.034,-0.301,-0.962,-0.122,1512967
0.034,-0.3,-0.959,-0.183,1512972
0.034,-0.3,-0.959,-0.183,1512977
0.034,-0.302,-0.96,-0.305,1512983
0.034,-0.302,-0.96,-0.366,1512988
0.034,-0.304,-0.959,-0.366,1512993
0.034,-0.304,-0.959,-0.427,1512998
0.036,-0.304,-0.961,-0.244,1513004
0.036,-0.304,-0.96,-0.061,1513009
0.036,-0.304,-0.96,-0.122,1513014
0.036,-0.303,-0.96,-0.183,1513019
0.036,-0.303,-0.96,-0.183,1513025
0.035,-0.303,-0.959,-0.183,1513030
0.035,-0.303,-0.959,-0.122,1513035
0.034,-0.303,-0.958,-0.183,1513040
0.034,-0.303,-0.958,0.0,1513046
0.034,-0.303,-0.961,-0.122,1513051
0.034,-0.303,-0.961,-0.244,1513056
0.032,-0.302,-0.96,-0.183,1513061
0.032,-0.302,-0.96,-0.061,1513066
0.032,-0.302,-0.959,0.061,1513072
0.032,-0.302,-0.959,0.122,1513077
0.031,-0.302,-0.958,-0.061,1513082
0.031,-0.302,-0.958,-0.061,1513087
0.031,-0.302,-0.96,-0.061,1513093
0.031,-0.301,-0.961,-0.183,1513098
0.031,-0.301,-0.961,-0.122,1513103
0.032,-0.301,-0.96,-0.244,1513108
0.032,-0.301,-0.96,-0.061,1513114
0.033,-0.299,-0.961,0.061,1513119
0.033,-0.299,-0.961,-0.183,1513124
0.031,-0.3,-0.96,-0.183,1513129
0.031,-0.3,-0.96,-0.122,1513135
0.031,-0.299,-0.961,-0.305,1513140
0.031,-0.299,-0.961,-0.244,1513145
0.031,-0.299,-0.961,-0.122,1513150
0.031,-0.299,-0.961,-0.122,1513156
0.033,-0.298,-0.963,-0.244,1513161
0.033,-0.298,-0.963,-0.244,1513166
0.032,-0.297,-0.964,-0.244,1513171
0.032,-0.297,-0.964,-0.183,1513177
0.033,-0.297,-0.962,-0.122,1513182
0.034,-0.298,-0.962,-0.427,1513187
0.034,-0.298,-0.962,-0.488,1513192
0.033,-0.297,-0.963,-0.305,1513198
0.033,-0.297,-0.963,-0.366,1513203
0.034,-0.297,-0.964,-0.488,1513208
0.034,-0.297,-0.964,-0.305,1513213
0.035,-0.299,-0.962,-0.305,1513219
0.035,-0.299,-0.962,-0.183,1513224
0.033,-0.299,-0.962,-0.183,1513229
0.033,-0.299,-0.962,-0.244,1513234
0.034,-0.3,-0.959,-0.244,1513240
0.034,-0.3,-0.959,-0.122,1513245
0.033,-0.3,-0.961,-0.061,1513250
0.033,-0.3,-0.961,-0.122,1513255
0.035,-0.301,-0.962,-0.122,1513261
0.035,-0.301,-0.962,-0.061,1513266
0.036,-0.301,-0.961,0.122,1513271
0.035,-0.301,-0.96,0.061,1513276
0.035,-0.301,-0.96,0.0,1513282
0.033,-0.302,-0.961,0.122,1513287
0.033,-0.302,-0.961,0.061,1513292
0.032,-0.302,-0.96,0.0,1513297
0.032,-0.302,-0.96,-0.122,1513302
0.032,-0.302,-0.959,0.0,1513307
0.032,-0.302,-0.959,0.0,1513313
0.033,-0.301,-0.959,-0.183,1513318
0.033,-0.301,-0.959,-0.244,1513323
0.032,-0.303,-0.959,-0.366,1513328
0.032,-0.303,-0.959,-0.366,1513334
0.032,-0.303,-0.958,-0.244,1513339
0.032,-0.303,-0.958,-0.305,1513344
0.031,-0.304,-0.959,-0.305,1513349
0.031,-0.304,-0.959,-0.183,1513355
0.032,-0.304,-0.959,-0.183,1513360
0.032,-0.304,-0.959,-0.244,1513365
0.033,-0.302,-0.958,-0.244,1513370
0.031,-0.301,-0.96,-0.244,1513376
0.031,-0.301,-0.96,-0.244,1513381
0.031,-0.302,-0.959,-0.122,1513386
0.031,-0.302,-0.959,-0.183,1513391
0.033,-0.303,-0.961,-0.244,1513397
0.033,-0.303,-0.961,-0.244,1513402
0.033,-0.301,-0.96,-0.122,1513407
0.033,-0.301,-0.96,-0.244,1513412
0.033,-0.301,-0.961,-0.183,1513418
0.033,-0.301,-0.961,0.0,1513423
0.033,-0.3,-0.962,-0.061,1513428
0.033,-0.3,-0.962,-0.122,1513433
0.031,-0.298,-0.962,0.122,1513439
0.031,-0.298,-0.962,0.122,1513444
0.032,-0.3,-0.962,-0.183,1513449
0.032,-0.3,-0.962,-0.244,1513454
0.035,-0.3,-0.961,-0.366,1513459
0.034,-0.298,-0.963,-0.183,1513465
0.034,-0.298,-0.963,-0.244,1513470
0.034,-0.299,-0.963,-0.244,1513475
0.034,-0.299,-0.963,-0.305,1513480
0.034,-0.298,-0.962,-0.183,1513486
0.034,-0.298,-0.962,-0.244,1513491
0.034,-0.297,-0.96,-0.244,1513496
0.034,-0.297,-0.96,-0.366,1513502
0.034,-0.298,-0.962,-0.244,1513507
0.034,-0.298,-0.962,-0.183,1513512
0.035,-0.298,-0.963,-0.244,1513517
0.035,-0.298,-0.963,0.0,1513522
0.034,-0.299,-0.961,0.061,1513528
0.034,-0.299,-0.961,0.0,1513533
0.033,-0.299,-0.962,0.0,1513538
0.033,-0.299,-0.962,0.0,1513543
0.031,-0.298,-0.962,0.122,1513548
0.031,-0.298,-0.962,0.0,1513554
0.033,-0.299,-0.959,-0.183,1513559
0.032,-0.3,-0.961,-0.122,1513564
0.032,-0.3,-0.961,-0.061,1513569
0.032,-0.3,-0.962,0.061,1513574
0.032,-0.3,-0.962,0.0,1513580
0.031,-0.302,-0.96,-0.122,1513585
0.031,-0.302,-0.96,-0.183,1513590
0.03,-0.303,-0.959,0.0,1513595
0.03,-0.303,-0.959,-0.122,1513600
0.031,-0.305,-0.961,-0.305,1513606
0.031,-0.305,-0.961,-0.244,1513611
0.031,-0.304,-0.961,-0.244,1513616
0.031,-0.304,-0.961,-0.061,1513621
0.032,-0.302,-0.96,-0.061,1513627
0.032,-0.302,-0.96,-0.061,1513632
0.032,-0.301,-0.96,-0.122,1513637
0.032,-0.301,-0.96,-0.122,1513642
0.031,-0.301,-0.958,-0.122,1513648
0.031,-0.301,-0.958,-0.183,1513653
0.032,-0.301,-0.959,-0.183,1513658
0.032,-0.301,-0.959,-0.244,1513663
0.032,-0.301,-0.959,-0.305,1513669
0.031,-0.3,-0.959,-0.366,1513674
0.031,-0.3,-0.959,-0.305,1513679
0.032,-0.299,-0.961,-0.122,1513684
0.032,-0.299,-0.961,-0.244,1513690
0.035,-0.299,-0.961,-0.427,1513695
0.035,-0.299,-0.961,-0.366,1513700
0.034,-0.299,-0.961,-0.366,1513706
0.034,-0.299,-0.961,-0.427,1513711
0.034,-0.301,-0.961,-0.305,1513716
0.034,-0.301,-0.961,-0.244,1513721
0.035,-0.301,-0.96,-0.488,1513727
0.035,-0.301,-0.96,-0.366,1513732
0.034,-0.302,-0.961,-0.183,1513737
0.034,-0.302,-0.961,-0.183,1513742
0.036,-0.302,-0.96,-0.183,1513748
0.035,-0.301,-0.96,-0.122,1513753
0.035,-0.301,-0.96,-0.061,1513758
0.035,-0.3,-0.96,-0.122,1513763
0.035,-0.3,-0.96,-0.061,1513769
0.036,-0.301,-0.961,0.0,1513774
0.036,-0.301,-0.961,-0.183,1513779
0.033,-0.299,-0.96,0.061,1513784
0.033,-0.299,-0.96,0.183,1513789
0.032,-0.299,-0.96,0.0,1513795
0.032,-0.299,-0.96,-0.061,1513800
0.033,-0.299,-0.959,0.0,1513805
0.033,-0.299,-0.959,-0.061,1513810
0.031,-0.299,-0.96,-0.305,1513815
0.031,-0.299,-0.96,-0.305,1513821
0.031,-0.301,-0.961,-0.122,1513826
0.031,-0.301,-0.961,-0.061,1513831
0.032,-0.301,-0.962,-0.061,1513836
0.031,-0.3,-0.961,-0.183,1513842
0.031,-0.3,-0.961,-0.244,1513847
0.031,-0.3,-0.96,-0.244,1513852
0.031,-0.3,-0.96,-0.183,1513857
0.031,-0.301,-0.96,-0.366,1513863
0.031,-0.301,-0.96,-0.183,1513868
0.032,-0.301,-0.96,-0.061,1513873
0.032,-0.301,-0.96,-0.244,1513878
0.03,-0.301,-0.961,-0.305,1513884
0.03,-0.301,-0.961,-0.183,1513889
0.032,-0.301,-0.96,-0.183,1513894
0.032,-0.301,-0.96,-0.244,1513899
0.031,-0.301,-0.961,-0.183,1513905
0.031,-0.301,-0.961,-0.244,1513910
0.031,-0.3,-0.961,0.0,1513915
0.031,-0.3,-0.961,-0.183,1513920
0.033,-0.3,-0.961,-0.305,1513926
0.033,-0.3,-0.961,-0.244,1513931
0.032,-0.301,-0.96,-0.244,1513936
0.033,-0.3,-0.959,-0.366,1513941
0.033,-0.3,-0.959,-0.305,1513947
0.034,-0.299,-0.96,-0.305,1513952
0.034,-0.299,-0.96,-0.366,1513957
0.035,-0.302,-0.96,-0.305,1513962
0.035,-0.302,-0.96,-0.366,1513968
0.036,-0.302,-0.961,-0.366,1513973
0.036,-0.302,-0.961,-0.305,1513978
0.035,-0.302,-0.961,-0.366,1513983
0.035,-0.302,-0.961,-0.366,1513989
0.035,-0.301,-0.96,-0.244,1513994
0.035,-0.301,-0.96,-0.427,1513999
0.035,-0.302,-0.959,-0.366,1514004
0.035,-0.302,-0.959,-0.061,1514010
0.034,-0.302,-0.961,-0.061,1514015
0.034,-0.302,-0.961,-0.061,1514020
0.034,-0.302,-0.96,-0.183,1514025
0.033,-0.301,-0.96,-0.122,1514031
0.033,-0.301,-0.96,0.061,1514036
0.032,-0.301,-0.961,0.0,1514041
0.032,-0.301,-0.961,-0.061,1514046
0.032,-0.299,-0.961,-0.061,1514051
0.032,-0.299,-0.961,-0.061,1514057
0.031,-0.299,-0.959,-0.122,1514062
0.031,-0.299,-0.959,0.0,1514067
0.031,-0.301,-0.961,0.061,1514072
0.031,-0.301,-0.961,-0.183,1514078
0.03,-0.299,-0.96,-0.122,1514083
0.03,-0.299,-0.96,-0.061,1514088
0.031,-0.3,-0.959,-0.122,1514093
0.031,-0.3,-0.959,-0.122,1514099
0.031,-0.3,-0.958,-0.244,1514104
0.031,-0.3,-0.958,-0.244,1514109
0.031,-0.3,-0.96,-0.305,1514114
0.031,-0.3,-0.96,-0.305,1514120
0.031,-0.3,-0.96,-0.244,1514125
0.033,-0.299,-0.961,-0.244,1514130
0.033,-0.299,-0.961,-0.244,1514135
0.031,-0.3,-0.961,-0.183,1514141
0.031,-0.3,-0.961,-0.122,1514146
0.031,-0.301,-0.961,-0.244,1514151
0.031,-0.301,-0.961,-0.244,1514156
0.031,-0.301,-0.961,-0.305,1514162
0.031,-0.301,-0.961,-0.305,1514167
0.032,-0.3,-0.961,-0.244,1514172
0.032,-0.3,-0.961,-0.244,1514177
0.032,-0.299,-0.961,-0.305,1514183
0.032,-0.299,-0.961,-0.183,1514188
0.033,-0.3,-0.961,-0.366,1514193
0.033,-0.3,-0.961,-0.183,1514198
0.034,-0.3,-0.961,-0.183,1514204
0.033,-0.3,-0.961,-0.305,1514209
0.033,-0.3,-0.961,-0.244,1514214
0.034,-0.3,-0.959,-0.305,1514219
0.034,-0.3,-0.959,-0.244,1514225
0.034,-0.301,-0.959,-0.122,1514230
0.034,-0.301,-0.959,-0.183,1514235
0.035,-0.3,-0.961,-0.061,1514240
0.035,-0.3,-0.961,-0.122,1514246
0.035,-0.301,-0.961,-0.244,1514251
0.035,-0.301,-0.961,-0.061,1514256
0.034,-0.303,-0.96,0.0,1514261
0.034,-0.303,-0.96,0.0,1514266
0.033,-0.302,-0.961,-0.061,1514272
0.033,-0.302,-0.961,-0.122,1514277
0.033,-0.3,-0.961,-0.061,1514282
0.033,-0.3,-0.961,0.0,1514287
0.033,-0.302,-0.961,-0.183,1514293
0.033,-0.302,-0.961,-0.183,1514298
0.032,-0.3,-0.961,-0.061,1514303
0.032,-0.301,-0.962,-0.122,1514308
0.032,-0.301,-0.962,-0.244,1514313
0.031,-0.302,-0.959,-0.244,1514319
0.031,-0.302,-0.959,-0.305,1514324
0.031,-0.302,-0.961,-0.305,1514329
0.031,-0.302,-0.961,-0.305,1514334
0.031,-0.302,-0.96,-0.183,1514340
0.031,-0.302,-0.96,-0.122,1514345
0.031,-0.301,-0.96,-0.183,1514350
0.031,-0.301,-0.96,-0.061,1514355
0.031,-0.302,-0.959,-0.183,1514361
0.031,-0.302,-0.959,-0.183,1514366
0.03,-0.301,-0.96,-0.183,1514371
0.03,-0.301,-0.96,-0.122,1514376
0.031,-0.3,-0.962,-0.183,1514382
0.031,-0.3,-0.962,-0.183,1514387
0.032,-0.302,-0.961,-0.183,1514392
0.033,-0.3,-0.962,-0.183,1514398
0.033,-0.3,-0.962,-0.244,1514403
0.032,-0.301,-0.96,-0.244,1514408
0.032,-0.301,-0.96,-0.061,1514413
0.032,-0.301,-0.959,-0.183,1514419
0.032,-0.301,-0.959,-0.244,1514424
0.033,-0.299,-0.961,-0.305,1514429
0.033,-0.299,-0.961,-0.305,1514434
0.032,-0.299,-0.961,-0.305,1514440
0.032,-0.299,-0.961,-0.244,1514445
0.034,-0.299,-0.961,-0.122,1514450
0.034,-0.299,-0.961,-0.244,1514455
0.034,-0.3,-0.961,-0.305,1514461
0.034,-0.3,-0.961,-0.305,1514466
0.034,-0.3,-0.961,-0.183,1514471
0.034,-0.3,-0.961,-0.183,1514476
0.034,-0.3,-0.961,-0.366,1514482
0.035,-0.302,-0.961,-0.183,1514487
0.035,-0.302,-0.961,-0.122,1514492
0.034,-0.3,-0.962,0.0,1514497
0.034,-0.3,-0.962,-0.061,1514502
0.034,-0.299,-0.963,-0.061,1514508
0.034,-0.299,-0.963,0.0,1514513
0.033,-0.299,-0.961,-0.061,1514518
0.033,-0.299,-0.961,0.0,1514523
0.032,-0.301,-0.96,0.061,1514529
0.032,-0.301,-0.96,0.0,1514534
0.032,-0.299,-0.962,-0.061,1514539
0.032,-0.299,-0.962,0.183,1514544
0.031,-0.299,-0.962,-0.061,1514549
0.031,-0.299,-0.962,0.0,1514555
0.031,-0.301,-0.962,-0.122,1514560
0.031,-0.301,-0.962,-0.183,1514565
0.03,-0.301,-0.959,-0.061,1514570
0.03,-0.301,-0.959,-0.183,1514576
0.031,-0.302,-0.962,-0.122,1514581
0.032,-0.3,-0.96,-0.122,1514586
0.032,-0.3,-0.96,-0.183,1514591
0.03,-0.301,-0.961,-0.183,1514597
0.03,-0.301,-0.961,-0.122,1514602
0.031,-0.302,-0.959,-0.122,1514607
0.031,-0.302,-0.959,-0.183,1514612
0.031,-0.303,-0.959,-0.183,1514618
0.031,-0.303,-0.959,-0.244,1514623
0.031,-0.302,-0.958,-0.244,1514628
0.031,-0.302,-0.958,-0.305,1514633
0.031,-0.299,-0.961,-0.427,1514639
0.031,-0.299,-0.961,-0.305,1514644
0.032,-0.299,-0.96,-0.244,1514649
0.032,-0.299,-0.96,-0.244,1514654
0.032,-0.3,-0.961,-0.244,1514660
0.032,-0.3,-0.961,-0.244,1514665
0.032,-0.301,-0.962,-0.305,1514670
0.032,-0.3,-0.963,-0.244,1514675
0.032,-0.3,-0.963,-0.244,1514681
0.034,-0.301,-0.962,-0.244,1514686
0.034,-0.301,-0.962,-0.244,1514691
0.033,-0.3,-0.96,-0.244,1514696
0.033,-0.3,-0.96,-0.122,1514702
0.034,-0.3,-0.961,-0.122,1514707
0.034,-0.3,-0.961,-0.183,1514712
0.035,-0.301,-0.961,-0.061,1514717
0.035,-0.301,-0.961,0.0,1514723
0.035,-0.301,-0.96,-0.183,1514728
0.035,-0.301,-0.96,-0.061,1514733
0.033,-0.301,-0.962,-0.183,1514738
0.033,-0.301,-0.962,-0.183,1514743
0.033,-0.3,-0.962,0.061,1514749
0.033,-0.3,-0.962,-0.183,1514754
0.033,-0.301,-0.962,-0.061,1514759
0.034,-0.3,-0.961,-0.061,1514764
0.034,-0.3,-0.961,-0.122,1514770
0.032,-0.299,-0.96,-0.122,1514775
0.032,-0.299,-0.96,-0.061,1514780
0.032,-0.299,-0.961,-0.183,1514785
0.032,-0.299,-0.961,-0.183,1514791
0.033,-0.3,-0.961,0.0,1514796
0.033,-0.3,-0.961,-0.061,1514801
0.031,-0.299,-0.959,-0.244,1514806
0.031,-0.299,-0.959,-0.183,1514812
0.031,-0.301,-0.961,-0.183,1514817
0.031,-0.301,-0.961,-0.183,1514822
0.031,-0.3,-0.962,-0.366,1514827
0.031,-0.3,-0.962,-0.183,1514833
0.031,-0.3,-0.961,-0.183,1514838
0.031,-0.3,-0.961,-0.183,1514843
0.031,-0.299,-0.96,-0.183,1514848
0.031,-0.3,-0.96,-0.122,1514854
0.031,-0.3,-0.96,-0.122,1514859
0.031,-0.3,-0.962,-0.183,1514864
0.031,-0.3,-0.962,-0.244,1514869
0.031,-0.3,-0.96,-0.244,1514875
0.031,-0.3,-0.96,-0.305,1514880
0.031,-0.301,-0.961,-0.305,1514885
0.031,-0.301,-0.961,-0.244,1514890
0.032,-0.301,-0.959,-0.183,1514896
0.032,-0.301,-0.959,-0.183,1514901
0.032,-0.301,-0.96,-0.183,1514906
0.032,-0.301,-0.96,-0.183,1514911
0.034,-0.302,-0.96,-0.366,1514917
0.034,-0.302,-0.96,-0.305,1514922
0.033,-0.301,-0.961,-0.305,1514927
0.033,-0.301,-0.961,-0.366,1514932
0.033,-0.303,-0.963,-0.244,1514938
0.034,-0.3,-0.96,-0.305,1514943
0.034,-0.3,-0.96,-0.183,1514948
0.035,-0.301,-0.96,-0.244,1514953
0.035,-0.301,-0.96,-0.183,1514959
0.034,-0.302,-0.961,-0.244,1514964
0.034,-0.302,-0.961,-0.183,1514969
0.033,-0.301,-0.96,-0.244,1514974
0.033,-0.301,-0.96,-0.244,1514980
0.034,-0.3,-0.963,-0.122,1514985
0.034,-0.3,-0.963,-0.244,1514990
0.034,-0.3,-0.959,-0.122,1514995
0.034,-0.3,-0.959,0.0,1515001
0.033,-0.3,-0.96,0.0,1515006
0.033,-0.3,-0.96,-0.061,1515011
0.032,-0.3,-0.961,-0.122,1515016
0.032,-0.3,-0.961,-0.183,1515021
0.032,-0.3,-0.961,-0.244,1515027
0.032,-0.301,-0.961,-0.061,1515032
0.032,-0.301,-0.961,-0.122,1515037
0.031,-0.299,-0.961,-0.061,1515042
0.031,-0.299,-0.961,-0.061,1515048
0.031,-0.3,-0.959,-0.122,1515053
0.031,-0.3,-0.959,-0.183,1515058
0.033,-0.3,-0.961,-0.061,1515063
0.033,-0.3,-0.961,-0.122,1515069
0.032,-0.301,-0.961,-0.122,1515074
0.032,-0.301,-0.961,-0.183,1515079
0.032,-0.301,-0.961,-0.183,1515084
0.032,-0.301,-0.961,-0.061,1515090
0.031,-0.3,-0.962,-0.183,1515095
0.031,-0.3,-0.962,-0.183,1515100
0.031,-0.3,-0.961,-0.183,1515105
0.031,-0.3,-0.961,-0.183,1515111
0.031,-0.3,-0.961,-0.183,1515116
0.03,-0.299,-0.96,-0.061,1515121
0.03,-0.299,-0.96,-0.183,1515126
0.031,-0.301,-0.961,-0.305,1515132
0.031,-0.301,-0.961,-0.244,1515137
0.032,-0.302,-0.96,-0.244,1515142
0.032,-0.302,-0.96,-0.244,1515147
0.033,-0.3,-0.96,-0.305,1515153
0.033,-0.3,-0.96,-0.244,1515158
0.033,-0.298,-0.962,-0.244,1515163
0.033,-0.298,-0.962,-0.244,1515168
0.033,-0.301,-0.96,-0.183,1515174
0.033,-0.301,-0.96,-0.305,1515179
0.033,-0.302,-0.96,-0.305,1515184
0.033,-0.302,-0.96,-0.305,1515189
0.032,-0.301,-0.96,-0.061,1515195
0.032,-0.301,-0.96,-0.183,1515200
0.033,-0.3,-0.961,-0.244,1515205
0.034,-0.301,-0.962,-0.061,1515210
0.034,-0.301,-0.962,-0.244,1515216
0.034,-0.301,-0.961,-0.122,1515221
0.034,-0.301,-0.961,-0.061,1515226
0.033,-0.3,-0.961,-0.122,1515231
0.033,-0.3,-0.961,-0.122,1515237
0.033,-0.301,-0.961,-0.183,1515242
0.033,-0.301,-0.961,0.061,1515247
0.033,-0.301,-0.961,0.061,1515252
0.033,-0.301,-0.961,-0.183,1515258
0.034,-0.301,-0.962,-0.183,1515263
0.034,-0.301,-0.962,-0.122,1515268
0.032,-0.3,-0.961,0.0,1515273
0.032,-0.3,-0.961,-0.122,1515278
0.031,-0.301,-0.96,-0.122,1515284
0.031,-0.301,-0.96,-0.183,1515289
0.032,-0.302,-0.959,-0.122,1515294
0.032,-0.302,-0.959,-0.122,1515300
0.032,-0.3,-0.96,-0.183,1515305
0.031,-0.301,-0.961,-0.183,1515310
0.031,-0.301,-0.961,-0.183,1515315
0.031,-0.3,-0.961,-0.122,1515320
0.031,-0.3,-0.961,-0.122,1515326
0.031,-0.301,-0.96,0.0,1515331
0.031,-0.301,-0.96,-0.183,1515336
0.031,-0.301,-0.96,-0.061,1515341
0.031,-0.301,-0.96,0.0,1515347
0.031,-0.299,-0.959,-0.183,1515352
0.031,-0.299,-0.959,-0.305,1515357
0.032,-0.299,-0.959,-0.183,1515362
0.032,-0.299,-0.959,-0.183,1515368
0.032,-0.301,-0.961,-0.305,1515373
0.032,-0.301,-0.961,-0.305,1515378
0.031,-0.301,-0.96,-0.244,1515383
0.031,-0.301,-0.96,0.0,1515388
0.032,-0.3,-0.961,-0.061,1515394
0.032,-0.3,-0.959,-0.183,1515399
0.032,-0.3,-0.959,-0.305,1515404
0.032,-0.302,-0.959,-0.305,1515409
0.032,-0.302,-0.959,-0.305,1515415
0.033,-0.302,-0.961,-0.305,1515420
0.033,-0.302,-0.961,-0.305,1515425
0.033,-0.3,-0.961,-0.244,1515430
0.033,-0.3,-0.961,-0.122,1515436
0.033,-0.3,-0.959,-0.183,1515441
0.033,-0.3,-0.959,-0.061,1515446
0.033,-0.301,-0.96,-0.122,1515451
0.033,-0.301,-0.96,-0.305,1515457
0.034,-0.301,-0.961,-0.427,1515462
0.034,-0.301,-0.961,-0.122,1515467
0.034,-0.302,-0.96,-0.061,1515472
0.034,-0.302,-0.96,-0.183,1515478
0.033,-0.3,-0.962,-0.122,1515483
0.033,-0.3,-0.962,-0.122,1515488
0.033,-0.301,-0.961,0.0,1515493
0.032,-0.3,-0.96,-0.122,1515499
0.032,-0.3,-0.96,-0.122,1515504
0.031,-0.301,-0.959,-0.183,1515509
0.031,-0.301,-0.959,-0.244,1515514
0.032,-0.3,-0.96,-0.122,1515520
0.032,-0.3,-0.96,-0.061,1515525
0.033,-0.3,-0.962,0.0,1515530
0.033,-0.3,-0.962,-0.061,1515535
0.032,-0.299,-0.962,-0.244,1515541
0.032,-0.299,-0.962,-0.183,1515546
0.031,-0.3,-0.961,-0.183,1515551
0.031,-0.3,-0.961,0.0,1515556
0.032,-0.302,-0.96,-0.122,1515561
0.032,-0.302,-0.96,-0.244,1515567
0.032,-0.301,-0.959,-0.061,1515572
0.032,-0.301,-0.959,-0.183,1515577
0.031,-0.3,-0.961,-0.122,1515582
0.031,-0.3,-0.961,-0.061,1515588
0.031,-0.3,-0.961,-0.183,1515593
0.032,-0.299,-0.96,-0.183,1515598
0.032,-0.299,-0.96,-0.122,1515603
0.031,-0.3,-0.962,-0.244,1515609
0.031,-0.3,-0.962,-0.366,1515614
0.031,-0.301,-0.963,-0.305,1515619
0.031,-0.301,-0.963,-0.305,1515624
0.031,-0.3,-0.961,-0.183,1515630
0.031,-0.3,-0.961,-0.244,1515635
0.032,-0.301,-0.959,-0.427,1515640
0.032,-0.301,-0.959,-0.427,1515645
0.033,-0.301,-0.961,-0.305,1515651
0.033,-0.301,-0.961,-0.366,1515656
0.032,-0.301,-0.961,-0.366,1515661
0.032,-0.301,-0.961,-0.183,1515666
0.033,-0.3,-0.963,-0.122,1515672
0.033,-0.299,-0.961,-0.183,1515677
0.033,-0.299,-0.961,-0.183,1515682
0.033,-0.299,-0.961,-0.183,1515687
0.033,-0.299,-0.961,-0.183,1515693
0.035,-0.299,-0.961,-0.305,1515698
0.035,-0.299,-0.961,-0.305,1515703
0.033,-0.301,-0.959,-0.183,1515708
0.033,-0.301,-0.959,-0.122,1515714
0.032,-0.301,-0.962,-0.122,1515719
0.032,-0.301,-0.962,-0.122,1515724
0.033,-0.3,-0.963,-0.244,1515729
0.033,-0.3,-0.963,-0.122,1515735
0.032,-0.3,-0.962,0.0,1515740
0.032,-0.3,-0.962,-0.122,1515745
0.032,-0.301,-0.959,-0.122,1515750
0.032,-0.301,-0.959,-0.183,1515756
0.033,-0.301,-0.96,-0.122,1515761
0.033,-0.302,-0.961,0.0,1515766
0.033,-0.302,-0.961,-0.061,1515771
0.031,-0.301,-0.962,-0.061,1515777
0.031,-0.301,-0.962,-0.244,1515782
0.032,-0.302,-0.96,-0.122,1515787
0.032,-0.302,-0.96,-0.122,1515792
0.03,-0.3,-0.959,-0.244,1515798
0.03,-0.3,-0.959,-0.244,1515803
0.03,-0.3,-0.961,-0.366,1515808
0.03,-0.3,-0.961,-0.366,1515813
0.03,-0.299,-0.961,-0.305,1515819
0.03,-0.299,-0.961,-0.122,1515824
0.031,-0.3,-0.96,0.0,1515829
0.031,-0.3,-0.96,-0.244,1515834
0.031,-0.301,-0.961,-0.183,1515839
0.031,-0.301,-0.961,-0.183,1515845
0.031,-0.3,-0.959,-0.183,1515850
0.031,-0.3,-0.959,-0.305,1515855
0.03,-0.302,-0.96,-0.305,1515860
0.031,-0.301,-0.96,-0.244,1515866
0.031,-0.301,-0.96,-0.305,1515871
0.031,-0.301,-0.961,-0.244,1515876
0.031,-0.301,-0.961,-0.305,1515881
0.032,-0.302,-0.96,-0.244,1515887
0.032,-0.302,-0.96,-0.244,1515892
0.033,-0.301,-0.962,-0.366,1515897
0.033,-0.301,-0.962,-0.305,1515902
0.031,-0.301,-0.962,-0.183,1515908
0.031,-0.301,-0.962,-0.244,1515913
0.034,-0.301,-0.96,-0.305,1515918
0.034,-0.301,-0.96,-0.122,1515923
0.033,-0.3,-0.96,-0.122,1515929
0.033,-0.3,-0.96,-0.305,1515934
0.033,-0.3,-0.961,-0.183,1515939
0.033,-0.3,-0.961,-0.244,1515944
0.032,-0.3,-0.96,-0.183,1515950
0.032,-0.3,-0.962,-0.305,1515955
0.032,-0.3,-0.962,-0.122,1515960
0.033,-0.302,-0.96,-0.183,1515965
0.033,-0.302,-0.96,-0.183,1515971
0.031,-0.301,-0.959,-0.183,1515976
0.031,-0.301,-0.959,-0.122,1515981
0.033,-0.3,-0.961,-0.122,1515986
0.033,-0.3,-0.961,-0.122,1515992
0.032,-0.301,-0.959,-0.122,1515997
0.032,-0.301,-0.959,-0.183,1516002
0.031,-0.3,-0.96,-0.122,1516007
0.031,-0.3,-0.96,0.0,1516013
0.032,-0.301,-0.959,-0.305,1516018
0.032,-0.301,-0.959,-0.183,1516023
0.031,-0.302,-0.961,-0.183,1516028
0.031,-0.302,-0.961,-0.183,1516034
0.031,-0.3,-0.959,-0.061,1516039
0.031,-0.301,-0.96,-0.183,1516044
0.031,-0.301,-0.96,-0.122,1516049
0.031,-0.3,-0.961,-0.122,1516055
0.031,-0.3,-0.961,-0.244,1516060
0.031,-0.299,-0.96,-0.122,1516065
0.031,-0.299,-0.96,-0.122,1516070
0.031,-0.301,-0.96,-0.061,1516076
0.031,-0.301,-0.96,-0.122,1516081
0.031,-0.3,-0.961,-0.366,1516086
0.031,-0.3,-0.961,-0.244,1516091
0.031,-0.301,-0.96,-0.183,1516097
0.031,-0.301,-0.96,-0.183,1516102
0.03,-0.3,-0.96,-0.366,1516107
0.03,-0.3,-0.96,-0.366,1516112
0.032,-0.301,-0.961,-0.183,1516118
0.032,-0.301,-0.961,-0.244,1516123
0.033,-0.3,-0.962,-0.305,1516128
0.033,-0.301,-0.961,-0.244,1516133
0.033,-0.301,-0.961,-0.244,1516139
0.032,-0.301,-0.96,-0.183,1516144
0.032,-0.301,-0.96,-0.305,1516149
0.032,-0.299,-0.959,-0.244,1516154
0.032,-0.299,-0.959,-0.122,1516160
0.033,-0.301,-0.96,-0.183,1516165
0.033,-0.301,-0.96,-0.183,1516170
0.033,-0.301,-0.961,-0.183,1516175
0.033,-0.301,-0.961,-0.244,1516181
0.032,-0.3,-0.96,-0.183,1516186
0.032,-0.3,-0.96,-0.244,1516191
0.032,-0.3,-0.96,-0.366,1516196
0.032,-0.3,-0.96,-0.061,1516202
0.033,-0.301,-0.96,-0.244,1516207
0.033,-0.301,-0.96,-0.244,1516212
0.033,-0.299,-0.96,-0.305,1516217
0.033,-0.301,-0.959,-0.244,1516223
0.033,-0.301,-0.959,-0.183,1516228
0.033,-0.301,-0.962,-0.183,1516233
0.033,-0.301,-0.962,-0.122,1516238
0.032,-0.302,-0.961,-0.122,1516244
0.032,-0.302,-0.961,-0.244,1516249
0.031,-0.301,-0.96,-0.183,1516254
0.031,-0.301,-0.96,-0.183,1516259
0.031,-0.3,-0.96,-0.122,1516265
0.031,-0.3,-0.96,-0.122,1516270
0.032,-0.301,-0.96,-0.122,1516275
0.032,-0.301,-0.96,-0.244,1516280
0.031,-0.3,-0.96,-0.061,1516286
0.031,-0.3,-0.96,-0.061,1516291
0.031,-0.301,-0.961,-0.122,1516296
0.031,-0.301,-0.961,-0.061,1516301
0.031,-0.302,-0.961,-0.122,1516307
0.029,-0.301,-0.959,-0.183,1516312
0.029,-0.301,-0.959,-0.183,1516317
0.031,-0.301,-0.96,-0.244,1516322
0.031,-0.301,-0.96,-0.305,1516328
0.032,-0.301,-0.961,-0.183,1516333
0.032,-0.301,-0.961,-0.122,1516338
0.03,-0.299,-0.962,-0.244,1516343
0.03,-0.299,-0.962,-0.244,1516349
0.029,-0.3,-0.959,-0.183,1516354
0.029,-0.3,-0.959,-0.183,1516359
0.031,-0.301,-0.96,-0.122,1516364
0.031,-0.301,-0.96,-0.183,1516370
0.032,-0.299,-0.962,-0.122,1516375
0.032,-0.299,-0.962,-0.305,1516380
0.031,-0.3,-0.961,-0.305,1516385
0.031,-0.3,-0.961,-0.244,1516391
0.032,-0.302,-0.96,-0.183,1516396
0.034,-0.301,-0.962,-0.122,1516401
0.034,-0.301,-0.962,-0.305,1516406
0.033,-0.301,-0.961,-0.244,1516412
0.033,-0.301,-0.961,-0.305,1516417
0.033,-0.302,-0.961,-0.183,1516422
0.033,-0.302,-0.961,-0.183,1516427
0.033,-0.301,-0.962,-0.122,1516433
0.033,-0.301,-0.962,-0.122,1516438
0.032,-0.301,-0.96,-0.244,1516443
0.032,-0.301,-0.96,-0.122,1516448
0.033,-0.301,-0.96,-0.061,1516454
0.033,-0.301,-0.96,-0.122,1516459
0.033,-0.301,-0.961,-0.244,1516464
0.033,-0.301,-0.961,-0.183,1516469
0.033,-0.301,-0.96,0.0,1516475
0.033,-0.301,-0.96,-0.061,1516480
0.031,-0.301,-0.961,0.0,1516485
0.031,-0.299,-0.962,-0.183,1516490
0.031,-0.299,-0.962,-0.122,1516495
0.031,-0.3,-0.961,-0.122,1516501
0.031,-0.3,-0.961,-0.183,1516506
0.032,-0.301,-0.96,-0.061,1516511
0.032,-0.301,-0.96,-0.183,1516516
0.031,-0.3,-0.962,-0.122,1516522
0.031,-0.3,-0.962,-0.183,1516527
0.03,-0.301,-0.961,-0.183,1516532
0.03,-0.301,-0.961,-0.122,1516537
0.03,-0.3,-0.961,-0.061,1516543
0.03,-0.3,-0.961,-0.122,1516548
0.031,-0.3,-0.961,-0.183,1516553
0.031,-0.3,-0.961,-0.061,1516558
0.031,-0.3,-0.961,-0.183,1516564
0.031,-0.3,-0.961,-0.305,1516569
0.031,-0.302,-0.961,-0.488,1516574
0.031,-0.302,-0.96,-0.366,1516579
0.031,-0.302,-0.96,-0.244,1516585
0.031,-0.301,-0.962,-0.244,1516590
0.031,-0.301,-0.962,-0.183,1516595
0.032,-0.3,-0.961,-0.305,1516600
0.032,-0.3,-0.961,-0.183,1516606
0.031,-0.302,-0.959,-0.244,1516611
0.031,-0.302,-0.959,-0.183,1516616
0.032,-0.301,-0.96,-0.183,1516621
0.032,-0.301,-0.96,-0.366,1516627
0.032,-0.299,-0.961,-0.244,1516632
0.032,-0.299,-0.961,-0.244,1516637
0.032,-0.3,-0.962,-0.244,1516642
0.032,-0.3,-0.962,-0.122,1516648
0.033,-0.3,-0.959,-0.244,1516653
0.033,-0.3,-0.959,0.0,1516658
0.032,-0.299,-0.96,-0.061,1516663
0.032,-0.299,-0.96,-0.061,1516669
0.032,-0.301,-0.961,-0.244,1516674
0.033,-0.302,-0.963,-0.183,1516679
0.033,-0.302,-0.963,-0.244,1516684
0.034,-0.301,-0.962,-0.122,1516690
0.034,-0.301,-0.962,-0.122,1516695
0.033,-0.3,-0.961,-0.183,1516700
0.033,-0.3,-0.961,-0.061,1516705
0.032,-0.301,-0.959,-0.061,1516711
0.032,-0.301,-0.959,-0.244,1516716
0.032,-0.3,-0.961,-0.244,1516721
0.032,-0.3,-0.961,-0.244,1516726
0.031,-0.301,-0.96,-0.244,1516732
0.031,-0.301,-0.96,-0.183,1516737
0.032,-0.302,-0.959,-0.061,1516742
0.032,-0.302,-0.959,0.122,1516747
0.032,-0.301,-0.962,0.0,1516752
0.032,-0.301,-0.962,-0.305,1516758
0.032,-0.301,-0.961,0.122,1516763
0.031,-0.3,-0.96,0.0,1516768
0.031,-0.3,-0.96,-0.061,1516773
0.031,-0.301,-0.961,-0.122,1516778
0.031,-0.301,-0.961,-0.122,1516784
0.031,-0.3,-0.961,-0.183,1516789
0.031,-0.3,-0.961,-0.122,1516794
0.031,-0.302,-0.959,-0.061,1516799
0.031,-0.302,-0.959,-0.122,1516805
0.031,-0.3,-0.96,-0.183,1516810
0.031,-0.3,-0.96,-0.183,1516815
0.031,-0.301,-0.961,-0.244,1516821
0.031,-0.301,-0.961,-0.244,1516826
0.03,-0.301,-0.96,-0.244,1516831
0.03,-0.301,-0.96,-0.122,1516836
0.031,-0.301,-0.962,-0.183,1516841
0.031,-0.301,-0.962,-0.305,1516847
0.031,-0.3,-0.959,-0.244,1516852
0.032,-0.301,-0.959,-0.366,1516857
0.032,-0.301,-0.959,-0.183,1516863
0.032,-0.301,-0.96,-0.183,1516868
0.032,-0.301,-0.96,-0.305,1516873
0.031,-0.301,-0.959,-0.244,1516878
0.031,-0.301,-0.959,-0.244,1516884
0.031,-0.3,-0.961,-0.244,1516889
0.031,-0.3,-0.961,-0.122,1516894
0.032,-0.301,-0.961,-0.122,1516899
0.032,-0.301,-0.961,-0.183,1516905
0.032,-0.301,-0.961,-0.183,1516910
0.032,-0.301,-0.961,-0.244,1516915
0.032,-0.302,-0.961,-0.244,1516920
0.032,-0.302,-0.961,-0.244,1516926
0.032,-0.3,-0.959,-0.244,1516931
0.032,-0.3,-0.959,-0.305,1516936
0.032,-0.301,-0.962,-0.244,1516941
0.033,-0.301,-0.961,-0.183,1516947
0.033,-0.301,-0.961,-0.244,1516952
0.032,-0.3,-0.96,-0.122,1516957
0.032,-0.3,-0.96,-0.122,1516962
0.032,-0.3,-0.96,0.0,1516968
0.032,-0.3,-0.96,-0.122,1516973
0.031,-0.302,-0.962,-0.183,1516978
0.031,-0.302,-0.962,-0.122,1516983
0.031,-0.3,-0.96,-0.122,1516988
0.031,-0.3,-0.96,-0.122,1516994
0.031,-0.301,-0.96,-0.061,1516999
0.031,-0.301,-0.96,-0.183,1517004
0.031,-0.301,-0.96,-0.061,1517009
0.031,-0.301,-0.96,0.0,1517015
0.03,-0.302,-0.961,-0.122,1517020
0.03,-0.302,-0.961,-0.122,1517025
0.031,-0.302,-0.961,-0.122,1517030
0.031,-0.302,-0.961,-0.183,1517036
0.032,-0.301,-0.96,0.061,1517041
0.029,-0.3,-0.959,-0.122,1517046
0.029,-0.3,-0.959,-0.122,1517051
0.03,-0.299,-0.961,-0.244,1517057
0.03,-0.299,-0.961,-0.244,1517062
0.03,-0.302,-0.96,-0.244,1517067
0.03,-0.302,-0.96,-0.244,1517072
0.031,-0.3,-0.96,-0.244,1517078
0.031,-0.3,-0.96,-0.244,1517083
0.031,-0.301,-0.96,-0.183,1517088
0.031,-0.301,-0.96,-0.183,1517093
0.032,-0.301,-0.962,-0.122,1517099
0.032,-0.301,-0.962,-0.122,1517104
0.031,-0.3,-0.961,-0.305,1517109
0.031,-0.3,-0.961,-0.244,1517114
0.032,-0.3,-0.96,-0.183,1517120
0.032,-0.3,-0.96,-0.183,1517125
0.031,-0.3,-0.961,-0.366,1517130
0.032,-0.3,-0.961,-0.244,1517135
0.032,-0.3,-0.961,-0.244,1517141
0.033,-0.3,-0.961,-0.183,1517146
0.033,-0.3,-0.961,-0.305,1517151
0.032,-0.298,-0.959,-0.183,1517156
0.032,-0.298,-0.959,-0.061,1517162
0.032,-0.299,-0.961,-0.183,1517167
0.032,-0.299,-0.961,-0.122,1517172
0.033,-0.3,-0.961,-0.183,1517177
0.033,-0.3,-0.961,-0.183,1517183
0.032,-0.299,-0.961,-0.244,1517188
0.032,-0.299,-0.961,-0.183,1517193
0.033,-0.299,-0.962,-0.122,1517198
0.033,-0.299,-0.962,-0.183,1517204
0.032,-0.301,-0.962,-0.122,1517209
0.032,-0.301,-0.962,-0.122,1517214
0.032,-0.3,-0.961,0.0,1517219
0.032,-0.301,-0.96,-0.183,1517225
0.032,-0.301,-0.96,-0.244,1517230
0.031,-0.301,-0.96,-0.183,1517235
0.031,-0.301,-0.96,-0.183,1517240
0.031,-0.301,-0.959,-0.122,1517246
0.031,-0.301,-0.959,-0.183,1517251
0.031,-0.302,-0.959,-0.122,1517256
0.031,-0.302,-0.959,-0.122,1517261
0.031,-0.302,-0.959,-0.122,1517267
0.031,-0.302,-0.959,-0.061,1517272
0.031,-0.301,-0.96,-0.183,1517277
0.031,-0.301,-0.96,-0.061,1517282
0.031,-0.302,-0.96,-0.061,1517288
0.031,-0.302,-0.96,-0.183,1517293
0.031,-0.302,-0.961,-0.061,1517298
0.031,-0.302,-0.961,-0.244,1517303
0.031,-0.301,-0.96,-0.305,1517309
0.031,-0.3,-0.96,-0.183,1517314
0.031,-0.3,-0.96,-0.122,1517319
0.029,-0.3,-0.962,-0.122,1517324
0.029,-0.3,-0.962,-0.244,1517330
0.03,-0.302,-0.959,-0.244,1517335
0.03,-0.302,-0.959,-0.244,1517340
0.031,-0.302,-0.959,-0.305,1517345
0.031,-0.302,-0.959,-0.305,1517351
0.033,-0.301,-0.962,-0.183,1517356
0.033,-0.301,-0.962,-0.183,1517361
0.032,-0.301,-0.961,-0.183,1517366
0.032,-0.301,-0.961,-0.122,1517372
0.032,-0.3,-0.961,-0.244,1517377
0.032,-0.3,-0.961,-0.244,1517382
0.032,-0.299,-0.959,-0.122,1517387
0.032,-0.299,-0.959,0.0,1517392
0.032,-0.301,-0.961,-0.244,1517398
0.032,-0.301,-0.962,-0.122,1517403
0.032,-0.301,-0.962,-0.061,1517408
0.033,-0.299,-0.963,-0.244,1517413
0.033,-0.299,-0.963,-0.122,1517419
0.032,-0.299,-0.961,-0.122,1517424
0.032,-0.299,-0.961,-0.122,1517429
0.032,-0.299,-0.961,-0.061,1517434
0.032,-0.299,-0.961,-0.061,1517440
0.031,-0.298,-0.961,-0.122,1517445
0.031,-0.298,-0.961,-0.183,1517450
0.032,-0.298,-0.961,-0.183,1517455
0.032,-0.298,-0.961,-0.061,1517461
0.031,-0.297,-0.962,-0.061,1517466
0.031,-0.297,-0.962,0.0,1517471
0.032,-0.299,-0.96,0.0,1517476
0.032,-0.299,-0.96,-0.244,1517482
0.032,-0.301,-0.96,-0.305,1517487
0.032,-0.3,-0.96,-0.244,1517492
0.032,-0.3,-0.96,-0.244,1517497
0.031,-0.3,-0.959,-0.183,1517503
0.031,-0.3,-0.959,-0.122,1517508
0.031,-0.299,-0.961,-0.183,1517513
0.031,-0.299,-0.961,-0.183,1517518
0.031,-0.3,-0.962,-0.183,1517524
0.031,-0.3,-0.962,-0.061,1517529
0.03,-0.301,-0.959,0.0,1517534
0.03,-0.301,-0.959,-0.061,1517539
0.032,-0.301,-0.96,-0.122,1517544
0.032,-0.301,-0.96,-0.183,1517550
0.032,-0.301,-0.96,-0.305,1517555
0.032,-0.301,-0.96,-0.183,1517560
0.031,-0.301,-0.957,-0.183,1517565
0.031,-0.301,-0.957,-0.183,1517571
0.033,-0.301,-0.961,-0.061,1517576
0.032,-0.303,-0.961,-0.061,1517581
0.032,-0.303,-0.961,-0.183,1517586
0.031,-0.303,-0.961,-0.183,1517592
0.031,-0.303,-0.961,-0.244,1517597
0.032,-0.302,-0.96,-0.244,1517602
0.032,-0.302,-0.96,-0.244,1517607
0.031,-0.302,-0.959,-0.244,1517613
0.031,-0.302,-0.959,-0.122,1517618
0.031,-0.303,-0.958,-0.244,1517623
0.031,-0.303,-0.958,-0.183,1517628
0.033,-0.302,-0.959,-0.122,1517634
0.033,-0.302,-0.959,-0.244,1517639
0.033,-0.301,-0.959,-0.183,1517644
0.033,-0.301,-0.959,0.0,1517649
0.032,-0.301,-0.96,-0.061,1517655
0.032,-0.301,-0.96,-0.366,1517660
0.032,-0.302,-0.958,-0.305,1517665
0.032,-0.302,-0.958,-0.061,1517670
0.032,-0.302,-0.961,-0.244,1517676
0.031,-0.3,-0.959,-0.061,1517681
0.031,-0.3,-0.959,-0.183,1517686
0.032,-0.3,-0.959,-0.183,1517691
0.032,-0.3,-0.959,-0.122,1517697
0.032,-0.303,-0.962,-0.244,1517702
0.032,-0.303,-0.962,-0.305,1517707
0.032,-0.302,-0.963,-0.244,1517712
0.032,-0.302,-0.963,-0.061,1517718
0.032,-0.301,-0.962,0.122,1517723
0.032,-0.301,-0.962,0.061,1517728
0.031,-0.301,-0.961,0.122,1517733
0.031,-0.301,-0.961,0.0,1517738
0.031,-0.3,-0.961,-0.061,1517744
0.031,-0.3,-0.961,-0.244,1517749
0.031,-0.299,-0.961,-0.183,1517754
0.031,-0.299,-0.961,-0.061,1517759
0.032,-0.294,-0.917,-7.08,1517765
0.036,-0.305,-1.002,-8.972,1517770
0.036,-0.305,-1.002,-1.282,1517775
0.131,-0.291,-1.025,22.888,1517780
0.131,-0.291,-1.025,33.508,1517786
0.159,-0.273,-0.914,57.19,1517791
0.159,-0.273,-0.914,98.45,1517796
0.291,-0.23,-0.936,154.297,1517801
0.291,-0.23,-0.936,206.177,1517807
0.31,-0.208,-1.001,247.253,1517812
0.31,-0.208,-1.001,305.908,1517817
0.219,-0.22,-0.997,365.173,1517823
0.219,-0.22,-0.997,401.245,1517828
0.097,-0.256,-0.841,416.504,1517833
0.097,-0.256,-0.841,419.8,1517839
0.012,-0.387,-0.924,417.114,1517844
0.016,-0.28,-0.954,429.932,1517849
0.016,-0.28,-0.954,408.264,1517855
-0.433,-0.369,-0.998,243.53,1517860
-0.433,-0.369,-0.998,174.377,1517865
0.034,-0.184,-0.377,176.88,1517871
0.034,-0.184,-0.377,179.016,1517876
-0.039,-0.398,-1.191,141.357,1517881
-0.039,-0.398,-1.191,98.389,1517887
-0.247,-0.151,-0.993,76.782,1517892
-0.247,-0.151,-0.993,-24.292,1517897
-0.433,-0.234,-0.926,-104.614,1517903
-0.433,-0.234,-0.926,-91.003,1517908
-0.093,-0.269,-0.972,-51.208,1517913
0.007,-0.311,-1.003,-1.16,1517919
0.007,-0.311,-1.003,-17.517,1517924
-0.081,-0.299,-0.949,-33.875,1517929
-0.081,-0.299,-0.949,-30.762,1517935
-0.101,-0.301,-0.96,-28.198,1517940
-0.101,-0.301,-0.96,-30.518,1517945
-0.133,-0.313,-0.945,-28.992,1517951
-0.133,-0.313,-0.945,-35.217,1517956
-0.125,-0.305,-0.945,-59.265,1517962
-0.125,-0.305,-0.945,-82.947,1517967
-0.156,-0.32,-0.941,-85.449,1517972
-0.156,-0.32,-0.941,-83.069,1517978
-0.188,-0.328,-0.935,-82.703,1517983
-0.191,-0.335,-0.927,-88.44,1517988
-0.191,-0.335,-0.927,-99.854,1517994
-0.284,-0.333,-0.925,-17.944,1517999
-0.284,-0.333,-0.925,28.564,1518005
-0.24,-0.371,-0.909,-1.404,1518010
-0.24,-0.371,-0.909,1.77,1518015
-0.229,-0.341,-0.917,1.648,1518020
-0.229,-0.341,-0.917,1.343,1518026
-0.223,-0.335,-0.939,5.737,1518031
-0.223,-0.335,-0.939,16.174,1518036
-0.188,-0.323,-0.979,27.161,1518042
-0.188,-0.323,-0.979,34.851,1518047
-0.084,-0.306,-0.941,50.476,1518052
0.064,-0.274,-0.922,141.907,1518057
0.064,-0.274,-0.922,172.18,1518063
0.002,-0.282,-0.835,206.909,1518068
0.002,-0.282,-0.835,239.441,1518073
-0.023,-0.307,-0.965,239.685,1518079
-0.023,-0.307,-0.965,214.233,1518084
-0.067,-0.299,-0.8,217.346,1518089
-0.067,-0.299,-0.8,191.406,1518095
-0.069,-0.236,-0.624,143.372,1518100
-0.069,-0.236,-0.624,174.683,1518106
-0.523,-0.529,-1.192,301.575,1518111
-0.523,-0.529,-1.192,286.011,1518116
-0.272,-0.287,-0.878,264.709,1518122
-0.292,-0.166,-0.897,237.732,1518127
-0.292,-0.166,-0.897,242.92,1518132
-0.359,-0.15,-0.961,229.736,1518138
-0.359,-0.15,-0.961,211.67,1518143
-0.455,-0.145,-0.937,190.43,1518149
-0.455,-0.145,-0.937,163.513,1518154
-0.466,-0.156,-0.84,140.442,1518159
-0.466,-0.156,-0.84,121.948,1518165
-0.515,-0.13,-0.829,93.445,1518170
-0.515,-0.13,-0.829,57.007,1518175
-0.533,-0.116,-0.81,31.494,1518181
-0.533,-0.116,-0.81,-3.296,1518186
-0.494,-0.109,-0.895,-10.498,1518191
-0.531,-0.072,-0.811,7.874,1518197
-0.531,-0.072,-0.811,15.259,1518202
-0.607,-0.131,-1.06,39.795,1518207
-0.607,-0.131,-1.06,26.917,1518213
-0.545,0.128,-0.792,-7.263,1518218
-0.545,0.128,-0.792,97.534,1518223
-0.444,0.273,-0.999,95.764,1518228
-0.444,0.273,-0.999,69.214,1518234
-0.555,-0.056,-0.823,64.636,1518239
-0.555,-0.056,-0.823,60.913,1518244
-0.588,0.019,-0.825,56.885,1518250
-0.588,0.019,-0.825,52.307,1518255
-0.548,0.067,-0.822,54.565,1518260
-0.548,0.067,-0.822,59.998,1518265
-0.498,0.055,-0.825,67.81,1518271
-0.566,0.091,-0.806,118.835,1518276
-0.566,0.091,-0.806,126.099,1518281
-0.695,0.079,-0.815,112.061,1518287
-0.695,0.079,-0.815,93.018,1518292
-0.734,0.097,-0.783,60.669,1518297
-0.734,0.097,-0.783,48.889,1518302
-0.625,0.124,-0.8,41.321,1518308
-0.625,0.124,-0.8,30.64,1518313
-0.642,0.12,-0.807,19.409,1518318
-0.642,0.12,-0.807,4.272,1518323
-0.609,0.113,-0.805,-1.77,1518329
-0.609,0.113,-0.805,-0.366,1518334
-0.572,0.103,-0.806,0.0,1518339
-0.572,0.103,-0.806,0.366,1518344
-0.588,0.105,-0.793,1.16,1518349
-0.588,0.105,-0.793,2.625,1518355
-0.585,0.112,-0.793,3.418,1518360
-0.565,0.115,-0.845,0.977,1518365
-0.565,0.115,-0.845,-0.122,1518370
-0.582,0.115,-0.809,0.061,1518376
-0.582,0.115,-0.809,-0.244,1518381
-0.581,0.115,-0.808,-0.244,1518386
-0.581,0.115,-0.808,-0.122,1518391
-0.579,0.114,-0.807,-0.122,1518397
-0.579,0.114,-0.807,-0.122,1518402
-0.582,0.115,-0.807,-0.122,1518407
-0.582,0.115,-0.807,-0.122,1518412
-0.582,0.115,-0.807,-0.061,1518418
-0.582,0.115,-0.807,-0.122,1518423
-0.58,0.115,-0.807,-0.122,1518428
-0.58,0.115,-0.807,-0.061,1518433
-0.581,0.115,-0.807,0.0,1518439
-0.581,0.115,-0.807,-0.061,1518444
-0.581,0.115,-0.809,-0.122,1518449
-0.579,0.116,-0.81,-0.122,1518454
-0.579,0.116,-0.81,-0.061,1518460
-0.581,0.118,-0.805,-0.122,1518465
-0.581,0.118,-0.805,-0.183,1518470
-0.583,0.118,-0.806,-0.122,1518475
-0.583,0.118,-0.806,-0.122,1518481
-0.583,0.117,-0.807,0.0,1518486
-0.583,0.117,-0.807,0.0,1518491
-0.582,0.116,-0.806,-0.183,1518496
-0.582,0.116,-0.806,-0.122,1518501
-0.581,0.117,-0.806,-0.183,1518507
-0.581,0.117,-0.806,-0.244,1518512
-0.582,0.12,-0.807,-0.122,1518517
-0.582,0.12,-0.807,0.0,1518522
-0.584,0.119,-0.807,0.0,1518527
-0.584,0.119,-0.807,0.0,1518533
-0.583,0.118,-0.806,0.0,1518538
-0.583,0.118,-0.806,-0.122,1518543
-0.583,0.119,-0.805,-0.061,1518548
-0.585,0.116,-0.806,-0.183,1518554
-0.585,0.116,-0.806,-0.183,1518559
-0.582,0.116,-0.806,-0.122,1518564
-0.582,0.116,-0.806,-0.183,1518569
-0.584,0.117,-0.807,-0.305,1518575
-0.584,0.117,-0.807,-0.183,1518580
-0.583,0.116,-0.807,-0.122,1518585
-0.583,0.116,-0.807,-0.305,1518590
-0.583,0.116,-0.804,-0.244,1518596
-0.583,0.116,-0.804,-0.183,1518601
-0.583,0.116,-0.803,-0.183,1518606
-0.583,0.116,-0.803,-0.244,1518611
-0.583,0.117,-0.804,-0.183,1518617
-0.583,0.117,-0.804,0.0,1518622
-0.582,0.114,-0.805,-0.122,1518627
-0.582,0.114,-0.805,-0.244,1518632
-0.583,0.116,-0.807,-0.366,1518638
-0.582,0.115,-0.809,-0.305,1518643
-0.582,0.115,-0.809,-0.305,1518648
-0.581,0.116,-0.807,-0.183,1518653
-0.581,0.116,-0.807,-0.244,1518659
-0.581,0.115,-0.808,-0.122,1518664
-0.581,0.115,-0.808,-0.183,1518669
-0.581,0.114,-0.806,-0.305,1518674
-0.581,0.114,-0.806,-0.183,1518680
-0.583,0.112,-0.807,-0.244,1518685
-0.583,0.112,-0.807,-0.183,1518690
-0.583,0.113,-0.809,-0.244,1518695
-0.583,0.113,-0.809,-0.366,1518701
-0.581,0.115,-0.807,-0.122,1518706
-0.581,0.115,-0.807,-0.122,1518711
-0.581,0.117,-0.808,-0.244,1518716
-0.581,0.117,-0.808,-0.366,1518722
-0.582,0.116,-0.808,-0.305,1518727
-0.581,0.116,-0.808,-0.183,1518732
-0.581,0.116,-0.808,-0.244,1518737
-0.581,0.12,-0.807,-0.183,1518743
-0.581,0.12,-0.807,-0.366,1518748
-0.582,0.119,-0.805,-0.183,1518753
-0.582,0.119,-0.805,-0.061,1518758
-0.58,0.12,-0.806,-0.244,1518764
-0.58,0.12,-0.806,-0.305,1518769
-0.582,0.12,-0.808,-0.061,1518774
-0.582,0.12,-0.808,-0.183,1518779
-0.582,0.122,-0.808,-0.244,1518785
-0.582,0.122,-0.808,-0.183,1518790
-0.582,0.121,-0.805,-0.305,1518795
-0.582,0.121,-0.805,-0.305,1518800
-0.582,0.121,-0.807,-0.244,1518806
-0.582,0.121,-0.807,-0.244,1518811
-0.581,0.121,-0.808,-0.244,1518816
-0.581,0.122,-0.805,-0.305,1518821
-0.581,0.122,-0.805,-0.183,1518827
-0.583,0.119,-0.805,-0.305,1518832
-0.583,0.119,-0.805,-0.427,1518837
-0.582,0.118,-0.804,-0.366,1518842
-0.582,0.118,-0.804,-0.427,1518848
-0.582,0.116,-0.804,-0.427,1518853
-0.582,0.116,-0.804,-0.488,1518858
-0.583,0.115,-0.801,-0.427,1518863
-0.583,0.115,-0.801,-0.366,1518869
-0.583,0.114,-0.803,-0.427,1518874
-0.583,0.114,-0.803,-0.427,1518879
-0.584,0.111,-0.803,-0.244,1518885
-0.584,0.111,-0.803,-0.183,1518890
-0.584,0.111,-0.802,-0.244,1518895
-0.584,0.111,-0.802,-0.305,1518900
-0.57,0.1,-0.785,0.61,1518906
-0.542,0.089,-0.735,1.16,1518911
-0.542,0.089,-0.735,0.244,1518916
-0.667,0.123,-0.902,-0.061,1518921
-0.667,0.123,-0.902,-0.244,1518926
-0.626,0.101,-0.859,-0.732,1518932
-0.626,0.101,-0.859,-0.427,1518937
-0.527,0.081,-0.712,0.122,1518942
-0.527,0.081,-0.712,0.183,1518947
-0.582,0.113,-0.809,0.061,1518953
-0.582,0.113,-0.809,-0.061,1518958
-0.599,0.117,-0.831,0.061,1518963
-0.599,0.117,-0.831,0.244,1518968
-0.586,0.112,-0.819,0.366,1518973
-0.586,0.112,-0.819,0.061,1518979
-0.575,0.121,-0.808,0.366,1518984
-0.575,0.121,-0.808,0.427,1518989
-0.565,0.124,-0.778,0.244,1518994
-0.565,0.124,-0.778,0.122,1519000
-0.588,0.132,-0.823,-0.61,1519005
-0.592,0.132,-0.795,-2.38,1519010
-0.592,0.132,-0.795,-1.099,1519015
-0.584,0.132,-0.806,-0.732,1519021
-0.584,0.132,-0.806,-2.808,1519026
-0.646,0.087,-0.752,-5.859,1519031
-0.646,0.087,-0.752,-8.118,1519036
-0.639,0.142,-0.817,-24.719,1519042
-0.639,0.142,-0.817,-31.982,1519047
-0.551,0.124,-0.874,-24.353,1519052
-0.551,0.124,-0.874,-33.997,1519058
-0.641,0.073,-0.798,-31.494,1519063
-0.641,0.073,-0.798,-33.997,1519068
-0.705,-0.044,-0.847,-38.086,1519073
-0.705,-0.044,-0.847,-29.846,1519079
-0.459,0.095,-0.828,11.108,1519084
-0.55,0.063,-0.875,10.376,1519089
-0.55,0.063,-0.875,17.151,1519095
-0.54,0.037,-0.802,-2.075,1519100
-0.54,0.037,-0.802,-30.151,1519105
-0.487,-0.163,-0.884,-52.612,1519111
-0.487,-0.163,-0.884,-64.941,1519116
-0.677,-0.045,-0.796,-0.732,1519121
-0.677,-0.045,-0.796,45.593,1519127
-0.575,-0.006,-0.729,55.847,1519132
-0.575,-0.006,-0.729,42.908,1519137
-0.462,0.141,-0.709,39.917,1519143
-0.462,0.141,-0.709,90.637,1519148
-0.48,0.211,-0.892,75.684,1519153
-0.48,0.211,-0.892,18.921,1519158
-0.63,0.234,-0.904,-4.395,1519164
-0.579,-0.046,-0.786,-0.122,1519169
-0.579,-0.046,-0.786,1.038,1519174
-0.554,-0.019,-0.82,1.038,1519179
-0.554,-0.019,-0.82,1.648,1519185
-0.575,0.006,-0.823,0.061,1519190
-0.575,0.006,-0.823,0.0,1519195
-0.571,-0.0,-0.826,0.61,1519200
-0.571,-0.0,-0.826,0.61,1519205
-0.57,0.001,-0.82,0.427,1519211
-0.57,0.001,-0.82,0.427,1519216
-0.57,0.006,-0.821,0.061,1519221
-0.57,0.006,-0.821,0.0,1519226
-0.57,0.01,-0.832,0.305,1519231
-0.57,0.01,-0.832,0.305,1519237
-0.568,0.014,-0.823,0.122,1519242
-0.568,0.014,-0.823,-0.061,1519247
-0.568,0.02,-0.832,0.244,1519252
-0.568,0.02,-0.832,0.305,1519258
-0.57,0.022,-0.821,-0.244,1519263
-0.57,0.025,-0.827,-0.061,1519268
-0.57,0.025,-0.827,0.0,1519273
-0.57,0.024,-0.827,-1.526,1519278
-0.57,0.024,-0.827,-1.038,1519284
-0.555,0.023,-0.85,-0.549,1519289
-0.555,0.023,-0.85,-3.784,1519294
-0.553,0.018,-0.847,-1.465,1519299
-0.553,0.018,-0.847,0.0,1519305
-0.577,0.021,-0.829,-2.808,1519310
-0.577,0.021,-0.829,-3.784,1519315
-0.56,0.015,-0.854,-4.944,1519320
-0.56,0.015,-0.854,-6.348,1519326
-0.563,0.01,-0.85,-9.338,1519331
-0.563,0.01,-0.85,-13.672,1519336
-0.569,0.016,-0.838,-14.465,1519341
-0.569,0.016,-0.838,-11.047,1519347
-0.546,0.0,-0.866,-5.92,1519352
-0.433,-0.056,-0.917,-16.418,1519357
-0.433,-0.056,-0.917,-27.344,1519363
-0.45,-0.095,-0.864,-43.884,1519368
-0.45,-0.095,-0.864,-38.025,1519373
-0.581,-0.011,-0.795,18.372,1519379
-0.581,-0.011,-0.795,34.18,1519384
-0.555,-0.056,-0.887,12.451,1519389
-0.555,-0.056,-0.887,17.761,1519395
-0.507,-0.039,-0.916,27.1,1519400
-0.507,-0.039,-0.916,25.879,1519405
-0.605,-0.063,-0.811,14.16,1519411
-0.605,-0.063,-0.811,19.47,1519416
-0.645,0.039,-0.806,18.005,1519421
-0.574,0.014,-0.875,-31.738,1519427
-0.574,0.014,-0.875,-43.213,1519432
-0.548,-0.081,-0.842,-36.987,1519437
-0.548,-0.081,-0.842,-35.4,1519443
-0.53,-0.122,-0.801,-34.119,1519448
-0.53,-0.122,-0.801,-29.297,1519453
-0.53,-0.107,-0.852,-26.123,1519459
-0.53,-0.107,-0.852,-28.137,1519464
-0.497,-0.161,-0.745,-18.86,1519469
-0.497,-0.161,-0.745,3.54,1519475
-0.503,-0.154,-0.672,12.451,1519480
-0.503,-0.154,-0.672,13.123,1519485
-0.632,-0.102,-0.883,2.869,1519491
-0.572,-0.107,-0.85,-14.343,1519496
-0.572,-0.107,-0.85,-10.681,1519501
-0.495,-0.129,-0.818,-1.282,1519507
-0.495,-0.129,-0.818,0.122,1519512
-0.523,-0.129,-0.853,-1.892,1519517
-0.523,-0.129,-0.853,-0.427,1519522
-0.564,-0.12,-0.793,-1.526,1519528
-0.564,-0.12,-0.793,-4.456,1519533
-0.565,-0.101,-0.831,-6.165,1519538
-0.565,-0.101,-0.831,-5.432,1519544
-0.548,-0.096,-0.871,-9.216,1519549
-0.548,-0.096,-0.871,-7.996,1519554
-0.517,-0.114,-0.865,-9.155,1519560
-0.517,-0.114,-0.865,-8.728,1519565
-0.474,-0.136,-0.827,5.859,1519570
-0.542,-0.102,-0.832,2.625,1519575
-0.542,-0.102,-0.832,1.465,1519581
-0.526,-0.101,-0.843,3.418,1519586
-0.526,-0.101,-0.843,5.188,1519591
-0.522,-0.103,-0.828,5.981,1519596
-0.522,-0.103,-0.828,8.301,1519602
-0.527,-0.093,-0.834,8.301,1519607
-0.527,-0.093,-0.834,7.874,1519612
-0.541,-0.074,-0.837,7.568,1519617
-0.541,-0.074,-0.837,8.667,1519623
-0.551,-0.055,-0.844,11.292,1519628
-0.551,-0.055,-0.844,7.08,1519633
-0.53,-0.062,-0.869,2.075,1519638
-0.53,-0.062,-0.869,2.197,1519644
-0.54,-0.025,-0.85,3.052,1519649
-0.54,-0.025,-0.85,-6.531,1519654
-0.492,0.003,-0.947,-18.188,1519660
-0.461,-0.097,-0.978,-17.273,1519665
-0.461,-0.097,-0.978,-29.114,1519670
-0.486,-0.123,-0.93,-36.316,1519676
-0.486,-0.123,-0.93,-27.771,1519681
-0.59,0.072,-0.777,-32.043,1519686
-0.59,0.072,-0.777,-49.072,1519692
-0.432,-0.207,-0.939,-52.795,1519697
-0.432,-0.207,-0.939,-26.062,1519702
-0.42,-0.155,-0.86,-8.301,1519708
-0.42,-0.155,-0.86,-9.521,1519713
-0.512,-0.072,-0.821,-9.338,1519718
-0.512,-0.072,-0.821,-5.127,1519724
-0.512,-0.088,-0.852,-5.188,1519729
-0.552,-0.064,-0.869,-9.338,1519734
-0.552,-0.064,-0.869,-16.296,1519739
-0.576,-0.052,-0.883,-16.907,1519745
-0.576,-0.052,-0.883,-26.978,1519750
-0.49,-0.13,-0.89,-31.616,1519756
-0.49,-0.13,-0.89,-16.174,1519761
-0.445,-0.116,-0.815,-7.935,1519766
-0.445,-0.116,-0.815,-4.211,1519772
-0.483,-0.105,-0.805,-1.16,1519777
-0.483,-0.105,-0.805,4.517,1519782
-0.518,-0.099,-0.865,5.676,1519787
-0.518,-0.099,-0.865,2.686,1519793
-0.537,-0.096,-0.878,0.793,1519798
-0.52,-0.099,-0.853,0.549,1519803
-0.52,-0.099,-0.853,-0.122,1519809
-0.519,-0.104,-0.844,-0.366,1519814
-0.519,-0.104,-0.844,-0.061,1519819
-0.52,-0.104,-0.856,0.366,1519824
-0.52,-0.104,-0.856,-0.122,1519830
-0.526,-0.101,-0.854,-2.625,1519835
-0.526,-0.101,-0.854,-3.906,1519840
-0.523,-0.103,-0.864,-4.028,1519846
-0.523,-0.103,-0.864,-5.554,1519851
-0.518,-0.107,-0.855,-7.08,1519856
-0.518,-0.107,-0.855,-6.775,1519861
-0.497,-0.114,-0.838,-7.08,1519867
-0.497,-0.114,-0.838,-3.113,1519872
-0.492,-0.114,-0.847,0.244,1519877
-0.51,-0.105,-0.865,-2.808,1519883
-0.51,-0.105,-0.865,-1.526,1519888
-0.518,-0.101,-0.876,-2.136,1519893
-0.518,-0.101,-0.876,-8.301,1519898
-0.51,-0.101,-0.869,-10.986,1519904
-0.51,-0.101,-0.869,-7.385,1519909
-0.495,-0.083,-0.869,-5.737,1519914
-0.495,-0.083,-0.869,-10.315,1519920
-0.508,-0.094,-0.863,-16.235,1519925
-0.508,-0.094,-0.863,-10.742,1519930
-0.48,-0.139,-0.88,-11.963,1519936
-0.48,-0.139,-0.88,-6.897,1519941
-0.48,-0.119,-0.868,-4.7,1519946
-0.48,-0.119,-0.868,-5.127,1519952
-0.483,-0.108,-0.862,-1.709,1519957
-0.483,-0.11,-0.87,-0.244,1519962
-0.483,-0.11,-0.87,-0.854,1519968
-0.492,-0.107,-0.877,-1.282,1519973
-0.492,-0.107,-0.877,-1.404,1519978
-0.498,-0.105,-0.874,-2.93,1519984
-0.498,-0.105,-0.874,-5.066,1519989
-0.478,-0.107,-0.878,-1.282,1519994
-0.478,-0.107,-0.878,0.0,1519999
-0.498,-0.105,-0.875,-2.808,1520005
-0.498,-0.105,-0.875,-4.517,1520010
-0.488,-0.107,-0.877,-1.831,1520015
-0.488,-0.107,-0.877,-2.686,1520021
-0.491,-0.108,-0.869,-4.333,1520026
-0.491,-0.108,-0.869,-2.93,1520031
-0.481,-0.111,-0.867,-1.343,1520036
-0.485,-0.113,-0.866,-0.61,1520042
-0.485,-0.113,-0.866,-0.366,1520047
-0.492,-0.112,-0.87,-0.244,1520052
-0.492,-0.112,-0.87,-0.244,1520058
-0.493,-0.115,-0.867,-0.244,1520063
-0.493,-0.115,-0.867,-0.366,1520068
-0.494,-0.115,-0.864,-0.366,1520074
-0.494,-0.115,-0.864,-0.427,1520079
-0.496,-0.116,-0.866,-0.305,1520084
-0.496,-0.116,-0.866,-0.305,1520089
-0.497,-0.117,-0.867,-0.183,1520095
-0.497,-0.117,-0.867,0.061,1520100
-0.5,-0.119,-0.865,-0.305,1520105
-0.5,-0.119,-0.865,-1.465,1520111
-0.495,-0.12,-0.865,-0.549,1520116
-0.494,-0.12,-0.864,-0.793,1520121
-0.494,-0.12,-0.864,-1.648,1520126
-0.496,-0.123,-0.864,-1.587,1520132
-0.496,-0.123,-0.864,-1.16,1520137
-0.494,-0.127,-0.861,-1.16,1520142
-0.494,-0.127,-0.861,-1.221,1520148
-0.492,-0.127,-0.864,-1.099,1520153
-0.492,-0.127,-0.864,-1.282,1520158
-0.493,-0.129,-0.867,-1.526,1520164
-0.493,-0.129,-0.867,-1.953,1520169
-0.495,-0.132,-0.863,-2.258,1520174
-0.495,-0.132,-0.863,-4.761,1520180
-0.501,-0.129,-0.873,-9.155,1520185
-0.49,-0.13,-0.879,-4.456,1520190
-0.49,-0.13,-0.879,-7.141,1520195
-0.473,-0.139,-0.852,-4.944,1520201
-0.473,-0.139,-0.852,-1.587,1520206
-0.474,-0.138,-0.856,0.427,1520211
-0.474,-0.138,-0.856,-0.305,1520217
-0.486,-0.129,-0.875,-0.061,1520222
-0.486,-0.129,-0.875,0.305,1520227
-0.483,-0.127,-0.873,0.305,1520232
-0.483,-0.127,-0.873,0.0,1520238
-0.483,-0.124,-0.871,0.0,1520243
-0.483,-0.124,-0.871,-0.061,1520248
-0.486,-0.122,-0.872,-0.427,1520253
-0.486,-0.122,-0.872,-1.953,1520259
-0.489,-0.118,-0.885,-3.601,1520264
-0.489,-0.118,-0.885,-2.991,1520269
-0.482,-0.118,-0.881,-3.479,1520275
-0.472,-0.121,-0.866,-2.625,1520280
-0.472,-0.121,-0.866,-0.916,1520285
-0.472,-0.12,-0.872,-0.366,1520291
-0.472,-0.12,-0.872,-0.427,1520296
-0.481,-0.116,-0.883,-0.244,1520301
-0.481,-0.116,-0.883,-0.122,1520306
-0.48,-0.117,-0.877,-0.183,1520312
-0.48,-0.117,-0.877,-0.427,1520317
-0.48,-0.117,-0.875,-0.61,1520322
-0.48,-0.117,-0.875,-0.366,1520328
-0.482,-0.118,-0.878,-0.366,1520333
-0.482,-0.118,-0.878,-0.305,1520338
-0.484,-0.118,-0.873,-0.61,1520343
-0.481,-0.12,-0.874,-0.305,1520349
-0.481,-0.12,-0.874,0.061,1520354
-0.483,-0.119,-0.872,0.122,1520359
-0.483,-0.119,-0.872,0.183,1520365
-0.484,-0.088,-0.861,0.61,1520370
-0.484,-0.088,-0.861,-1.282,1520375
-0.494,-0.132,-0.875,-10.437,1520380
-0.494,-0.132,-0.875,-1.648,1520386
-0.479,-0.142,-0.897,1.77,1520391
-0.479,-0.142,-0.897,-0.061,1520396
-0.491,-0.118,-0.857,-2.686,1520402
-0.491,-0.118,-0.857,-1.343,1520407
-0.485,-0.124,-0.872,-0.244,1520412
-0.485,-0.124,-0.872,-0.366,1520418
-0.487,-0.125,-0.87,-0.366,1520423
-0.485,-0.123,-0.867,-0.183,1520428
-0.485,-0.123,-0.867,0.061,1520433
-0.485,-0.109,-0.859,0.244,1520439
-0.485,-0.109,-0.859,-1.465,1520444
-0.5,-0.127,-0.864,-7.935,1520449
-0.5,-0.127,-0.864,-3.479,1520455
-0.483,-0.146,-0.892,2.014,1520460
-0.483,-0.146,-0.892,0.366,1520465
-0.496,-0.123,-0.849,-1.526,1520470
-0.496,-0.123,-0.849,-1.77,1520476
-0.489,-0.127,-0.87,-0.305,1520481
-0.489,-0.127,-0.87,-0.122,1520486
-0.493,-0.127,-0.866,-0.305,1520492
-0.493,-0.127,-0.866,-0.854,1520497
-0.493,-0.126,-0.863,-0.732,1520502
-0.492,-0.126,-0.865,-0.427,1520507
-0.492,-0.126,-0.865,-0.61,1520513
-0.489,-0.127,-0.861,-0.305,1520518
-0.489,-0.127,-0.861,1.221,1520523
-0.486,-0.126,-0.857,2.625,1520529
-0.486,-0.126,-0.857,2.869,1520534
-0.492,-0.12,-0.864,3.296,1520539
-0.492,-0.12,-0.864,3.601,1520544
-0.507,-0.114,-0.874,2.258,1520550
-0.507,-0.114,-0.874,0.732,1520555
-0.504,-0.113,-0.874,0.061,1520560
-0.504,-0.113,-0.874,-0.183,1520565
-0.498,-0.114,-0.86,-0.488,1520571
-0.498,-0.114,-0.86,-0.549,1520576
-0.489,-0.109,-0.855,0.122,1520581
-0.489,-0.109,-0.855,1.099,1520587
-0.5,-0.074,-0.839,-5.798,1520592
-0.505,-0.117,-0.865,-7.874,1520597
-0.505,-0.117,-0.865,-3.174,1520602
-0.5,-0.138,-0.893,0.061,1520608
-0.5,-0.138,-0.893,-1.587,1520613
-0.506,-0.107,-0.867,-1.16,1520618
-0.506,-0.107,-0.867,-0.854,1520624
-0.499,-0.098,-0.848,-0.793,1520629
-0.499,-0.098,-0.848,-1.221,1520634
-0.495,-0.1,-0.848,-0.671,1520639
-0.495,-0.1,-0.848,0.977,1520645
-0.49,-0.091,-0.848,2.686,1520650
-0.49,-0.091,-0.848,7.141,1520655
-0.477,-0.081,-0.835,11.169,1520661
-0.477,-0.081,-0.835,14.648,1520666
-0.441,-0.157,-0.818,48.584,1520671
-0.471,-0.108,-0.806,58.105,1520677
-0.471,-0.108,-0.806,65.491,1520682
-0.468,-0.117,-0.844,85.51,1520687
-0.468,-0.117,-0.844,102.234,1520692
-0.375,-0.173,-0.792,103.149,1520698
-0.375,-0.173,-0.792,131.897,1520703
-0.461,-0.169,-0.89,168.091,1520709
-0.461,-0.169,-0.89,200.134,1520714
-0.544,-0.12,-0.915,240.845,1520719
-0.544,-0.12,-0.915,190.552,1520725
-0.695,0.158,-0.906,166.87,1520730
-0.695,0.158,-0.906,179.077,1520735
-0.737,0.361,-0.84,99.976,1520741
-0.637,0.384,-0.766,44.189,1520746
-0.637,0.384,-0.766,33.02,1520751
-0.489,0.105,-0.551,55.42,1520757
-0.489,0.105,-0.551,66.467,1520762
-0.512,0.158,-0.746,74.585,1520767
-0.512,0.158,-0.746,91.187,1520772
-0.595,0.054,-0.942,101.562,1520778
-0.595,0.054,-0.942,89.478,1520783
-0.631,0.059,-1.013,74.646,1520788
-0.631,0.059,-1.013,72.876,1520794
-0.631,0.198,-0.797,54.138,1520799
-0.631,0.198,-0.797,40.894,1520804
-0.593,0.17,-0.77,36.011,1520809
-0.593,0.17,-0.77,33.081,1520815
-0.627,0.182,-0.827,21.729,1520820
-0.597,0.186,-0.837,-4.517,1520825
-0.597,0.186,-0.837,4.028,1520830
-0.564,0.169,-0.804,4.15,1520836
-0.564,0.169,-0.804,-0.549,1520841
-0.573,0.165,-0.784,-0.244,1520846
-0.573,0.165,-0.784,1.77,1520851
-0.564,0.165,-0.791,2.991,1520857
-0.564,0.165,-0.791,3.54,1520862
-0.573,0.173,-0.808,3.845,1520867
-0.573,0.173,-0.808,2.808,1520872
-0.577,0.175,-0.808,1.465,1520877
-0.577,0.175,-0.808,2.563,1520883
-0.568,0.172,-0.799,4.883,1520888
-0.568,0.172,-0.799,2.808,1520893
-0.58,0.175,-0.8,-0.061,1520898
-0.58,0.175,-0.8,-0.305,1520903
-0.569,0.173,-0.8,-0.122,1520909
-0.569,0.173,-0.8,0.0,1520914
-0.569,0.175,-0.803,0.0,1520919
-0.569,0.173,-0.804,-0.122,1520924
-0.569,0.173,-0.804,-0.122,1520930
-0.568,0.174,-0.804,-0.122,1520935
-0.568,0.174,-0.804,-0.244,1520940
-0.568,0.174,-0.806,-0.183,1520945
-0.568,0.174,-0.806,-0.244,1520951
-0.567,0.174,-0.808,-0.061,1520956
-0.567,0.174,-0.808,0.366,1520961
-0.57,0.173,-0.803,0.061,1520966
-0.57,0.173,-0.803,-0.183,1520971
-0.569,0.173,-0.804,0.0,1520977
-0.569,0.173,-0.804,0.0,1520982
-0.567,0.173,-0.804,-0.122,1520987
-0.567,0.173,-0.804,0.244,1520992
-0.565,0.174,-0.81,2.014,1520998
-0.565,0.174,-0.81,1.709,1521003
-0.573,0.176,-0.804,-0.183,1521008
-0.573,0.176,-0.804,-0.183,1521013
-0.568,0.174,-0.807,0.061,1521018
-0.567,0.176,-0.807,0.0,1521024
-0.567,0.176,-0.807,0.0,1521029
-0.568,0.175,-0.805,0.061,1521034
-0.568,0.175,-0.805,0.0,1521039
-0.568,0.176,-0.805,-0.061,1521044
-0.568,0.176,-0.805,-0.183,1521050
-0.566,0.176,-0.806,-0.122,1521055
-0.566,0.176,-0.806,-0.061,1521060
-0.567,0.176,-0.806,-0.122,1521065
-0.567,0.176,-0.806,-0.183,1521071
-0.569,0.176,-0.805,-0.122,1521076
-0.569,0.176,-0.805,-0.061,1521081
-0.568,0.175,-0.804,-0.244,1521086
-0.568,0.175,-0.804,-0.244,1521092
-0.568,0.175,-0.804,-0.366,1521097
-0.568,0.175,-0.804,-0.183,1521102
-0.568,0.175,-0.803,-0.122,1521107
-0.569,0.177,-0.801,0.0,1521113
-0.569,0.177,-0.801,-0.183,1521118
-0.569,0.176,-0.802,-0.061,1521123
-0.569,0.176,-0.802,0.122,1521128
-0.57,0.176,-0.803,0.305,1521134
-0.57,0.176,-0.803,0.671,1521139
-0.571,0.175,-0.801,0.671,1521144
-0.571,0.175,-0.801,0.122,1521149
-0.572,0.175,-0.801,0.061,1521154
-0.572,0.175,-0.801,0.0,1521160
-0.572,0.175,-0.801,-0.061,1521165
-0.572,0.175,-0.801,-0.061,1521170
-0.573,0.176,-0.802,-0.061,1521175
-0.573,0.176,-0.802,-0.122,1521180
-0.571,0.176,-0.802,-0.183,1521186
-0.571,0.176,-0.802,-0.122,1521191
-0.571,0.176,-0.802,-0.061,1521196
-0.571,0.176,-0.802,-0.122,1521202
-0.572,0.175,-0.805,-0.244,1521207
-0.571,0.176,-0.806,-0.244,1521212
-0.571,0.176,-0.806,-0.244,1521217
-0.572,0.178,-0.807,-0.122,1521223
-0.572,0.178,-0.807,-0.122,1521228
-0.57,0.176,-0.804,-0.183,1521233
-0.57,0.176,-0.804,-0.183,1521238
-0.567,0.174,-0.804,-0.061,1521244
-0.567,0.174,-0.804,-0.061,1521249
-0.566,0.175,-0.803,-0.122,1521254
-0.566,0.175,-0.803,-0.183,1521259
-0.568,0.174,-0.805,-0.183,1521265
-0.568,0.174,-0.805,-0.061,1521270
-0.566,0.173,-0.806,-0.061,1521275
-0.566,0.173,-0.806,-0.122,1521280
-0.566,0.173,-0.807,-0.244,1521286
-0.566,0.173,-0.807,-0.244,1521291
-0.567,0.175,-0.806,-0.244,1521296
-0.567,0.174,-0.807,-0.305,1521301
-0.567,0.174,-0.807,-0.183,1521307
-0.567,0.174,-0.808,-0.244,1521312
-0.567,0.174,-0.808,-0.244,1521317
-0.567,0.175,-0.806,-0.183,1521322
-0.567,0.175,-0.806,-0.305,1521328
-0.566,0.174,-0.807,-0.366,1521333
-0.566,0.174,-0.807,-0.244,1521338
-0.565,0.172,-0.806,-0.061,1521343
-0.565,0.172,-0.806,-0.244,1521349
-0.567,0.173,-0.805,-0.305,1521354
-0.567,0.173,-0.805,-0.366,1521359
-0.57,0.172,-0.807,-0.183,1521364
-0.57,0.172,-0.807,-0.122,1521370
-0.568,0.173,-0.806,-0.183,1521375
-0.568,0.173,-0.806,-0.122,1521380
-0.57,0.174,-0.805,-0.061,1521385
-0.572,0.172,-0.805,-0.122,1521391
-0.572,0.172,-0.805,-0.183,1521396
-0.572,0.174,-0.801,0.0,1521401
-0.572,0.174,-0.801,-0.122,1521406
-0.571,0.174,-0.8,-0.122,1521412
-0.571,0.174,-0.8,-0.061,1521417
-0.571,0.172,-0.8,-0.122,1521422
-0.571,0.172,-0.8,0.0,1521427
-0.572,0.173,-0.801,-0.061,1521433
-0.572,0.173,-0.801,-0.122,1521438
-0.571,0.174,-0.8,-0.061,1521443
-0.571,0.174,-0.8,-0.122,1521448
-0.571,0.174,-0.799,-0.122,1521454
-0.571,0.174,-0.799,-0.122,1521459
-0.572,0.174,-0.802,-0.183,1521464
-0.572,0.174,-0.802,-0.061,1521469
-0.571,0.175,-0.802,-0.122,1521475
-0.572,0.176,-0.805,-0.061,1521480
-0.572,0.176,-0.805,-0.122,1521485
-0.573,0.177,-0.806,-0.061,1521490
-0.573,0.177,-0.806,0.061,1521496
-0.573,0.178,-0.805,-0.061,1521501
-0.573,0.178,-0.805,-0.061,1521506
-0.57,0.177,-0.803,-0.061,1521511
-0.57,0.177,-0.803,-0.061,1521517
-0.569,0.179,-0.806,-0.122,1521522
-0.569,0.179,-0.806,-0.122,1521527
-0.569,0.18,-0.805,-0.122,1521532
-0.569,0.18,-0.805,-0.183,1521538
-0.567,0.18,-0.805,-0.244,1521543
-0.567,0.18,-0.805,-0.183,1521548
-0.565,0.18,-0.805,-0.183,1521553
-0.565,0.18,-0.805,-0.183,1521559
-0.567,0.178,-0.807,-0.244,1521564
-0.568,0.18,-0.809,-0.366,1521569
-0.568,0.18,-0.809,-0.305,1521574
-0.565,0.179,-0.809,-0.244,1521580
-0.565,0.179,-0.809,-0.305,1521585
-0.564,0.177,-0.808,-0.244,1521590
-0.564,0.177,-0.808,-0.305,1521595
-0.564,0.175,-0.81,-0.244,1521601
-0.564,0.175,-0.81,-0.366,1521606
-0.564,0.177,-0.811,-0.427,1521611
-0.564,0.177,-0.811,-0.244,1521616
-0.566,0.175,-0.809,-0.244,1521622
-0.566,0.175,-0.809,-0.366,1521627
-0.568,0.177,-0.806,-0.366,1521632
-0.568,0.177,-0.806,-0.366,1521637
-0.566,0.176,-0.804,-0.427,1521643
-0.566,0.176,-0.804,-0.305,1521648
-0.567,0.176,-0.805,-0.244,1521653
-0.568,0.177,-0.802,-0.427,1521658
-0.568,0.177,-0.802,-0.427,1521664
-0.57,0.177,-0.803,-0.305,1521669
-0.57,0.177,-0.803,-0.366,1521674
-0.57,0.178,-0.803,-0.427,1521680
-0.57,0.178,-0.803,-0.427,1521685
-0.571,0.177,-0.802,-0.366,1521690
-0.571,0.177,-0.802,-0.366,1521695
-0.571,0.178,-0.801,-0.427,1521701
-0.571,0.178,-0.801,-0.488,1521706
-0.571,0.177,-0.8,-0.488,1521711
-0.571,0.177,-0.8,-0.305,1521716
-0.571,0.175,-0.8,-0.549,1521722
-0.571,0.175,-0.8,-0.366,1521727
-0.571,0.173,-0.8,-0.427,1521732
-0.571,0.173,-0.8,-0.427,1521737
-0.572,0.172,-0.799,-0.305,1521743
-0.572,0.171,-0.8,-0.366,1521748
-0.572,0.171,-0.8,-0.305,1521753
-0.57,0.169,-0.797,-0.244,1521758
-0.57,0.169,-0.797,-0.305,1521764
-0.57,0.167,-0.794,-0.244,1521769
-0.57,0.167,-0.794,-0.244,1521774
-0.57,0.165,-0.788,-0.244,1521779
-0.57,0.165,-0.788,-0.183,1521785
-0.581,0.169,-0.802,-0.061,1521790
-0.581,0.169,-0.802,-0.183,1521795
-0.585,0.178,-0.818,-0.244,1521800
-0.585,0.178,-0.818,-0.244,1521806
-0.578,0.18,-0.814,-0.122,1521811
-0.578,0.18,-0.814,-0.183,1521816
-0.571,0.177,-0.802,-0.244,1521821
-0.571,0.177,-0.802,-0.183,1521827
-0.57,0.173,-0.8,-0.244,1521832
-0.574,0.169,-0.803,-0.366,1521837
-0.574,0.169,-0.803,-0.244,1521842
-0.577,0.167,-0.802,-0.244,1521848
-0.577,0.167,-0.802,-0.305,1521853
-0.571,0.165,-0.799,-0.366,1521858
-0.571,0.165,-0.799,-0.305,1521863
-0.566,0.166,-0.797,-0.183,1521869
-0.566,0.166,-0.797,-0.061,1521874
-0.566,0.167,-0.806,-0.122,1521879
-0.566,0.167,-0.806,0.0,1521884
-0.567,0.167,-0.811,0.061,1521890
-0.567,0.167,-0.811,0.061,1521895
-0.566,0.164,-0.807,0.122,1521900
-0.566,0.164,-0.807,0.061,1521905
-0.566,0.165,-0.807,0.183,1521910
-0.566,0.165,-0.807,0.122,1521916
-0.568,0.166,-0.804,0.0,1521921
-0.565,0.168,-0.797,0.183,1521926
-0.565,0.168,-0.797,0.122,1521931
-0.565,0.171,-0.797,0.244,1521936
-0.565,0.171,-0.797,0.183,1521942
-0.57,0.174,-0.808,0.061,1521947
-0.57,0.174,-0.808,0.183,1521952
-0.572,0.179,-0.812,0.244,1521957
-0.572,0.179,-0.812,0.061,1521963
-0.568,0.184,-0.809,0.061,1521968
-0.568,0.184,-0.809,0.122,1521973
-0.566,0.184,-0.803,-0.061,1521978
-0.566,0.184,-0.803,0.122,1521983
-0.568,0.185,-0.803,0.183,1521989
-0.568,0.185,-0.803,0.061,1521994
-0.572,0.187,-0.807,0.0,1521999
-0.572,0.187,-0.807,-0.061,1522004
-0.571,0.185,-0.806,-0.061,1522009
-0.571,0.185,-0.806,-0.183,1522015
-0.567,0.185,-0.805,-0.122,1522020
-0.567,0.185,-0.811,-0.122,1522025
-0.567,0.185,-0.811,-0.244,1522031
-0.567,0.188,-0.811,-0.244,1522036
-0.567,0.188,-0.811,-0.244,1522041
-0.568,0.184,-0.81,-0.183,1522046
-0.568,0.184,-0.81,-0.366,1522052
-0.568,0.181,-0.807,-0.305,1522057
-0.568,0.181,-0.807,-0.488,1522062
-0.568,0.178,-0.802,-0.366,1522067
-0.568,0.178,-0.802,-0.305,1522073
-0.569,0.175,-0.802,-0.244,1522078
-0.569,0.175,-0.802,-0.244,1522083
-0.566,0.173,-0.801,-0.366,1522088
-0.566,0.173,-0.801,-0.305,1522094
-0.566,0.171,-0.803,-0.305,1522099
-0.566,0.171,-0.803,-0.244,1522104
-0.569,0.17,-0.808,-0.366,1522109
-0.568,0.17,-0.806,-0.183,1522115
-0.568,0.17,-0.806,-0.122,1522120
-0.57,0.166,-0.805,-0.183,1522125
-0.57,0.166,-0.805,-0.244,1522130
-0.572,0.165,-0.803,-0.305,1522136
-0.572,0.165,-0.803,-0.122,1522141
-0.572,0.166,-0.804,-0.122,1522146
-0.572,0.166,-0.804,-0.183,1522151
-0.571,0.166,-0.802,-0.122,1522157
-0.571,0.166,-0.802,-0.183,1522162
-0.571,0.164,-0.802,-0.183,1522167
-0.571,0.164,-0.802,0.0,1522172
-0.569,0.165,-0.802,0.0,1522177
-0.569,0.165,-0.802,-0.122,1522183
-0.57,0.169,-0.806,0.0,1522188
-0.57,0.169,-0.806,0.0,1522193
-0.57,0.172,-0.804,-0.061,1522198
-0.57,0.172,-0.804,0.0,1522203
-0.571,0.173,-0.802,0.061,1522209
-0.571,0.174,-0.805,-0.061,1522214
-0.571,0.174,-0.805,-0.061,1522219
-0.57,0.174,-0.803,0.061,1522224
-0.57,0.174,-0.803,0.0,1522230
-0.567,0.176,-0.803,-0.061,1522235
-0.567,0.176,-0.803,0.0,1522240
-0.568,0.177,-0.803,0.0,1522245
-0.568,0.177,-0.803,0.0,1522250
-0.568,0.179,-0.806,0.122,1522255
-0.568,0.179,-0.806,0.061,1522261
-0.568,0.179,-0.803,0.0,1522266
-0.568,0.179,-0.803,0.061,1522271
-0.566,0.181,-0.803,0.122,1522276
-0.566,0.181,-0.803,-0.061,1522281
-0.567,0.185,-0.806,-0.061,1522287
-0.567,0.185,-0.806,-0.122,1522292
-0.567,0.184,-0.806,0.0,1522297
-0.567,0.184,-0.806,0.0,1522302
-0.567,0.184,-0.806,-0.244,1522308
-0.564,0.184,-0.806,-0.244,1522313
-0.564,0.184,-0.806,-0.122,1522318
-0.567,0.182,-0.808,-0.183,1522323
-0.567,0.182,-0.808,-0.183,1522329
-0.566,0.182,-0.806,-0.244,1522334
-0.566,0.182,-0.806,-0.305,1522339
-0.567,0.182,-0.805,-0.183,1522344
-0.567,0.182,-0.805,-0.244,1522350
-0.569,0.181,-0.807,-0.244,1522355
-0.569,0.181,-0.807,-0.305,1522360
-0.568,0.178,-0.808,-0.427,1522365
-0.568,0.178,-0.808,-0.366,1522371
-0.567,0.174,-0.807,-0.183,1522376
-0.567,0.174,-0.807,-0.244,1522381
-0.569,0.173,-0.806,-0.305,1522386
-0.569,0.173,-0.806,-0.244,1522392
-0.567,0.171,-0.808,-0.244,1522397
-0.567,0.171,-0.808,-0.366,1522402
-0.567,0.171,-0.808,-0.244,1522407
-0.568,0.17,-0.806,-0.366,1522413
-0.568,0.17,-0.806,-0.427,1522418
-0.567,0.171,-0.805,-0.244,1522423
-0.567,0.171,-0.805,-0.183,1522428
-0.569,0.17,-0.806,-0.244,1522434
-0.569,0.17,-0.806,-0.244,1522439
-0.569,0.17,-0.806,-0.183,1522444
-0.569,0.17,-0.806,-0.183,1522449
-0.568,0.17,-0.805,-0.122,1522455
-0.568,0.17,-0.805,-0.183,1522460
-0.569,0.17,-0.802,-0.122,1522465
-0.569,0.17,-0.802,-0.061,1522470
-0.572,0.17,-0.801,-0.183,1522476
-0.572,0.17,-0.801,-0.244,1522481
-0.572,0.171,-0.801,-0.122,1522486
-0.571,0.172,-0.8,-0.183,1522491
-0.571,0.172,-0.8,-0.122,1522497
-0.571,0.173,-0.801,-0.061,1522502
-0.571,0.173,-0.801,-0.061,1522507
-0.571,0.173,-0.802,-0.244,1522512
-0.571,0.173,-0.802,-0.183,1522518
-0.571,0.176,-0.802,-0.061,1522523
-0.571,0.176,-0.802,0.0,1522528
-0.571,0.176,-0.802,-0.122,1522533
-0.571,0.176,-0.802,0.061,1522539
-0.572,0.178,-0.802,-0.122,1522544
-0.572,0.178,-0.802,-0.183,1522549
-0.57,0.178,-0.803,-0.061,1522554
-0.57,0.178,-0.803,-0.061,1522560
-0.568,0.178,-0.803,-0.061,1522565
-0.568,0.178,-0.803,0.0,1522570
-0.567,0.18,-0.802,-0.122,1522575
-0.567,0.18,-0.802,-0.061,1522580
-0.569,0.181,-0.804,-0.061,1522586
-0.569,0.181,-0.808,-0.061,1522591
-0.569,0.181,-0.808,-0.244,1522596
-0.565,0.181,-0.808,-0.305,1522601
-0.565,0.181,-0.808,-0.244,1522607
-0.565,0.18,-0.807,-0.183,1522612
-0.565,0.18,-0.807,-0.244,1522617
-0.566,0.179,-0.805,-0.122,1522622
-0.566,0.179,-0.805,-0.244,1522628
-0.565,0.181,-0.806,-0.305,1522633
-0.565,0.181,-0.806,-0.244,1522638
-0.566,0.18,-0.808,-0.183,1522643
-0.566,0.18,-0.808,-0.244,1522649
-0.565,0.179,-0.809,-0.183,1522654
-0.565,0.179,-0.809,-0.305,1522659
-0.564,0.179,-0.81,-0.366,1522664
-0.564,0.179,-0.81,-0.366,1522670
-0.564,0.177,-0.808,-0.183,1522675
-0.567,0.177,-0.808,-0.305,1522680
-0.567,0.177,-0.808,-0.427,1522686
-0.568,0.176,-0.807,-0.61,1522691
-0.568,0.176,-0.807,-0.366,1522696
-0.565,0.173,-0.806,-0.488,1522701
-0.565,0.173,-0.806,-0.305,1522707
-0.567,0.17,-0.805,-0.061,1522712
-0.567,0.17,-0.805,-0.244,1522717
-0.569,0.17,-0.806,-0.244,1522722
-0.569,0.17,-0.806,-0.305,1522728
-0.57,0.171,-0.807,-0.366,1522733
-0.57,0.171,-0.807,-0.244,1522738
-0.568,0.171,-0.806,-0.183,1522743
-0.568,0.171,-0.806,-0.244,1522749
-0.569,0.17,-0.803,-0.183,1522754
-0.569,0.17,-0.803,-0.305,1522759
-0.571,0.171,-0.802,-0.122,1522764
-0.571,0.172,-0.801,0.061,1522770
-0.571,0.172,-0.801,-0.122,1522775
-0.573,0.173,-0.802,-0.122,1522780
-0.573,0.173,-0.802,-0.244,1522785
-0.574,0.173,-0.801,-0.244,1522791
-0.574,0.173,-0.801,-0.122,1522796
-0.573,0.175,-0.8,-0.122,1522801
-0.573,0.175,-0.8,-0.366,1522806
-0.573,0.177,-0.8,-0.366,1522812
-0.573,0.177,-0.8,-0.061,1522817
-0.572,0.175,-0.799,-0.061,1522822
-0.572,0.175,-0.799,-0.244,1522827
-0.571,0.175,-0.802,-0.244,1522833
-0.571,0.175,-0.802,-0.183,1522838
-0.572,0.173,-0.799,-0.122,1522843
-0.572,0.173,-0.799,-0.122,1522848
-0.573,0.174,-0.802,-0.183,1522854
-0.572,0.174,-0.802,-0.061,1522859
-0.572,0.174,-0.802,-0.122,1522864
-0.572,0.174,-0.801,-0.122,1522869
-0.572,0.174,-0.801,-0.122,1522875
-0.569,0.175,-0.802,0.061,1522880
-0.569,0.175,-0.802,0.0,1522885
-0.568,0.177,-0.806,0.122,1522890
-0.568,0.177,-0.806,0.0,1522895
-0.568,0.177,-0.804,0.0,1522901
-0.568,0.177,-0.804,-0.061,1522906
-0.567,0.176,-0.806,0.122,1522911
-0.567,0.176,-0.806,0.0,1522916
-0.564,0.176,-0.807,-0.061,1522921
-0.564,0.176,-0.807,-0.122,1522927
-0.565,0.177,-0.808,-0.061,1522932
-0.565,0.177,-0.808,-0.122,1522937
-0.564,0.176,-0.809,-0.122,1522942
-0.563,0.176,-0.811,-0.061,1522948
-0.563,0.176,-0.811,-0.122,1522953
-0.563,0.176,-0.811,-0.366,1522958
-0.563,0.176,-0.811,-0.305,1522963
-0.565,0.176,-0.809,-0.061,1522969
-0.565,0.176,-0.809,-0.122,1522974
-0.565,0.176,-0.808,-0.122,1522979
-0.565,0.176,-0.808,-0.305,1522985
-0.566,0.178,-0.808,-0.122,1522990
-0.566,0.178,-0.808,-0.244,1522995
-0.567,0.177,-0.807,-0.366,1523000
-0.567,0.177,-0.807,-0.366,1523006
-0.568,0.177,-0.809,-0.305,1523011
-0.568,0.177,-0.809,-0.244,1523016
-0.567,0.177,-0.803,-0.305,1523021
-0.567,0.177,-0.803,-0.244,1523027
-0.567,0.177,-0.803,-0.244,1523032
-0.57,0.177,-0.805,-0.305,1523037
-0.57,0.177,-0.805,-0.366,1523042
-0.57,0.176,-0.805,-0.183,1523048
-0.57,0.176,-0.805,-0.183,1523053
-0.57,0.175,-0.801,-0.305,1523058
-0.57,0.175,-0.801,-0.366,1523063
-0.571,0.175,-0.801,-0.427,1523069
-0.571,0.175,-0.801,-0.305,1523074
-0.571,0.175,-0.804,-0.244,1523079
-0.571,0.175,-0.804,-0.244,1523084
-0.572,0.175,-0.804,-0.183,1523090
-0.572,0.175,-0.804,-0.183,1523095
-0.569,0.175,-0.802,-0.183,1523100
-0.569,0.175,-0.802,-0.183,1523105
-0.57,0.174,-0.8,-0.183,1523111
-0.57,0.174,-0.8,-0.183,1523116
-0.571,0.174,-0.802,-0.183,1523121
-0.571,0.174,-0.803,-0.244,1523126
-0.571,0.174,-0.803,-0.183,1523132
-0.569,0.172,-0.804,-0.183,1523137
-0.569,0.172,-0.804,-0.244,1523142
-0.569,0.173,-0.802,-0.122,1523147
-0.569,0.173,-0.802,-0.183,1523153
-0.57,0.173,-0.802,-0.122,1523158
-0.57,0.173,-0.802,-0.183,1523163
-0.57,0.174,-0.805,-0.122,1523168
-0.57,0.174,-0.805,-0.183,1523174
-0.57,0.174,-0.803,-0.122,1523179
-0.57,0.174,-0.803,-0.061,1523184
-0.57,0.174,-0.802,-0.183,1523189
-0.57,0.174,-0.802,-0.244,1523195
-0.569,0.174,-0.805,-0.183,1523200
-0.569,0.174,-0.805,-0.183,1523205
-0.568,0.173,-0.807,-0.183,1523210
-0.568,0.172,-0.805,-0.183,1523216
-0.568,0.172,-0.805,-0.122,1523221
-0.568,0.173,-0.806,-0.122,1523226
-0.568,0.173,-0.806,-0.061,1523231
-0.566,0.174,-0.805,-0.183,1523237
-0.566,0.174,-0.805,-0.122,1523242
-0.567,0.175,-0.807,-0.122,1523247
-0.567,0.175,-0.807,-0.061,1523252
-0.568,0.175,-0.806,0.0,1523258
-0.568,0.175,-0.806,-0.061,1523263
-0.569,0.176,-0.806,-0.122,1523268
-0.569,0.176,-0.806,-0.061,1523273
-0.566,0.177,-0.804,-0.061,1523279
-0.566,0.177,-0.804,-0.183,1523284
-0.567,0.178,-0.806,-0.122,1523289
-0.567,0.178,-0.806,-0.183,1523294
-0.566,0.178,-0.806,-0.183,1523300
-0.568,0.178,-0.806,-0.244,1523305
-0.568,0.178,-0.806,-0.183,1523310
-0.567,0.179,-0.803,-0.305,1523315
-0.567,0.179,-0.803,-0.244,1523321
-0.569,0.179,-0.805,-0.183,1523326
-0.569,0.179,-0.805,-0.244,1523331
-0.568,0.179,-0.805,-0.183,1523336
-0.568,0.179,-0.805,-0.244,1523342
-0.569,0.178,-0.804,-0.305,1523347
-0.569,0.178,-0.804,-0.183,1523352
-0.569,0.177,-0.804,-0.244,1523357
-0.569,0.177,-0.804,-0.122,1523363
-0.569,0.176,-0.803,-0.122,1523368
-0.569,0.176,-0.803,-0.183,1523373
-0.57,0.176,-0.805,-0.244,1523379
-0.57,0.176,-0.805,-0.244,1523384
-0.571,0.174,-0.806,-0.305,1523389
-0.57,0.173,-0.804,-0.305,1523394
-0.57,0.173,-0.804,-0.305,1523400
-0.57,0.173,-0.802,-0.366,1523405
-0.57,0.173,-0.802,-0.244,1523410
-0.57,0.173,-0.804,-0.244,1523415
-0.57,0.173,-0.804,-0.305,1523421
-0.571,0.173,-0.805,-0.305,1523426
-0.571,0.173,-0.805,-0.244,1523431
-0.57,0.172,-0.805,-0.305,1523436
-0.57,0.172,-0.805,-0.305,1523442
-0.57,0.171,-0.803,-0.244,1523447
-0.57,0.171,-0.803,-0.244,1523452
-0.569,0.171,-0.803,-0.366,1523457
-0.569,0.171,-0.803,-0.305,1523463
-0.571,0.17,-0.803,-0.122,1523468
-0.571,0.17,-0.803,-0.122,1523473
-0.571,0.172,-0.804,0.0,1523478
-0.571,0.171,-0.804,-0.183,1523483
-0.571,0.171,-0.804,-0.183,1523489
-0.57,0.172,-0.804,-0.122,1523494
-0.57,0.172,-0.804,-0.061,1523499
-0.567,0.172,-0.802,-0.244,1523504
-0.567,0.172,-0.802,-0.061,1523510
-0.568,0.174,-0.807,-0.122,1523515
-0.568,0.174,-0.807,-0.122,1523520
-0.568,0.174,-0.807,-0.122,1523525
-0.568,0.174,-0.807,0.0,1523531
-0.569,0.175,-0.805,0.0,1523536
-0.569,0.175,-0.805,-0.061,1523541
-0.567,0.176,-0.804,-0.061,1523546
-0.567,0.176,-0.804,-0.122,1523552
-0.566,0.177,-0.806,-0.122,1523557
-0.566,0.177,-0.806,-0.122,1523562
-0.568,0.18,-0.807,-0.122,1523567
-0.566,0.179,-0.806,-0.183,1523573
-0.566,0.179,-0.806,-0.183,1523578
-0.568,0.179,-0.806,-0.183,1523583
-0.568,0.179,-0.806,-0.244,1523588
-0.566,0.18,-0.806,-0.244,1523594
-0.566,0.18,-0.806,-0.244,1523599
-0.568,0.178,-0.804,-0.183,1523604
-0.568,0.178,-0.804,-0.244,1523609
-0.568,0.178,-0.804,-0.427,1523615
-0.568,0.178,-0.804,-0.183,1523620
-0.568,0.178,-0.806,-0.244,1523625
