Acc_X,Acc_Y,Acc_Z,Rot_Z,Millis
-0.295,0.018,-0.958,-0.183,1325224
-0.296,0.016,-0.959,-0.061,1325229
-0.296,0.016,-0.959,-0.183,1325235
-0.297,0.017,-0.958,-0.244,1325240
-0.297,0.017,-0.958,-0.122,1325245
-0.298,0.017,-0.956,0.061,1325250
-0.298,0.017,-0.956,0.0,1325256
-0.297,0.017,-0.957,0.0,1325261
-0.297,0.017,-0.957,-0.122,1325266
-0.297,0.018,-0.958,-0.061,1325271
-0.297,0.018,-0.958,-0.183,1325276
-0.298,0.018,-0.957,-0.183,1325282
-0.298,0.018,-0.957,-0.183,1325287
-0.299,0.02,-0.957,-0.122,1325292
-0.299,0.02,-0.956,-0.061,1325297
-0.299,0.02,-0.956,-0.183,1325303
-0.3,0.02,-0.956,-0.122,1325308
-0.3,0.02,-0.956,-0.061,1325313
-0.298,0.023,-0.958,-0.244,1325318
-0.298,0.023,-0.958,-0.061,1325324
-0.298,0.024,-0.958,-0.061,1325329
-0.298,0.024,-0.958,0.0,1325334
-0.298,0.025,-0.957,0.061,1325339
-0.298,0.025,-0.957,-0.061,1325345
-0.297,0.026,-0.959,0.0,1325350
-0.297,0.026,-0.959,0.0,1325355
-0.297,0.029,-0.959,-0.122,1325360
-0.297,0.029,-0.959,0.0,1325365
-0.298,0.031,-0.959,0.0,1325371
-0.298,0.031,-0.959,-0.122,1325376
-0.298,0.031,-0.96,-0.183,1325381
-0.298,0.031,-0.96,-0.061,1325386
-0.296,0.031,-0.961,-0.122,1325392
-0.297,0.033,-0.963,-0.122,1325397
-0.297,0.033,-0.963,-0.122,1325402
-0.296,0.033,-0.96,-0.305,1325407
-0.296,0.033,-0.96,-0.244,1325413
-0.294,0.033,-0.96,-0.122,1325418
-0.294,0.033,-0.96,-0.244,1325423
-0.294,0.033,-0.962,-0.244,1325428
-0.294,0.033,-0.962,-0.244,1325434
-0.292,0.031,-0.963,-0.122,1325439
-0.292,0.031,-0.963,-0.061,1325444
-0.293,0.031,-0.961,-0.122,1325449
-0.293,0.031,-0.961,-0.366,1325455
-0.294,0.03,-0.961,-0.305,1325460
-0.294,0.03,-0.961,-0.366,1325465
-0.293,0.028,-0.961,-0.366,1325470
-0.294,0.027,-0.96,-0.427,1325476
-0.294,0.027,-0.96,-0.244,1325481
-0.295,0.024,-0.96,-0.244,1325486
-0.295,0.024,-0.96,-0.305,1325491
-0.294,0.024,-0.959,-0.244,1325497
-0.294,0.024,-0.959,-0.244,1325502
-0.295,0.023,-0.958,-0.366,1325507
-0.295,0.023,-0.958,-0.427,1325512
-0.295,0.02,-0.958,-0.183,1325518
-0.295,0.02,-0.958,-0.122,1325523
-0.298,0.019,-0.958,-0.305,1325528
-0.298,0.019,-0.958,-0.427,1325533
-0.299,0.019,-0.957,-0.244,1325539
-0.299,0.019,-0.957,-0.366,1325544
-0.298,0.019,-0.956,-0.305,1325549
-0.298,0.019,-0.956,-0.244,1325554
-0.298,0.017,-0.956,-0.122,1325560
-0.298,0.016,-0.957,-0.305,1325565
-0.298,0.016,-0.957,-0.305,1325570
-0.298,0.016,-0.957,-0.305,1325575
-0.298,0.016,-0.957,-0.244,1325581
-0.299,0.017,-0.955,-0.244,1325586
-0.299,0.017,-0.955,-0.244,1325591
-0.299,0.015,-0.956,-0.122,1325596
-0.299,0.015,-0.956,-0.183,1325602
-0.298,0.018,-0.956,-0.183,1325607
-0.298,0.018,-0.956,-0.122,1325612
-0.298,0.019,-0.957,-0.122,1325617
-0.298,0.019,-0.957,-0.122,1325623
-0.297,0.018,-0.959,-0.122,1325628
-0.297,0.018,-0.959,-0.122,1325633
-0.298,0.019,-0.958,-0.183,1325638
-0.298,0.019,-0.958,-0.122,1325644
-0.298,0.022,-0.957,-0.122,1325649
-0.297,0.022,-0.961,-0.061,1325654
-0.297,0.022,-0.961,-0.122,1325659
-0.296,0.025,-0.958,-0.244,1325665
-0.296,0.025,-0.958,-0.122,1325670
-0.295,0.025,-0.96,-0.183,1325675
-0.295,0.025,-0.96,-0.183,1325681
-0.295,0.025,-0.959,-0.183,1325686
-0.295,0.025,-0.959,-0.122,1325691
-0.295,0.029,-0.959,-0.183,1325696
-0.295,0.029,-0.959,0.0,1325701
-0.296,0.028,-0.961,-0.061,1325707
-0.296,0.028,-0.961,-0.061,1325712
-0.295,0.026,-0.961,-0.183,1325717
-0.295,0.026,-0.961,-0.122,1325722
-0.295,0.028,-0.961,-0.061,1325728
-0.295,0.028,-0.961,-0.122,1325733
-0.294,0.03,-0.958,-0.244,1325738
-0.295,0.028,-0.961,-0.122,1325743
-0.295,0.028,-0.961,-0.305,1325749
-0.295,0.027,-0.962,-0.305,1325754
-0.295,0.027,-0.962,-0.244,1325759
-0.297,0.027,-0.96,-0.305,1325764
-0.297,0.027,-0.96,-0.244,1325770
-0.295,0.026,-0.959,-0.244,1325775
-0.295,0.026,-0.959,-0.244,1325780
-0.296,0.026,-0.958,-0.305,1325785
-0.296,0.026,-0.958,-0.244,1325791
-0.298,0.026,-0.957,-0.366,1325796
-0.298,0.026,-0.957,-0.244,1325801
-0.298,0.024,-0.957,-0.122,1325807
-0.298,0.024,-0.957,-0.244,1325812
-0.297,0.022,-0.958,-0.305,1325817
-0.297,0.022,-0.958,-0.305,1325822
-0.298,0.022,-0.959,-0.427,1325828
-0.298,0.02,-0.958,-0.183,1325833
-0.298,0.02,-0.958,-0.305,1325838
-0.297,0.021,-0.958,-0.305,1325843
-0.297,0.021,-0.958,-0.427,1325849
-0.298,0.019,-0.957,-0.244,1325854
-0.298,0.019,-0.957,-0.183,1325859
-0.298,0.018,-0.957,-0.244,1325864
-0.298,0.018,-0.957,-0.244,1325870
-0.297,0.017,-0.957,-0.122,1325875
-0.297,0.017,-0.957,-0.061,1325880
-0.298,0.017,-0.957,-0.244,1325885
-0.298,0.017,-0.957,-0.244,1325891
-0.296,0.016,-0.957,-0.122,1325896
-0.296,0.016,-0.957,-0.122,1325901
-0.296,0.017,-0.957,-0.305,1325906
-0.296,0.017,-0.957,-0.305,1325912
-0.296,0.018,-0.957,-0.244,1325917
-0.295,0.016,-0.957,-0.183,1325922
-0.295,0.016,-0.957,-0.122,1325927
-0.294,0.016,-0.958,-0.122,1325933
-0.294,0.016,-0.958,-0.061,1325938
-0.294,0.019,-0.959,-0.183,1325943
-0.294,0.019,-0.959,-0.244,1325948
-0.296,0.021,-0.958,-0.061,1325954
-0.296,0.021,-0.958,-0.122,1325959
-0.296,0.019,-0.958,-0.122,1325964
-0.296,0.019,-0.958,-0.061,1325969
-0.295,0.021,-0.96,-0.122,1325975
-0.295,0.021,-0.96,-0.244,1325980
-0.297,0.023,-0.96,-0.122,1325985
-0.297,0.023,-0.96,-0.244,1325990
-0.296,0.023,-0.958,-0.183,1325996
-0.296,0.023,-0.958,-0.183,1326001
-0.295,0.024,-0.957,-0.122,1326006
-0.295,0.025,-0.959,-0.122,1326011
-0.295,0.025,-0.959,-0.305,1326017
-0.298,0.025,-0.958,-0.305,1326022
-0.298,0.025,-0.958,-0.061,1326027
-0.298,0.025,-0.958,-0.061,1326032
-0.298,0.025,-0.958,-0.305,1326038
-0.299,0.025,-0.959,-0.061,1326043
-0.299,0.025,-0.959,-0.122,1326048
-0.299,0.024,-0.96,-0.122,1326053
-0.299,0.024,-0.96,-0.183,1326059
-0.298,0.025,-0.959,-0.122,1326064
-0.298,0.025,-0.959,-0.183,1326069
-0.297,0.026,-0.96,-0.244,1326075
-0.297,0.026,-0.96,-0.183,1326080
-0.297,0.024,-0.96,-0.122,1326085
-0.297,0.024,-0.96,-0.183,1326090
-0.297,0.024,-0.959,-0.183,1326096
-0.298,0.025,-0.959,-0.427,1326101
-0.298,0.025,-0.959,-0.366,1326106
-0.298,0.023,-0.957,-0.244,1326111
-0.298,0.023,-0.957,-0.244,1326117
-0.298,0.023,-0.957,-0.305,1326122
-0.298,0.023,-0.957,-0.122,1326127
-0.298,0.025,-0.959,-0.122,1326132
-0.298,0.025,-0.959,-0.183,1326138
-0.296,0.021,-0.958,-0.366,1326143
-0.296,0.021,-0.958,-0.244,1326148
-0.295,0.022,-0.959,-0.244,1326153
-0.295,0.022,-0.959,-0.183,1326159
-0.297,0.02,-0.958,-0.122,1326164
-0.297,0.02,-0.958,-0.183,1326169
-0.296,0.02,-0.958,-0.183,1326174
-0.296,0.02,-0.958,-0.305,1326180
-0.297,0.02,-0.958,-0.183,1326185
-0.295,0.019,-0.957,-0.122,1326190
-0.295,0.019,-0.957,-0.244,1326195
-0.294,0.019,-0.958,-0.183,1326201
-0.294,0.019,-0.958,-0.305,1326206
-0.295,0.02,-0.958,-0.183,1326211
-0.295,0.02,-0.958,-0.122,1326216
-0.295,0.019,-0.958,-0.305,1326222
-0.295,0.019,-0.958,-0.305,1326227
-0.296,0.018,-0.958,-0.244,1326232
-0.296,0.018,-0.958,-0.183,1326237
-0.295,0.02,-0.958,-0.061,1326243
-0.295,0.02,-0.958,-0.061,1326248
-0.295,0.02,-0.959,-0.122,1326253
-0.295,0.02,-0.959,-0.061,1326258
-0.296,0.021,-0.957,-0.122,1326264
-0.296,0.021,-0.957,0.0,1326269
-0.295,0.021,-0.958,-0.244,1326274
-0.297,0.022,-0.958,-0.305,1326279
-0.297,0.022,-0.958,-0.244,1326285
-0.298,0.024,-0.959,-0.183,1326290
-0.298,0.024,-0.959,0.0,1326295
-0.298,0.024,-0.958,-0.122,1326300
-0.298,0.024,-0.958,-0.183,1326306
-0.298,0.025,-0.958,-0.061,1326311
-0.298,0.025,-0.958,-0.183,1326316
-0.298,0.025,-0.958,-0.122,1326321
-0.298,0.025,-0.958,-0.122,1326327
-0.298,0.026,-0.958,-0.244,1326332
-0.298,0.026,-0.958,-0.244,1326337
-0.298,0.026,-0.959,-0.061,1326342
-0.298,0.026,-0.959,-0.061,1326348
-0.298,0.026,-0.96,-0.183,1326353
-0.298,0.026,-0.96,-0.183,1326358
-0.296,0.026,-0.96,-0.244,1326363
-0.297,0.025,-0.96,-0.122,1326369
-0.297,0.025,-0.96,-0.122,1326374
-0.298,0.027,-0.96,-0.122,1326379
-0.298,0.027,-0.96,-0.305,1326384
-0.297,0.026,-0.959,-0.305,1326390
-0.297,0.026,-0.959,-0.183,1326395
-0.298,0.026,-0.958,-0.244,1326400
-0.298,0.026,-0.958,-0.244,1326405
-0.298,0.024,-0.959,-0.122,1326411
-0.298,0.024,-0.959,-0.244,1326416
-0.296,0.024,-0.959,-0.427,1326421
-0.296,0.024,-0.959,-0.305,1326426
-0.297,0.021,-0.96,-0.183,1326432
-0.297,0.021,-0.96,-0.183,1326437
-0.298,0.022,-0.959,-0.122,1326442
-0.298,0.022,-0.959,-0.183,1326447
-0.296,0.024,-0.959,-0.366,1326453
-0.295,0.024,-0.957,-0.427,1326458
-0.295,0.024,-0.957,-0.183,1326463
-0.296,0.021,-0.96,-0.244,1326468
-0.296,0.021,-0.96,-0.183,1326474
-0.296,0.02,-0.959,-0.122,1326479
-0.296,0.02,-0.959,-0.244,1326484
-0.296,0.021,-0.959,-0.244,1326489
-0.296,0.021,-0.959,-0.122,1326495
-0.296,0.019,-0.959,-0.305,1326500
-0.296,0.019,-0.959,-0.427,1326505
-0.296,0.019,-0.959,-0.183,1326510
-0.296,0.019,-0.959,-0.244,1326516
-0.296,0.02,-0.958,-0.305,1326521
-0.296,0.02,-0.958,-0.305,1326526
-0.297,0.021,-0.959,-0.183,1326531
-0.297,0.021,-0.959,-0.061,1326537
-0.296,0.021,-0.957,-0.122,1326542
-0.297,0.02,-0.957,-0.183,1326547
-0.297,0.02,-0.957,-0.061,1326552
-0.297,0.021,-0.958,-0.122,1326558
-0.297,0.021,-0.958,-0.183,1326563
-0.298,0.02,-0.958,-0.122,1326568
-0.298,0.02,-0.958,-0.061,1326573
-0.298,0.021,-0.958,-0.183,1326579
-0.298,0.021,-0.958,-0.122,1326584
-0.298,0.022,-0.958,-0.244,1326589
-0.298,0.022,-0.958,-0.244,1326594
-0.298,0.023,-0.957,-0.061,1326600
-0.298,0.023,-0.957,0.0,1326605
-0.297,0.023,-0.959,-0.183,1326610
-0.297,0.023,-0.959,-0.244,1326615
-0.296,0.023,-0.958,-0.183,1326621
-0.296,0.023,-0.958,-0.122,1326626
-0.298,0.025,-0.958,-0.183,1326631
-0.297,0.025,-0.958,0.0,1326636
-0.297,0.025,-0.958,-0.122,1326642
-0.295,0.023,-0.958,-0.244,1326647
-0.295,0.023,-0.958,-0.122,1326652
-0.297,0.023,-0.958,-0.305,1326657
-0.297,0.023,-0.958,-0.427,1326663
-0.297,0.025,-0.958,-0.183,1326668
-0.297,0.025,-0.958,-0.244,1326673
-0.296,0.025,-0.959,-0.305,1326678
-0.296,0.025,-0.959,-0.305,1326684
-0.296,0.025,-0.959,-0.183,1326689
-0.296,0.025,-0.959,-0.122,1326694
-0.298,0.024,-0.959,-0.244,1326699
-0.298,0.024,-0.959,-0.244,1326705
-0.298,0.023,-0.959,-0.244,1326710
-0.298,0.023,-0.959,-0.183,1326715
-0.296,0.023,-0.958,-0.244,1326720
-0.296,0.022,-0.958,-0.305,1326726
-0.296,0.022,-0.958,-0.122,1326731
-0.296,0.022,-0.958,-0.183,1326736
-0.296,0.022,-0.958,-0.244,1326741
-0.298,0.023,-0.959,-0.183,1326747
-0.298,0.023,-0.959,-0.244,1326752
-0.298,0.022,-0.958,-0.183,1326757
-0.298,0.022,-0.958,-0.244,1326762
-0.297,0.022,-0.958,-0.366,1326768
-0.297,0.022,-0.958,-0.305,1326773
-0.295,0.022,-0.958,-0.244,1326778
-0.295,0.022,-0.958,-0.244,1326784
-0.297,0.022,-0.956,-0.366,1326789
-0.297,0.022,-0.956,-0.244,1326794
-0.298,0.021,-0.957,-0.183,1326799
-0.298,0.021,-0.957,-0.183,1326805
-0.296,0.021,-0.957,-0.244,1326810
-0.297,0.021,-0.958,-0.244,1326815
-0.297,0.021,-0.958,-0.183,1326820
-0.297,0.021,-0.957,-0.122,1326826
-0.297,0.021,-0.957,-0.183,1326831
-0.297,0.02,-0.957,-0.183,1326836
-0.297,0.02,-0.957,-0.183,1326841
-0.296,0.02,-0.957,-0.122,1326847
-0.296,0.02,-0.957,-0.061,1326852
-0.296,0.021,-0.958,-0.244,1326857
-0.296,0.021,-0.958,-0.122,1326862
-0.298,0.021,-0.958,-0.244,1326868
-0.298,0.021,-0.958,-0.244,1326873
-0.297,0.021,-0.958,-0.122,1326878
-0.297,0.021,-0.958,-0.366,1326883
-0.297,0.022,-0.958,-0.183,1326889
-0.297,0.022,-0.958,-0.122,1326894
-0.296,0.022,-0.959,-0.366,1326899
-0.296,0.022,-0.958,-0.122,1326904
-0.296,0.022,-0.958,-0.183,1326910
-0.296,0.024,-0.957,-0.183,1326915
-0.296,0.024,-0.957,-0.122,1326920
-0.296,0.024,-0.959,-0.244,1326925
-0.296,0.024,-0.959,-0.122,1326931
-0.295,0.024,-0.961,-0.061,1326936
-0.295,0.024,-0.961,-0.244,1326941
-0.295,0.024,-0.96,-0.183,1326946
-0.295,0.024,-0.96,-0.122,1326952
-0.297,0.024,-0.958,-0.244,1326957
-0.297,0.024,-0.958,-0.305,1326962
-0.298,0.023,-0.959,-0.183,1326967
-0.298,0.023,-0.959,-0.183,1326973
-0.296,0.023,-0.957,-0.183,1326978
-0.297,0.025,-0.959,-0.122,1326983
-0.297,0.025,-0.959,-0.305,1326988
-0.297,0.024,-0.959,-0.183,1326994
-0.297,0.024,-0.959,-0.183,1326999
-0.296,0.023,-0.958,-0.122,1327004
-0.296,0.023,-0.958,-0.122,1327009
-0.296,0.024,-0.957,-0.366,1327015
-0.296,0.024,-0.957,-0.305,1327020
-0.296,0.023,-0.958,-0.122,1327025
-0.296,0.023,-0.958,-0.183,1327030
-0.297,0.024,-0.958,-0.122,1327036
-0.297,0.024,-0.958,-0.122,1327041
-0.298,0.025,-0.958,-0.183,1327046
-0.298,0.025,-0.958,-0.244,1327051
-0.297,0.022,-0.958,-0.122,1327057
-0.297,0.022,-0.958,-0.122,1327062
-0.297,0.022,-0.958,-0.183,1327067
-0.297,0.022,-0.958,-0.244,1327072
-0.297,0.022,-0.958,-0.305,1327078
-0.296,0.021,-0.959,-0.244,1327083
-0.296,0.021,-0.959,-0.061,1327088
-0.295,0.021,-0.958,-0.366,1327094
-0.295,0.021,-0.958,-0.183,1327099
-0.298,0.022,-0.958,-0.244,1327104
-0.298,0.022,-0.958,-0.244,1327109
-0.298,0.02,-0.958,-0.183,1327115
-0.298,0.02,-0.958,-0.183,1327120
-0.297,0.02,-0.96,-0.183,1327125
-0.297,0.02,-0.96,-0.183,1327130
-0.297,0.021,-0.959,-0.305,1327136
-0.297,0.021,-0.959,-0.061,1327141
-0.297,0.021,-0.958,-0.183,1327146
-0.297,0.021,-0.958,-0.122,1327151
-0.296,0.02,-0.958,-0.244,1327157
-0.295,0.021,-0.959,-0.183,1327162
-0.295,0.021,-0.959,-0.061,1327167
-0.295,0.022,-0.958,-0.061,1327172
-0.295,0.022,-0.958,-0.183,1327178
-0.296,0.021,-0.957,-0.122,1327183
-0.296,0.021,-0.957,-0.305,1327188
-0.298,0.021,-0.959,-0.244,1327193
-0.298,0.021,-0.959,-0.183,1327199
-0.296,0.022,-0.957,-0.244,1327204
-0.296,0.022,-0.957,-0.183,1327209
-0.295,0.022,-0.958,-0.244,1327214
-0.295,0.022,-0.958,-0.122,1327220
-0.297,0.022,-0.958,-0.122,1327225
-0.297,0.022,-0.958,-0.183,1327230
-0.298,0.021,-0.958,-0.122,1327235
-0.298,0.021,-0.958,-0.061,1327241
-0.297,0.022,-0.959,-0.244,1327246
-0.297,0.023,-0.959,-0.122,1327251
-0.297,0.023,-0.959,-0.061,1327256
-0.296,0.023,-0.958,-0.244,1327262
-0.296,0.023,-0.958,-0.305,1327267
-0.298,0.023,-0.96,-0.244,1327272
-0.298,0.023,-0.96,-0.305,1327277
-0.298,0.023,-0.96,-0.244,1327283
-0.298,0.023,-0.96,-0.305,1327288
-0.298,0.022,-0.958,-0.183,1327293
-0.298,0.022,-0.958,-0.183,1327298
-0.299,0.023,-0.958,-0.244,1327304
-0.299,0.023,-0.958,-0.244,1327309
-0.297,0.023,-0.958,-0.183,1327314
-0.297,0.023,-0.958,-0.305,1327319
-0.297,0.022,-0.958,-0.183,1327325
-0.297,0.022,-0.958,-0.244,1327330
-0.298,0.023,-0.958,-0.244,1327335
-0.297,0.022,-0.959,-0.366,1327340
-0.297,0.022,-0.959,-0.305,1327346
-0.296,0.023,-0.958,-0.183,1327351
-0.296,0.023,-0.958,-0.183,1327356
-0.297,0.023,-0.957,-0.305,1327361
-0.297,0.023,-0.957,-0.183,1327367
-0.298,0.023,-0.958,-0.183,1327372
-0.298,0.023,-0.958,-0.183,1327377
-0.295,0.021,-0.958,-0.122,1327382
-0.295,0.021,-0.958,-0.244,1327388
-0.296,0.023,-0.959,-0.183,1327393
-0.296,0.023,-0.959,-0.122,1327398
-0.296,0.021,-0.959,-0.244,1327403
-0.296,0.021,-0.959,-0.183,1327409
-0.297,0.021,-0.96,-0.183,1327414
-0.297,0.021,-0.96,-0.244,1327419
-0.296,0.021,-0.958,-0.244,1327425
-0.295,0.02,-0.959,-0.244,1327430
-0.295,0.02,-0.959,-0.122,1327435
-0.297,0.021,-0.959,-0.183,1327440
-0.297,0.021,-0.959,-0.183,1327446
-0.297,0.021,-0.958,-0.122,1327451
-0.297,0.021,-0.958,-0.122,1327456
-0.296,0.021,-0.958,-0.244,1327461
-0.296,0.021,-0.958,-0.244,1327467
-0.295,0.021,-0.958,-0.244,1327472
-0.295,0.021,-0.958,-0.122,1327477
-0.296,0.022,-0.957,-0.244,1327482
-0.296,0.022,-0.957,-0.061,1327488
-0.295,0.021,-0.959,-0.061,1327493
-0.295,0.021,-0.959,-0.244,1327498
-0.296,0.022,-0.958,-0.244,1327503
-0.296,0.022,-0.958,-0.366,1327509
-0.297,0.023,-0.958,-0.183,1327514
-0.297,0.023,-0.958,-0.244,1327519
-0.297,0.023,-0.958,-0.183,1327524
-0.297,0.023,-0.957,-0.061,1327530
-0.297,0.023,-0.957,-0.183,1327535
-0.296,0.024,-0.959,-0.183,1327540
-0.296,0.024,-0.959,-0.183,1327545
-0.297,0.023,-0.959,-0.244,1327551
-0.297,0.023,-0.959,-0.305,1327556
-0.297,0.024,-0.959,-0.305,1327561
-0.297,0.024,-0.959,-0.244,1327566
-0.297,0.022,-0.958,-0.122,1327572
-0.297,0.022,-0.958,-0.183,1327577
-0.296,0.022,-0.958,-0.122,1327582
-0.296,0.022,-0.958,-0.183,1327587
-0.297,0.021,-0.958,-0.244,1327593
-0.297,0.021,-0.958,-0.305,1327598
-0.297,0.021,-0.958,-0.183,1327603
-0.297,0.024,-0.959,-0.183,1327608
-0.297,0.024,-0.959,-0.183,1327614
-0.298,0.024,-0.958,-0.183,1327619
-0.298,0.024,-0.958,-0.305,1327624
-0.295,0.022,-0.957,-0.305,1327629
-0.295,0.022,-0.957,-0.183,1327635
-0.297,0.024,-0.959,-0.244,1327640
-0.297,0.024,-0.959,-0.183,1327645
-0.297,0.023,-0.958,-0.061,1327650
-0.297,0.023,-0.958,-0.122,1327656
-0.297,0.023,-0.958,-0.122,1327661
-0.297,0.023,-0.958,-0.183,1327666
-0.296,0.021,-0.959,-0.244,1327671
-0.296,0.021,-0.959,-0.183,1327677
-0.297,0.023,-0.958,-0.122,1327682
-0.297,0.023,-0.958,-0.122,1327687
-0.297,0.023,-0.958,-0.305,1327692
-0.296,0.023,-0.96,-0.305,1327698
-0.296,0.023,-0.96,-0.305,1327703
-0.296,0.023,-0.959,-0.305,1327708
-0.296,0.023,-0.959,-0.366,1327713
-0.295,0.022,-0.96,-0.244,1327719
-0.295,0.022,-0.96,-0.366,1327724
-0.297,0.022,-0.958,-0.244,1327729
-0.297,0.022,-0.958,-0.305,1327734
-0.297,0.022,-0.956,-0.305,1327740
-0.297,0.022,-0.956,-0.183,1327745
-0.296,0.022,-0.958,-0.122,1327750
-0.296,0.022,-0.958,-0.183,1327755
-0.295,0.023,-0.958,-0.366,1327761
-0.295,0.023,-0.958,-0.183,1327766
-0.296,0.022,-0.958,-0.244,1327771
-0.296,0.022,-0.958,-0.183,1327777
-0.297,0.021,-0.958,-0.122,1327782
-0.296,0.022,-0.958,-0.061,1327787
-0.296,0.022,-0.958,-0.183,1327792
-0.296,0.023,-0.958,-0.305,1327798
-0.296,0.023,-0.958,-0.122,1327803
-0.297,0.023,-0.96,-0.183,1327808
-0.297,0.023,-0.96,-0.183,1327813
-0.296,0.022,-0.96,-0.244,1327819
-0.296,0.022,-0.96,-0.244,1327824
-0.297,0.022,-0.958,-0.122,1327829
-0.297,0.022,-0.958,-0.244,1327834
-0.296,0.023,-0.958,-0.305,1327840
-0.296,0.023,-0.958,-0.366,1327845
-0.297,0.022,-0.959,-0.244,1327850
-0.297,0.022,-0.959,-0.061,1327855
-0.296,0.022,-0.959,-0.122,1327861
-0.296,0.022,-0.959,-0.244,1327866
-0.298,0.022,-0.958,-0.122,1327871
-0.297,0.022,-0.958,-0.305,1327876
-0.297,0.022,-0.958,-0.244,1327882
-0.296,0.022,-0.958,-0.122,1327887
-0.296,0.022,-0.958,-0.244,1327892
-0.296,0.023,-0.959,-0.244,1327897
-0.296,0.023,-0.959,-0.122,1327903
-0.298,0.021,-0.959,-0.061,1327908
-0.298,0.021,-0.959,-0.305,1327913
-0.298,0.022,-0.958,-0.305,1327918
-0.298,0.022,-0.958,-0.305,1327924
-0.298,0.022,-0.959,-0.183,1327929
-0.298,0.022,-0.959,-0.183,1327934
-0.296,0.024,-0.957,-0.305,1327939
-0.296,0.024,-0.957,-0.122,1327945
-0.298,0.024,-0.959,-0.061,1327950
-0.298,0.023,-0.959,-0.244,1327955
-0.298,0.023,-0.959,-0.183,1327960
-0.298,0.023,-0.959,-0.244,1327966
-0.298,0.023,-0.959,-0.183,1327971
-0.297,0.023,-0.959,-0.183,1327976
-0.297,0.023,-0.959,-0.305,1327981
-0.297,0.022,-0.959,-0.061,1327987
-0.297,0.022,-0.959,-0.122,1327992
-0.296,0.023,-0.958,-0.305,1327997
-0.296,0.023,-0.958,-0.305,1328002
-0.297,0.022,-0.957,-0.061,1328008
-0.297,0.022,-0.957,-0.183,1328013
-0.295,0.022,-0.959,-0.244,1328018
-0.295,0.022,-0.959,-0.183,1328023
-0.297,0.023,-0.958,-0.183,1328029
-0.297,0.023,-0.958,-0.183,1328034
-0.298,0.023,-0.958,-0.366,1328039
-0.297,0.022,-0.958,-0.122,1328045
-0.297,0.022,-0.958,-0.183,1328050
-0.297,0.021,-0.958,-0.122,1328055
-0.297,0.021,-0.958,-0.183,1328060
-0.297,0.024,-0.96,-0.183,1328066
-0.297,0.024,-0.96,-0.183,1328071
-0.297,0.023,-0.958,-0.183,1328076
-0.297,0.023,-0.958,-0.122,1328081
-0.296,0.022,-0.96,-0.305,1328087
-0.296,0.022,-0.96,-0.244,1328092
-0.296,0.022,-0.96,-0.244,1328097
-0.296,0.022,-0.96,-0.244,1328102
-0.295,0.022,-0.958,-0.366,1328108
-0.295,0.022,-0.958,-0.244,1328113
-0.298,0.021,-0.96,-0.244,1328118
-0.298,0.021,-0.96,-0.305,1328123
-0.295,0.022,-0.958,-0.305,1328129
-0.295,0.022,-0.957,-0.122,1328134
-0.295,0.022,-0.957,-0.366,1328139
-0.296,0.021,-0.959,-0.305,1328144
-0.296,0.021,-0.959,-0.244,1328150
-0.296,0.022,-0.959,-0.244,1328155
-0.296,0.022,-0.959,-0.305,1328160
-0.296,0.021,-0.958,-0.183,1328165
-0.296,0.021,-0.958,-0.244,1328171
-0.298,0.021,-0.959,-0.305,1328176
-0.298,0.021,-0.959,-0.122,1328181
-0.297,0.023,-0.958,-0.244,1328186
-0.297,0.023,-0.958,-0.244,1328192
-0.297,0.021,-0.958,-0.183,1328197
-0.297,0.021,-0.958,-0.244,1328202
-0.296,0.022,-0.959,-0.183,1328207
-0.296,0.022,-0.959,-0.244,1328213
-0.296,0.021,-0.959,-0.305,1328218
-0.296,0.023,-0.959,-0.122,1328223
-0.296,0.023,-0.959,-0.244,1328228
-0.297,0.022,-0.957,-0.183,1328234
-0.297,0.022,-0.957,-0.122,1328239
-0.297,0.022,-0.958,-0.244,1328244
-0.297,0.022,-0.958,-0.305,1328249
-0.297,0.022,-0.958,-0.244,1328255
-0.297,0.022,-0.958,-0.183,1328260
-0.298,0.022,-0.958,-0.183,1328265
-0.298,0.022,-0.958,-0.183,1328270
-0.296,0.022,-0.959,-0.244,1328276
-0.296,0.022,-0.959,-0.305,1328281
-0.296,0.021,-0.96,-0.183,1328286
-0.296,0.021,-0.96,-0.305,1328291
-0.296,0.021,-0.958,-0.244,1328297
-0.296,0.021,-0.958,-0.122,1328302
-0.297,0.022,-0.959,-0.061,1328307
-0.296,0.022,-0.958,-0.427,1328313
-0.296,0.022,-0.958,-0.244,1328318
-0.296,0.022,-0.958,-0.183,1328323
-0.296,0.022,-0.958,-0.244,1328328
-0.296,0.023,-0.958,-0.183,1328334
-0.296,0.023,-0.958,-0.183,1328339
-0.297,0.024,-0.961,-0.244,1328344
-0.297,0.024,-0.961,-0.244,1328349
-0.296,0.024,-0.958,-0.244,1328355
-0.296,0.024,-0.958,-0.244,1328360
-0.297,0.024,-0.958,-0.183,1328365
-0.297,0.024,-0.958,-0.183,1328370
-0.296,0.021,-0.957,-0.305,1328376
-0.296,0.021,-0.957,-0.244,1328381
-0.296,0.022,-0.96,-0.122,1328386
-0.296,0.022,-0.96,-0.183,1328391
-0.296,0.022,-0.96,-0.244,1328397
-0.295,0.022,-0.958,-0.183,1328402
-0.295,0.022,-0.958,-0.061,1328407
-0.297,0.024,-0.959,-0.244,1328412
-0.297,0.024,-0.959,-0.305,1328418
-0.298,0.022,-0.958,-0.122,1328423
-0.298,0.022,-0.958,-0.244,1328428
-0.294,0.023,-0.959,-0.244,1328433
-0.294,0.023,-0.959,-0.183,1328439
-0.296,0.021,-0.959,-0.122,1328444
-0.296,0.021,-0.959,-0.244,1328449
-0.298,0.022,-0.958,-0.244,1328454
-0.298,0.022,-0.958,-0.305,1328460
-0.296,0.021,-0.959,-0.183,1328465
-0.296,0.021,-0.959,-0.122,1328470
-0.295,0.023,-0.958,-0.183,1328475
-0.295,0.023,-0.958,-0.183,1328481
-0.294,0.022,-0.958,-0.305,1328486
-0.296,0.021,-0.96,-0.244,1328491
-0.296,0.021,-0.96,-0.244,1328496
-0.297,0.022,-0.959,-0.366,1328502
-0.297,0.022,-0.959,-0.183,1328507
-0.298,0.021,-0.959,-0.122,1328512
-0.298,0.021,-0.959,-0.122,1328517
-0.297,0.021,-0.959,-0.183,1328523
-0.297,0.021,-0.959,-0.122,1328528
-0.296,0.021,-0.956,-0.122,1328533
-0.296,0.021,-0.956,-0.183,1328538
-0.296,0.022,-0.958,-0.122,1328544
-0.296,0.022,-0.958,-0.122,1328549
-0.296,0.021,-0.958,-0.183,1328554
-0.296,0.021,-0.958,-0.183,1328560
-0.297,0.022,-0.959,-0.183,1328565
-0.297,0.022,-0.959,-0.122,1328570
-0.297,0.023,-0.959,-0.305,1328575
-0.295,0.024,-0.958,-0.183,1328581
-0.295,0.024,-0.958,0.0,1328586
-0.297,0.022,-0.958,-0.183,1328591
-0.297,0.022,-0.958,-0.366,1328596
-0.296,0.023,-0.959,-0.244,1328601
-0.296,0.023,-0.959,-0.244,1328607
-0.297,0.022,-0.959,-0.122,1328612
-0.297,0.022,-0.959,-0.122,1328617
-0.297,0.021,-0.959,-0.244,1328622
-0.297,0.021,-0.959,-0.244,1328628
-0.294,0.022,-0.959,-0.305,1328633
-0.294,0.022,-0.959,-0.244,1328638
-0.295,0.023,-0.957,-0.183,1328643
-0.295,0.023,-0.957,-0.244,1328649
-0.296,0.022,-0.959,-0.244,1328654
-0.296,0.022,-0.959,-0.244,1328659
-0.296,0.021,-0.96,-0.122,1328664
-0.297,0.022,-0.958,-0.061,1328670
-0.297,0.022,-0.958,-0.244,1328675
-0.294,0.022,-0.959,-0.122,1328680
-0.294,0.022,-0.959,-0.244,1328686
-0.294,0.023,-0.958,-0.244,1328691
-0.294,0.023,-0.958,-0.305,1328696
-0.297,0.023,-0.96,-0.244,1328701
-0.297,0.023,-0.96,-0.305,1328707
-0.298,0.024,-0.958,-0.244,1328712
-0.298,0.024,-0.958,-0.061,1328717
-0.298,0.022,-0.957,-0.122,1328722
-0.298,0.022,-0.957,-0.244,1328728
-0.297,0.022,-0.96,-0.183,1328733
-0.297,0.022,-0.96,-0.122,1328738
-0.297,0.024,-0.959,-0.244,1328743
-0.297,0.024,-0.959,-0.061,1328749
-0.296,0.022,-0.959,-0.061,1328754
-0.298,0.022,-0.957,-0.122,1328759
-0.298,0.022,-0.957,-0.061,1328764
-0.297,0.023,-0.958,-0.244,1328770
-0.297,0.023,-0.958,-0.244,1328775
-0.298,0.022,-0.959,-0.366,1328780
-0.298,0.022,-0.959,-0.244,1328785
-0.297,0.022,-0.958,-0.183,1328791
-0.297,0.022,-0.958,-0.183,1328796
-0.296,0.023,-0.959,-0.244,1328801
-0.296,0.023,-0.959,-0.244,1328806
-0.294,0.023,-0.959,-0.244,1328812
-0.294,0.023,-0.959,-0.305,1328817
-0.295,0.023,-0.959,-0.244,1328822
-0.295,0.023,-0.959,-0.183,1328827
-0.297,0.023,-0.959,-0.183,1328833
-0.297,0.023,-0.959,-0.183,1328838
-0.297,0.023,-0.958,-0.244,1328843
-0.297,0.022,-0.958,-0.122,1328848
-0.297,0.022,-0.958,-0.183,1328854
-0.296,0.023,-0.96,-0.183,1328859
-0.296,0.023,-0.96,-0.244,1328864
-0.298,0.022,-0.96,-0.244,1328869
-0.298,0.022,-0.96,-0.183,1328875
-0.295,0.023,-0.959,-0.305,1328880
-0.295,0.023,-0.959,-0.122,1328885
-0.295,0.021,-0.959,-0.061,1328890
-0.295,0.021,-0.959,-0.244,1328896
-0.298,0.021,-0.96,-0.244,1328901
-0.298,0.021,-0.96,-0.244,1328906
-0.297,0.021,-0.96,-0.061,1328911
-0.297,0.021,-0.96,-0.183,1328917
-0.297,0.022,-0.958,-0.244,1328922
-0.297,0.022,-0.958,-0.244,1328927
-0.297,0.023,-0.958,-0.122,1328932
-0.297,0.022,-0.959,-0.305,1328938
-0.297,0.022,-0.959,-0.305,1328943
-0.295,0.021,-0.959,-0.244,1328948
-0.295,0.021,-0.959,-0.183,1328953
-0.296,0.021,-0.958,-0.061,1328959
-0.296,0.021,-0.958,-0.122,1328964
-0.295,0.02,-0.958,-0.183,1328969
-0.295,0.02,-0.958,-0.366,1328974
-0.296,0.022,-0.959,-0.183,1328980
-0.296,0.022,-0.959,-0.244,1328985
-0.296,0.022,-0.958,-0.366,1328990
-0.296,0.022,-0.958,-0.244,1328996
-0.297,0.022,-0.96,-0.122,1329001
-0.297,0.022,-0.96,-0.061,1329006
-0.297,0.023,-0.958,-0.183,1329011
-0.297,0.022,-0.956,-0.183,1329017
-0.297,0.022,-0.956,-0.183,1329022
-0.296,0.023,-0.956,-0.122,1329027
-0.296,0.023,-0.956,-0.244,1329032
-0.296,0.024,-0.958,-0.244,1329038
-0.296,0.024,-0.958,-0.183,1329043
-0.297,0.023,-0.958,-0.122,1329048
-0.297,0.023,-0.958,-0.061,1329053
-0.297,0.022,-0.96,-0.244,1329059
-0.297,0.022,-0.96,-0.244,1329064
-0.298,0.023,-0.958,-0.122,1329069
-0.298,0.023,-0.958,-0.122,1329074
-0.295,0.022,-0.959,-0.183,1329080
-0.295,0.022,-0.959,-0.122,1329085
-0.296,0.024,-0.961,-0.183,1329090
-0.296,0.024,-0.961,-0.183,1329095
-0.296,0.023,-0.958,-0.244,1329101
-0.296,0.023,-0.958,-0.183,1329106
-0.296,0.023,-0.958,-0.122,1329111
-0.297,0.022,-0.958,-0.061,1329116
-0.297,0.022,-0.958,-0.183,1329122
-0.296,0.024,-0.958,-0.183,1329127
-0.296,0.024,-0.958,-0.122,1329132
-0.297,0.022,-0.959,-0.122,1329137
-0.297,0.022,-0.959,-0.183,1329143
-0.296,0.022,-0.958,-0.061,1329148
-0.296,0.022,-0.958,-0.122,1329153
-0.297,0.021,-0.959,-0.122,1329158
-0.297,0.021,-0.959,-0.122,1329164
-0.295,0.022,-0.958,-0.122,1329169
-0.295,0.022,-0.958,-0.244,1329174
-0.296,0.024,-0.958,-0.183,1329179
-0.296,0.024,-0.958,-0.183,1329185
-0.297,0.023,-0.959,-0.183,1329190
-0.297,0.022,-0.958,-0.122,1329195
-0.297,0.022,-0.958,-0.244,1329200
-0.297,0.024,-0.958,-0.183,1329206
-0.297,0.024,-0.958,-0.244,1329211
-0.298,0.023,-0.959,-0.244,1329216
-0.298,0.023,-0.959,-0.244,1329221
-0.297,0.021,-0.958,-0.122,1329227
-0.297,0.021,-0.958,-0.183,1329232
-0.297,0.022,-0.959,-0.122,1329237
-0.297,0.022,-0.959,-0.061,1329242
-0.296,0.023,-0.96,-0.183,1329248
-0.296,0.023,-0.96,-0.183,1329253
-0.295,0.022,-0.959,-0.305,1329258
-0.295,0.022,-0.959,-0.244,1329263
-0.296,0.022,-0.958,-0.183,1329269
-0.296,0.022,-0.958,-0.122,1329274
-0.298,0.021,-0.959,-0.061,1329279
-0.297,0.021,-0.959,-0.183,1329284
-0.297,0.021,-0.959,-0.183,1329290
-0.297,0.022,-0.959,-0.183,1329295
-0.297,0.022,-0.959,-0.122,1329300
-0.297,0.022,-0.958,-0.244,1329306
-0.297,0.022,-0.958,-0.305,1329311
-0.297,0.022,-0.958,-0.366,1329316
-0.297,0.022,-0.958,-0.244,1329321
-0.298,0.023,-0.958,-0.244,1329327
-0.298,0.023,-0.958,-0.305,1329332
-0.297,0.022,-0.958,-0.305,1329337
-0.297,0.022,-0.958,-0.183,1329342
-0.297,0.023,-0.959,-0.305,1329348
-0.297,0.023,-0.959,-0.244,1329353
-0.296,0.022,-0.958,-0.244,1329358
-0.296,0.022,-0.958,-0.183,1329363
-0.296,0.022,-0.959,-0.305,1329369
-0.296,0.023,-0.959,-0.244,1329374
-0.296,0.023,-0.959,-0.183,1329379
-0.297,0.023,-0.958,-0.244,1329384
-0.297,0.023,-0.958,-0.305,1329390
-0.295,0.022,-0.957,-0.183,1329395
-0.295,0.022,-0.957,-0.183,1329400
-0.297,0.022,-0.958,-0.183,1329405
-0.297,0.022,-0.958,-0.183,1329411
-0.295,0.023,-0.961,-0.305,1329416
-0.295,0.023,-0.961,-0.244,1329421
-0.295,0.023,-0.96,-0.244,1329426
-0.295,0.023,-0.96,-0.183,1329432
-0.297,0.023,-0.958,-0.183,1329437
-0.297,0.023,-0.958,-0.183,1329442
-0.298,0.023,-0.958,-0.183,1329447
-0.298,0.023,-0.958,-0.305,1329453
-0.296,0.022,-0.958,-0.183,1329458
-0.297,0.022,-0.959,-0.122,1329463
-0.297,0.022,-0.959,-0.244,1329468
-0.297,0.023,-0.958,-0.244,1329474
-0.297,0.023,-0.958,-0.183,1329479
-0.297,0.022,-0.957,-0.305,1329484
-0.297,0.022,-0.957,-0.183,1329489
-0.297,0.021,-0.958,-0.122,1329495
-0.297,0.021,-0.958,-0.122,1329500
-0.297,0.023,-0.959,-0.305,1329505
-0.297,0.023,-0.959,-0.305,1329510
-0.296,0.024,-0.958,-0.183,1329516
-0.296,0.024,-0.958,-0.305,1329521
-0.298,0.023,-0.958,-0.122,1329526
-0.298,0.023,-0.958,-0.122,1329531
-0.297,0.023,-0.958,-0.244,1329537
-0.297,0.023,-0.958,-0.183,1329542
-0.296,0.022,-0.961,-0.183,1329547
-0.297,0.021,-0.958,-0.183,1329552
-0.297,0.021,-0.958,-0.244,1329558
-0.297,0.023,-0.958,-0.183,1329563
-0.297,0.023,-0.958,-0.183,1329568
-0.297,0.022,-0.958,-0.305,1329573
-0.297,0.022,-0.958,-0.183,1329579
-0.296,0.022,-0.958,-0.183,1329584
-0.296,0.022,-0.958,-0.244,1329589
-0.296,0.023,-0.958,-0.183,1329594
-0.296,0.023,-0.958,-0.183,1329600
-0.298,0.022,-0.958,-0.183,1329605
-0.298,0.022,-0.958,-0.122,1329610
-0.298,0.021,-0.958,-0.122,1329615
-0.298,0.021,-0.958,-0.244,1329621
-0.298,0.023,-0.955,-0.122,1329626
-0.298,0.023,-0.955,-0.183,1329631
-0.297,0.024,-0.957,-0.122,1329636
-0.297,0.023,-0.957,-0.183,1329642
-0.297,0.023,-0.957,-0.244,1329647
-0.297,0.021,-0.959,-0.305,1329652
-0.297,0.021,-0.959,-0.183,1329658
-0.296,0.021,-0.96,-0.061,1329663
-0.296,0.021,-0.96,-0.244,1329668
-0.297,0.022,-0.959,-0.244,1329673
-0.297,0.022,-0.959,-0.244,1329679
-0.296,0.023,-0.959,-0.183,1329684
-0.296,0.023,-0.959,-0.183,1329689
-0.296,0.023,-0.958,-0.244,1329694
-0.296,0.023,-0.958,-0.122,1329700
-0.297,0.022,-0.958,-0.183,1329705
-0.297,0.022,-0.958,-0.244,1329710
-0.297,0.022,-0.959,-0.122,1329715
-0.297,0.022,-0.959,-0.122,1329721
-0.297,0.023,-0.959,-0.244,1329726
-0.295,0.024,-0.958,-0.366,1329731
-0.295,0.024,-0.958,-0.305,1329736
-0.295,0.023,-0.959,-0.122,1329742
-0.295,0.023,-0.959,-0.183,1329747
-0.296,0.022,-0.959,-0.061,1329752
-0.296,0.022,-0.959,-0.122,1329757
-0.297,0.022,-0.957,-0.122,1329763
-0.297,0.022,-0.957,-0.305,1329768
-0.294,0.022,-0.959,-0.244,1329773
-0.294,0.022,-0.959,-0.122,1329778
-0.297,0.022,-0.959,-0.122,1329784
-0.297,0.022,-0.959,-0.122,1329789
-0.297,0.022,-0.958,-0.244,1329794
-0.297,0.022,-0.958,-0.122,1329799
-0.297,0.021,-0.959,-0.183,1329805
-0.297,0.021,-0.959,-0.122,1329810
-0.295,0.023,-0.958,-0.366,1329815
-0.296,0.023,-0.958,-0.183,1329820
-0.296,0.023,-0.958,-0.244,1329826
-0.296,0.022,-0.957,-0.183,1329831
-0.296,0.022,-0.957,-0.183,1329836
-0.297,0.022,-0.958,-0.305,1329841
-0.297,0.022,-0.958,-0.183,1329847
-0.296,0.021,-0.958,-0.122,1329852
-0.296,0.021,-0.958,-0.183,1329857
-0.297,0.02,-0.958,-0.244,1329862
-0.297,0.02,-0.958,-0.183,1329868
-0.296,0.021,-0.959,-0.183,1329873
-0.296,0.021,-0.959,-0.122,1329878
-0.297,0.021,-0.959,-0.122,1329883
-0.297,0.021,-0.959,-0.244,1329889
-0.298,0.021,-0.958,-0.183,1329894
-0.298,0.021,-0.958,-0.183,1329899
-0.296,0.021,-0.958,-0.244,1329904
-0.296,0.022,-0.958,-0.122,1329910
-0.296,0.022,-0.958,-0.122,1329915
-0.297,0.022,-0.958,-0.244,1329920
-0.297,0.022,-0.958,-0.305,1329926
-0.297,0.022,-0.958,-0.183,1329931
-0.297,0.022,-0.958,-0.061,1329936
-0.297,0.023,-0.958,-0.244,1329941
-0.297,0.023,-0.958,-0.183,1329947
-0.296,0.023,-0.96,-0.122,1329952
-0.296,0.023,-0.96,-0.122,1329957
-0.295,0.023,-0.959,-0.122,1329962
-0.295,0.023,-0.959,-0.183,1329968
-0.296,0.023,-0.958,-0.305,1329973
-0.296,0.023,-0.958,-0.305,1329978
-0.295,0.023,-0.958,-0.244,1329983
-0.295,0.023,-0.958,-0.305,1329989
-0.296,0.024,-0.959,-0.061,1329994
-0.297,0.024,-0.958,-0.305,1329999
-0.297,0.024,-0.958,-0.366,1330004
-0.296,0.022,-0.959,-0.244,1330010
-0.296,0.022,-0.959,-0.244,1330015
-0.296,0.022,-0.959,-0.122,1330020
-0.296,0.022,-0.959,-0.244,1330025
-0.295,0.021,-0.958,-0.244,1330031
-0.295,0.021,-0.958,-0.244,1330036
-0.295,0.022,-0.959,-0.244,1330041
-0.295,0.022,-0.959,-0.183,1330046
-0.298,0.023,-0.958,-0.183,1330052
-0.298,0.023,-0.958,-0.244,1330057
-0.296,0.023,-0.958,-0.244,1330062
-0.296,0.023,-0.958,-0.183,1330067
-0.296,0.023,-0.958,-0.244,1330073
-0.297,0.022,-0.957,-0.183,1330078
-0.297,0.022,-0.957,-0.305,1330083
-0.297,0.023,-0.959,-0.183,1330088
-0.297,0.023,-0.959,-0.244,1330094
-0.296,0.021,-0.958,-0.305,1330099
-0.296,0.021,-0.958,-0.183,1330104
-0.297,0.021,-0.958,-0.183,1330109
-0.297,0.021,-0.958,-0.183,1330115
-0.297,0.021,-0.958,-0.305,1330120
-0.297,0.021,-0.958,-0.366,1330125
-0.296,0.021,-0.957,-0.244,1330130
-0.296,0.021,-0.957,-0.305,1330136
-0.296,0.022,-0.958,-0.244,1330141
-0.296,0.022,-0.958,-0.183,1330146
-0.296,0.021,-0.96,-0.183,1330151
-0.296,0.021,-0.96,-0.122,1330157
-0.297,0.022,-0.958,-0.183,1330162
-0.296,0.021,-0.958,-0.122,1330167
-0.296,0.021,-0.958,-0.122,1330172
-0.296,0.021,-0.958,-0.183,1330178
-0.296,0.021,-0.958,-0.244,1330183
-0.296,0.022,-0.959,-0.183,1330188
-0.296,0.022,-0.959,-0.366,1330193
-0.296,0.022,-0.96,-0.305,1330199
-0.296,0.022,-0.96,-0.244,1330204
-0.296,0.022,-0.96,-0.244,1330209
-0.296,0.022,-0.96,-0.244,1330214
-0.295,0.023,-0.958,-0.305,1330220
-0.295,0.023,-0.958,-0.183,1330225
-0.297,0.022,-0.96,-0.244,1330230
-0.297,0.022,-0.96,-0.122,1330236
-0.296,0.023,-0.958,-0.122,1330241
-0.296,0.023,-0.958,-0.244,1330246
-0.296,0.022,-0.958,-0.183,1330251
-0.298,0.022,-0.959,-0.122,1330257
-0.298,0.022,-0.959,-0.244,1330262
-0.296,0.021,-0.96,-0.183,1330267
-0.296,0.021,-0.96,-0.244,1330272
-0.295,0.023,-0.959,-0.122,1330278
-0.295,0.023,-0.959,-0.122,1330283
-0.298,0.024,-0.958,-0.122,1330288
-0.298,0.024,-0.958,-0.183,1330293
-0.295,0.022,-0.958,-0.244,1330299
-0.295,0.022,-0.958,-0.305,1330304
-0.296,0.023,-0.958,-0.183,1330309
-0.296,0.023,-0.958,-0.122,1330314
-0.297,0.022,-0.957,-0.122,1330320
-0.297,0.022,-0.957,-0.183,1330325
-0.296,0.021,-0.958,-0.183,1330330
-0.296,0.021,-0.958,-0.122,1330335
-0.298,0.022,-0.958,-0.122,1330341
-0.298,0.023,-0.96,-0.061,1330346
-0.298,0.023,-0.96,-0.183,1330351
-0.297,0.022,-0.959,-0.305,1330356
-0.297,0.022,-0.959,-0.305,1330362
-0.297,0.023,-0.959,-0.244,1330367
-0.297,0.023,-0.959,0.0,1330372
-0.297,0.023,-0.958,-0.061,1330377
-0.297,0.023,-0.958,-0.183,1330383
-0.298,0.022,-0.958,-0.183,1330388
-0.298,0.022,-0.958,-0.122,1330393
-0.297,0.022,-0.958,-0.244,1330398
-0.297,0.022,-0.958,-0.183,1330404
-0.297,0.023,-0.958,-0.183,1330409
-0.297,0.023,-0.958,-0.122,1330414
-0.295,0.021,-0.958,-0.122,1330419
-0.295,0.021,-0.958,-0.244,1330425
-0.296,0.021,-0.96,-0.122,1330430
-0.296,0.022,-0.959,-0.244,1330435
-0.296,0.022,-0.959,-0.183,1330440
-0.296,0.022,-0.958,-0.183,1330446
-0.296,0.022,-0.958,-0.183,1330451
-0.296,0.023,-0.958,-0.183,1330456
-0.296,0.023,-0.958,-0.244,1330461
-0.298,0.022,-0.958,-0.183,1330467
-0.298,0.022,-0.958,-0.305,1330472
-0.297,0.022,-0.961,-0.183,1330477
-0.297,0.022,-0.961,-0.061,1330482
-0.295,0.022,-0.96,-0.061,1330488
-0.295,0.022,-0.96,-0.183,1330493
-0.296,0.024,-0.957,-0.183,1330498
-0.296,0.024,-0.957,-0.183,1330503
-0.298,0.022,-0.957,-0.122,1330509
-0.298,0.022,-0.957,-0.183,1330514
-0.297,0.021,-0.959,-0.244,1330519
-0.297,0.023,-0.958,-0.244,1330524
-0.297,0.023,-0.958,-0.244,1330530
-0.297,0.023,-0.958,-0.183,1330535
-0.297,0.023,-0.958,-0.183,1330540
-0.295,0.024,-0.959,-0.183,1330545
-0.295,0.024,-0.959,-0.122,1330551
-0.296,0.022,-0.959,-0.183,1330556
-0.296,0.022,-0.959,-0.366,1330561
-0.297,0.024,-0.958,-0.183,1330566
-0.297,0.024,-0.958,-0.122,1330572
-0.297,0.024,-0.959,-0.183,1330577
-0.297,0.024,-0.959,-0.305,1330582
-0.297,0.023,-0.959,-0.183,1330587
-0.297,0.023,-0.959,-0.183,1330593
-0.296,0.023,-0.958,-0.244,1330598
-0.296,0.023,-0.958,-0.122,1330603
-0.297,0.023,-0.958,-0.244,1330608
-0.296,0.023,-0.959,-0.244,1330614
-0.296,0.023,-0.959,-0.244,1330619
-0.297,0.023,-0.959,-0.244,1330624
-0.297,0.023,-0.959,-0.122,1330629
-0.295,0.021,-0.959,-0.122,1330635
-0.295,0.021,-0.959,-0.122,1330640
-0.297,0.022,-0.959,-0.183,1330645
-0.297,0.022,-0.959,-0.305,1330651
-0.296,0.022,-0.96,-0.183,1330656
-0.296,0.022,-0.96,-0.061,1330661
-0.295,0.021,-0.959,-0.122,1330666
-0.295,0.021,-0.959,-0.183,1330672
-0.297,0.022,-0.96,-0.244,1330677
-0.297,0.022,-0.96,-0.183,1330682
-0.297,0.022,-0.958,-0.427,1330687
-0.297,0.022,-0.958,-0.244,1330693
-0.297,0.021,-0.958,-0.244,1330698
-0.294,0.022,-0.958,-0.122,1330703
-0.294,0.022,-0.958,-0.183,1330708
-0.294,0.023,-0.958,-0.244,1330714
-0.294,0.023,-0.958,-0.244,1330719
-0.295,0.022,-0.958,-0.244,1330724
-0.295,0.022,-0.958,-0.122,1330729
-0.298,0.021,-0.957,-0.183,1330735
-0.298,0.021,-0.957,-0.183,1330740
-0.296,0.02,-0.957,-0.183,1330745
-0.296,0.02,-0.957,-0.244,1330750
-0.296,0.02,-0.959,-0.183,1330756
-0.296,0.02,-0.959,-0.183,1330761
-0.298,0.022,-0.959,-0.244,1330766
-0.298,0.022,-0.959,-0.122,1330771
-0.297,0.022,-0.957,-0.122,1330777
-0.297,0.022,-0.957,-0.122,1330782
-0.297,0.022,-0.959,-0.244,1330787
-0.298,0.021,-0.959,-0.183,1330792
-0.298,0.021,-0.959,-0.122,1330798
-0.297,0.024,-0.958,-0.183,1330803
-0.297,0.024,-0.958,-0.183,1330808
-0.298,0.023,-0.958,-0.183,1330813
-0.298,0.023,-0.958,-0.183,1330819
-0.296,0.022,-0.959,-0.183,1330824
-0.296,0.022,-0.959,-0.183,1330829
-0.295,0.023,-0.957,-0.183,1330834
-0.295,0.023,-0.957,-0.061,1330840
-0.296,0.025,-0.958,-0.244,1330845
-0.296,0.025,-0.958,-0.305,1330850
-0.297,0.024,-0.961,-0.244,1330855
-0.297,0.024,-0.961,-0.244,1330861
-0.296,0.022,-0.96,-0.183,1330866
-0.296,0.022,-0.96,-0.244,1330871
-0.295,0.022,-0.958,-0.244,1330876
-0.295,0.022,-0.959,-0.183,1330882
-0.295,0.022,-0.959,-0.122,1330887
-0.297,0.022,-0.959,-0.122,1330892
-0.297,0.022,-0.959,-0.061,1330897
-0.297,0.022,-0.958,-0.122,1330903
-0.297,0.022,-0.958,-0.061,1330908
-0.297,0.022,-0.958,-0.183,1330913
-0.297,0.022,-0.958,-0.366,1330918
-0.296,0.023,-0.959,-0.244,1330924
-0.296,0.023,-0.959,-0.183,1330929
-0.294,0.023,-0.959,-0.305,1330934
-0.294,0.023,-0.959,-0.244,1330940
-0.296,0.023,-0.958,-0.305,1330945
-0.296,0.023,-0.958,-0.183,1330950
-0.295,0.023,-0.957,-0.244,1330955
-0.295,0.023,-0.957,-0.244,1330961
-0.297,0.021,-0.957,-0.305,1330966
-0.297,0.022,-0.958,-0.122,1330971
-0.297,0.022,-0.958,-0.244,1330976
-0.297,0.023,-0.958,-0.244,1330982
-0.297,0.023,-0.958,-0.122,1330987
-0.297,0.02,-0.957,-0.122,1330992
-0.297,0.02,-0.957,-0.183,1330997
-0.297,0.019,-0.958,-0.061,1331003
-0.297,0.019,-0.958,-0.183,1331008
-0.297,0.02,-0.959,-0.183,1331013
-0.297,0.02,-0.959,-0.183,1331018
-0.296,0.021,-0.958,-0.305,1331024
-0.296,0.021,-0.958,-0.183,1331029
-0.297,0.021,-0.958,-0.305,1331034
-0.297,0.021,-0.958,-0.366,1331039
-0.296,0.021,-0.959,-0.244,1331045
-0.295,0.022,-0.958,-0.122,1331050
-0.295,0.022,-0.958,-0.122,1331055
-0.296,0.021,-0.957,-0.122,1331060
-0.296,0.021,-0.957,-0.244,1331066
-0.297,0.021,-0.958,-0.183,1331071
-0.297,0.021,-0.958,-0.122,1331076
-0.296,0.023,-0.958,-0.122,1331081
-0.296,0.023,-0.958,-0.061,1331087
-0.296,0.024,-0.958,-0.122,1331092
-0.296,0.024,-0.958,-0.244,1331097
-0.299,0.024,-0.958,-0.244,1331102
-0.299,0.024,-0.958,-0.122,1331108
-0.298,0.024,-0.961,-0.183,1331113
-0.298,0.024,-0.961,-0.305,1331118
-0.297,0.025,-0.959,-0.305,1331123
-0.297,0.025,-0.959,-0.366,1331129
-0.297,0.025,-0.957,-0.366,1331134
-0.297,0.024,-0.958,-0.244,1331139
-0.297,0.024,-0.958,-0.183,1331144
-0.295,0.023,-0.959,-0.244,1331150
-0.295,0.023,-0.959,-0.244,1331155
-0.296,0.023,-0.961,-0.305,1331160
-0.296,0.023,-0.961,-0.244,1331165
-0.295,0.023,-0.959,-0.366,1331171
-0.295,0.023,-0.959,-0.183,1331176
-0.295,0.023,-0.959,-0.122,1331181
-0.295,0.023,-0.959,-0.183,1331186
-0.295,0.023,-0.958,-0.183,1331192
-0.295,0.023,-0.958,-0.122,1331197
-0.294,0.023,-0.96,-0.183,1331202
-0.294,0.023,-0.96,-0.244,1331207
-0.296,0.021,-0.96,-0.183,1331213
-0.296,0.021,-0.96,-0.244,1331218
-0.294,0.022,-0.958,-0.183,1331223
-0.295,0.021,-0.958,-0.305,1331228
-0.295,0.021,-0.958,-0.244,1331234
-0.296,0.022,-0.958,-0.244,1331239
-0.296,0.022,-0.958,-0.427,1331244
-0.297,0.022,-0.959,-0.244,1331249
-0.297,0.022,-0.959,-0.244,1331255
-0.297,0.02,-0.959,-0.183,1331260
-0.297,0.02,-0.959,-0.122,1331265
-0.296,0.021,-0.959,-0.183,1331271
-0.296,0.021,-0.959,-0.244,1331276
-0.296,0.021,-0.959,-0.183,1331281
-0.296,0.021,-0.959,-0.122,1331286
-0.296,0.022,-0.957,-0.244,1331292
-0.296,0.022,-0.957,-0.305,1331297
-0.297,0.02,-0.959,-0.305,1331302
-0.297,0.02,-0.959,-0.244,1331307
-0.297,0.021,-0.959,-0.183,1331313
-0.296,0.021,-0.959,-0.183,1331318
-0.296,0.021,-0.959,-0.183,1331323
-0.297,0.021,-0.958,-0.183,1331328
-0.297,0.021,-0.958,-0.122,1331334
-0.297,0.022,-0.959,-0.061,1331339
-0.297,0.022,-0.959,-0.244,1331344
-0.296,0.022,-0.959,-0.183,1331349
-0.296,0.022,-0.959,-0.122,1331355
-0.297,0.025,-0.959,-0.183,1331360
-0.297,0.025,-0.959,-0.244,1331365
-0.298,0.025,-0.959,-0.183,1331370
-0.298,0.025,-0.959,-0.244,1331376
-0.299,0.026,-0.96,-0.183,1331381
-0.299,0.026,-0.96,-0.122,1331386
-0.297,0.027,-0.96,-0.183,1331391
-0.297,0.027,-0.96,-0.183,1331397
-0.298,0.026,-0.958,-0.183,1331402
-0.298,0.027,-0.958,-0.366,1331407
-0.298,0.027,-0.958,-0.244,1331412
-0.298,0.027,-0.959,-0.183,1331418
-0.298,0.027,-0.959,-0.305,1331423
-0.298,0.027,-0.96,-0.305,1331428
-0.298,0.027,-0.96,-0.427,1331433
-0.296,0.025,-0.959,-0.305,1331439
-0.296,0.025,-0.959,-0.366,1331444
-0.297,0.025,-0.958,-0.244,1331449
-0.297,0.025,-0.958,-0.244,1331454
-0.298,0.024,-0.959,-0.183,1331460
-0.298,0.024,-0.959,-0.244,1331465
-0.295,0.023,-0.958,-0.244,1331470
-0.295,0.023,-0.958,-0.305,1331475
-0.294,0.021,-0.958,-0.244,1331481
-0.294,0.021,-0.958,-0.366,1331486
-0.295,0.02,-0.959,-0.244,1331491
-0.295,0.019,-0.959,-0.244,1331496
-0.295,0.019,-0.959,-0.244,1331502
-0.296,0.02,-0.959,-0.244,1331507
-0.296,0.02,-0.959,-0.366,1331512
-0.295,0.018,-0.958,-0.305,1331518
-0.295,0.018,-0.958,-0.183,1331523
-0.294,0.018,-0.957,-0.183,1331528
-0.294,0.018,-0.957,-0.244,1331533
-0.295,0.017,-0.958,-0.305,1331539
-0.295,0.017,-0.958,-0.183,1331544
-0.295,0.018,-0.958,-0.183,1331549
-0.295,0.018,-0.958,-0.183,1331554
-0.296,0.018,-0.958,-0.122,1331560
-0.296,0.018,-0.958,-0.183,1331565
-0.299,0.018,-0.958,-0.183,1331570
-0.299,0.018,-0.958,-0.183,1331575
-0.296,0.019,-0.958,-0.183,1331581
-0.297,0.021,-0.957,-0.183,1331586
-0.297,0.021,-0.957,-0.061,1331591
-0.297,0.02,-0.958,-0.183,1331596
-0.297,0.02,-0.958,0.0,1331602
-0.297,0.021,-0.958,-0.183,1331607
-0.297,0.021,-0.958,-0.366,1331612
-0.297,0.021,-0.958,-0.305,1331617
-0.297,0.021,-0.958,-0.244,1331623
-0.298,0.022,-0.958,-0.244,1331628
-0.298,0.022,-0.958,-0.061,1331633
-0.297,0.022,-0.958,-0.122,1331638
-0.297,0.022,-0.958,-0.183,1331644
-0.297,0.024,-0.96,-0.305,1331649
-0.297,0.024,-0.96,-0.305,1331654
-0.297,0.025,-0.961,-0.244,1331659
-0.297,0.025,-0.961,-0.183,1331665
-0.296,0.025,-0.958,-0.183,1331670
-0.296,0.024,-0.959,-0.244,1331675
-0.296,0.024,-0.959,-0.183,1331680
-0.297,0.025,-0.958,0.0,1331685
-0.297,0.025,-0.958,-0.122,1331691
-0.296,0.028,-0.959,-0.305,1331696
-0.296,0.028,-0.959,-0.366,1331701
-0.297,0.028,-0.958,-0.305,1331706
-0.297,0.028,-0.958,-0.305,1331712
-0.297,0.026,-0.959,-0.183,1331717
-0.297,0.026,-0.959,-0.061,1331722
-0.298,0.027,-0.959,-0.305,1331727
-0.298,0.027,-0.959,-0.244,1331733
-0.297,0.027,-0.96,-0.122,1331738
-0.297,0.027,-0.96,-0.305,1331743
-0.298,0.023,-0.959,-0.305,1331748
-0.298,0.023,-0.959,-0.305,1331754
-0.296,0.024,-0.959,-0.244,1331759
-0.297,0.023,-0.959,-0.305,1331764
-0.297,0.023,-0.959,-0.305,1331770
-0.296,0.022,-0.958,-0.305,1331775
-0.296,0.022,-0.958,-0.244,1331780
-0.296,0.022,-0.959,-0.244,1331785
-0.296,0.022,-0.959,-0.305,1331791
-0.297,0.023,-0.958,-0.183,1331796
-0.297,0.023,-0.958,-0.244,1331801
-0.297,0.021,-0.957,-0.305,1331806
-0.297,0.021,-0.957,-0.244,1331812
-0.295,0.021,-0.956,-0.183,1331817
-0.295,0.021,-0.956,-0.183,1331822
-0.297,0.021,-0.958,-0.244,1331827
-0.297,0.021,-0.958,-0.122,1331833
-0.297,0.019,-0.957,-0.122,1331838
-0.297,0.019,-0.957,-0.183,1331843
-0.297,0.018,-0.957,-0.122,1331848
-0.296,0.02,-0.958,-0.122,1331854
-0.296,0.02,-0.958,-0.122,1331859
-0.297,0.019,-0.958,-0.061,1331864
-0.297,0.019,-0.958,-0.122,1331869
-0.295,0.021,-0.958,-0.122,1331875
-0.295,0.021,-0.958,-0.122,1331880
-0.296,0.019,-0.959,-0.122,1331885
-0.296,0.019,-0.959,-0.061,1331890
-0.297,0.02,-0.958,-0.122,1331896
-0.297,0.02,-0.958,-0.183,1331901
-0.297,0.021,-0.958,-0.183,1331906
-0.297,0.021,-0.958,-0.122,1331911
-0.297,0.02,-0.958,-0.183,1331917
-0.297,0.02,-0.958,-0.244,1331922
-0.297,0.021,-0.958,-0.183,1331927
-0.297,0.021,-0.958,-0.244,1331932
-0.296,0.021,-0.959,-0.183,1331938
-0.296,0.022,-0.958,-0.122,1331943
-0.296,0.022,-0.958,-0.122,1331948
-0.297,0.023,-0.959,-0.183,1331953
-0.297,0.023,-0.959,-0.244,1331959
-0.297,0.025,-0.96,-0.244,1331964
-0.297,0.025,-0.96,-0.061,1331969
-0.298,0.023,-0.958,-0.183,1331974
-0.298,0.023,-0.958,-0.183,1331980
-0.297,0.026,-0.959,-0.122,1331985
-0.297,0.026,-0.959,-0.183,1331990
-0.297,0.026,-0.96,-0.244,1331995
-0.297,0.026,-0.96,-0.244,1332001
-0.299,0.026,-0.959,-0.183,1332006
-0.299,0.026,-0.959,-0.183,1332011
-0.297,0.025,-0.959,-0.122,1332016
-0.297,0.025,-0.959,-0.244,1332022
-0.296,0.025,-0.96,-0.244,1332027
-0.296,0.024,-0.96,-0.183,1332032
-0.296,0.024,-0.96,-0.305,1332037
-0.297,0.025,-0.96,-0.244,1332043
-0.297,0.025,-0.96,-0.183,1332048
-0.296,0.024,-0.96,-0.183,1332053
-0.296,0.024,-0.96,-0.061,1332058
-0.296,0.024,-0.958,-0.244,1332064
-0.296,0.024,-0.958,-0.305,1332069
-0.296,0.024,-0.959,-0.183,1332074
-0.296,0.024,-0.959,-0.366,1332079
-0.296,0.023,-0.959,-0.244,1332085
-0.296,0.023,-0.959,-0.122,1332090
-0.297,0.022,-0.958,-0.305,1332095
-0.297,0.022,-0.958,-0.305,1332100
-0.296,0.021,-0.958,-0.305,1332106
-0.296,0.021,-0.958,-0.305,1332111
-0.294,0.022,-0.96,-0.183,1332116
-0.296,0.021,-0.959,-0.183,1332121
-0.296,0.021,-0.959,-0.244,1332127
-0.296,0.02,-0.959,-0.061,1332132
-0.296,0.02,-0.959,-0.305,1332137
-0.297,0.02,-0.96,-0.244,1332142
-0.297,0.02,-0.96,-0.183,1332148
-0.296,0.02,-0.959,-0.183,1332153
-0.296,0.02,-0.959,-0.122,1332158
-0.296,0.019,-0.958,-0.122,1332163
-0.296,0.019,-0.958,-0.305,1332169
-0.298,0.02,-0.957,-0.183,1332174
-0.298,0.02,-0.957,-0.244,1332179
-0.295,0.019,-0.958,-0.244,1332184
-0.295,0.019,-0.958,-0.305,1332190
-0.297,0.02,-0.958,-0.183,1332195
-0.297,0.02,-0.958,-0.183,1332200
-0.297,0.021,-0.957,-0.122,1332205
-0.297,0.02,-0.959,-0.183,1332211
-0.297,0.02,-0.959,-0.122,1332216
-0.297,0.021,-0.958,-0.122,1332221
-0.297,0.021,-0.958,-0.061,1332226
-0.297,0.023,-0.958,-0.122,1332232
-0.297,0.023,-0.958,-0.122,1332237
-0.297,0.023,-0.96,-0.183,1332242
-0.297,0.023,-0.96,-0.244,1332248
-0.299,0.022,-0.957,-0.244,1332253
-0.299,0.022,-0.957,-0.244,1332258
-0.296,0.023,-0.958,-0.061,1332263
-0.296,0.023,-0.958,-0.061,1332269
-0.298,0.024,-0.958,-0.122,1332274
-0.298,0.024,-0.958,-0.122,1332279
-0.299,0.024,-0.958,-0.061,1332284
-0.299,0.024,-0.958,-0.305,1332290
-0.297,0.025,-0.958,-0.244,1332295
-0.297,0.025,-0.959,-0.244,1332300
-0.297,0.025,-0.959,-0.183,1332305
-0.296,0.025,-0.96,-0.183,1332311
-0.296,0.025,-0.96,-0.244,1332316
-0.296,0.026,-0.959,-0.183,1332321
-0.296,0.026,-0.959,-0.183,1332326
-0.295,0.027,-0.958,-0.122,1332332
-0.295,0.027,-0.958,-0.244,1332337
-0.297,0.025,-0.959,-0.244,1332342
-0.297,0.025,-0.959,-0.305,1332347
-0.297,0.025,-0.959,-0.305,1332353
-0.297,0.025,-0.959,-0.183,1332358
-0.297,0.025,-0.959,-0.366,1332363
-0.297,0.025,-0.959,-0.183,1332368
-0.297,0.024,-0.96,-0.061,1332374
-0.297,0.024,-0.96,-0.183,1332379
-0.296,0.023,-0.958,-0.366,1332384
-0.297,0.022,-0.957,-0.244,1332389
-0.297,0.022,-0.957,-0.305,1332395
-0.296,0.022,-0.958,-0.183,1332400
-0.296,0.022,-0.958,-0.122,1332405
-0.296,0.022,-0.96,-0.305,1332410
-0.296,0.022,-0.96,-0.183,1332416
-0.296,0.022,-0.961,-0.183,1332421
-0.296,0.022,-0.961,-0.244,1332426
-0.298,0.022,-0.959,-0.244,1332431
-0.298,0.022,-0.959,-0.244,1332437
-0.296,0.021,-0.958,-0.122,1332442
-0.296,0.021,-0.958,-0.061,1332447
-0.296,0.021,-0.958,-0.183,1332452
-0.296,0.021,-0.958,-0.183,1332458
-0.298,0.022,-0.958,-0.122,1332463
-0.297,0.022,-0.958,-0.183,1332468
-0.297,0.022,-0.958,-0.183,1332473
-0.297,0.02,-0.958,-0.244,1332479
-0.297,0.02,-0.958,-0.183,1332484
-0.298,0.021,-0.957,0.0,1332489
-0.298,0.021,-0.957,-0.122,1332494
-0.297,0.021,-0.959,-0.244,1332500
-0.297,0.021,-0.959,-0.122,1332505
-0.297,0.021,-0.957,-0.183,1332510
-0.297,0.021,-0.957,-0.183,1332515
-0.297,0.021,-0.958,-0.183,1332521
-0.297,0.021,-0.958,-0.183,1332526
-0.296,0.023,-0.957,-0.061,1332531
-0.296,0.023,-0.957,-0.183,1332536
-0.296,0.022,-0.959,-0.122,1332542
-0.296,0.022,-0.959,-0.183,1332547
-0.297,0.021,-0.958,-0.183,1332552
-0.297,0.021,-0.958,-0.244,1332557
-0.296,0.024,-0.959,-0.122,1332563
-0.297,0.022,-0.959,-0.244,1332568
-0.297,0.022,-0.959,-0.305,1332573
-0.295,0.022,-0.959,0.0,1332578
-0.295,0.022,-0.959,-0.061,1332584
-0.296,0.024,-0.959,-0.244,1332589
-0.296,0.024,-0.959,-0.183,1332594
-0.296,0.025,-0.958,-0.183,1332599
-0.296,0.025,-0.958,-0.244,1332605
-0.295,0.023,-0.96,-0.183,1332610
-0.295,0.023,-0.96,-0.183,1332615
-0.296,0.024,-0.96,-0.122,1332620
-0.296,0.024,-0.96,-0.244,1332626
-0.297,0.025,-0.959,0.061,1332631
-0.297,0.025,-0.959,-0.061,1332636
-0.296,0.025,-0.961,-0.305,1332641
-0.296,0.025,-0.961,-0.244,1332647
-0.296,0.025,-0.959,-0.183,1332652
-0.296,0.025,-0.958,-0.244,1332657
-0.296,0.025,-0.958,-0.366,1332662
-0.296,0.025,-0.961,-0.305,1332668
-0.296,0.025,-0.961,-0.122,1332673
-0.295,0.023,-0.961,-0.183,1332678
-0.295,0.023,-0.961,-0.183,1332683
-0.297,0.023,-0.959,-0.305,1332689
-0.297,0.023,-0.959,-0.183,1332694
-0.298,0.023,-0.959,-0.183,1332699
-0.298,0.023,-0.959,-0.244,1332704
-0.298,0.022,-0.958,-0.305,1332710
-0.298,0.022,-0.958,-0.122,1332715
-0.298,0.022,-0.959,-0.122,1332720
-0.298,0.022,-0.959,-0.244,1332725
-0.297,0.021,-0.957,-0.244,1332731
-0.297,0.021,-0.957,-0.244,1332736
-0.296,0.021,-0.958,-0.122,1332741
-0.297,0.021,-0.959,-0.183,1332746
-0.297,0.021,-0.959,-0.244,1332752
-0.298,0.021,-0.956,-0.244,1332757
-0.298,0.021,-0.956,-0.244,1332762
-0.298,0.021,-0.957,-0.366,1332767
-0.298,0.021,-0.957,-0.183,1332773
-0.295,0.021,-0.959,-0.183,1332778
-0.295,0.021,-0.959,-0.305,1332783
-0.296,0.021,-0.959,-0.244,1332788
-0.296,0.021,-0.959,-0.244,1332794
-0.297,0.022,-0.958,-0.305,1332799
-0.297,0.022,-0.958,-0.244,1332804
-0.295,0.022,-0.958,-0.183,1332810
-0.295,0.022,-0.958,-0.183,1332815
-0.296,0.021,-0.96,-0.183,1332820
-0.296,0.02,-0.959,-0.122,1332825
-0.296,0.02,-0.959,0.0,1332830
-0.296,0.022,-0.959,-0.244,1332836
-0.296,0.022,-0.959,-0.305,1332841
-0.296,0.022,-0.959,-0.183,1332846
-0.296,0.022,-0.959,-0.244,1332851
-0.295,0.022,-0.958,-0.244,1332857
-0.295,0.022,-0.958,-0.122,1332862
-0.296,0.021,-0.959,-0.061,1332867
-0.296,0.021,-0.959,-0.122,1332872
-0.295,0.023,-0.958,-0.244,1332878
-0.295,0.023,-0.958,-0.183,1332883
-0.295,0.024,-0.958,-0.122,1332888
-0.295,0.024,-0.958,-0.183,1332893
-0.296,0.024,-0.958,-0.244,1332899
-0.296,0.024,-0.958,-0.183,1332904
-0.296,0.022,-0.96,-0.183,1332909
-0.296,0.022,-0.96,-0.122,1332914
-0.295,0.023,-0.96,-0.183,1332920
-0.297,0.024,-0.959,-0.183,1332925
-0.297,0.024,-0.959,-0.305,1332930
-0.297,0.023,-0.959,0.0,1332935
-0.297,0.023,-0.959,-0.122,1332941
-0.295,0.023,-0.958,-0.305,1332946
-0.295,0.023,-0.958,-0.305,1332951
-0.296,0.024,-0.959,-0.244,1332956
-0.296,0.024,-0.959,-0.122,1332962
-0.296,0.025,-0.958,-0.183,1332967
-0.296,0.025,-0.958,-0.244,1332972
-0.298,0.024,-0.958,-0.183,1332977
-0.298,0.024,-0.958,-0.122,1332983
-0.296,0.022,-0.959,-0.183,1332988
-0.296,0.022,-0.959,-0.244,1332993
-0.297,0.021,-0.958,-0.244,1332998
-0.297,0.021,-0.958,-0.183,1333004
-0.297,0.022,-0.959,-0.183,1333009
-0.296,0.022,-0.958,-0.122,1333014
-0.296,0.022,-0.958,-0.122,1333019
-0.295,0.022,-0.958,-0.122,1333025
-0.295,0.022,-0.958,-0.366,1333030
-0.298,0.022,-0.958,-0.244,1333035
-0.298,0.022,-0.958,-0.183,1333041
-0.296,0.022,-0.958,-0.305,1333046
-0.296,0.022,-0.958,-0.244,1333051
-0.297,0.021,-0.957,-0.061,1333056
-0.297,0.021,-0.957,-0.122,1333062
-0.296,0.021,-0.958,-0.183,1333067
-0.296,0.021,-0.958,-0.244,1333072
-0.297,0.02,-0.96,-0.244,1333077
-0.297,0.02,-0.96,-0.305,1333083
-0.296,0.022,-0.958,-0.305,1333088
-0.296,0.022,-0.958,-0.305,1333093
-0.298,0.02,-0.958,-0.244,1333098
-0.298,0.021,-0.959,-0.305,1333104
-0.298,0.021,-0.959,-0.305,1333109
-0.298,0.022,-0.958,-0.244,1333114
-0.298,0.022,-0.958,-0.122,1333119
-0.297,0.021,-0.959,-0.061,1333125
-0.297,0.021,-0.959,-0.183,1333130
-0.296,0.02,-0.958,-0.244,1333135
-0.296,0.02,-0.958,-0.122,1333140
-0.296,0.022,-0.957,-0.122,1333146
-0.296,0.022,-0.957,-0.183,1333151
-0.295,0.022,-0.959,-0.244,1333156
-0.295,0.022,-0.959,-0.061,1333161
-0.295,0.022,-0.959,-0.122,1333167
-0.295,0.022,-0.959,-0.183,1333172
-0.296,0.022,-0.958,-0.122,1333177
-0.297,0.023,-0.959,-0.244,1333182
-0.297,0.023,-0.959,-0.183,1333188
-0.297,0.023,-0.96,-0.183,1333193
-0.297,0.023,-0.96,-0.305,1333198
-0.298,0.023,-0.959,-0.244,1333203
-0.298,0.023,-0.959,-0.183,1333209
-0.299,0.024,-0.959,-0.183,1333214
-0.299,0.024,-0.959,-0.183,1333219
-0.295,0.025,-0.96,0.0,1333224
-0.295,0.025,-0.96,-0.122,1333230
-0.296,0.023,-0.958,-0.305,1333235
-0.296,0.023,-0.958,-0.244,1333240
-0.297,0.023,-0.957,-0.122,1333245
-0.297,0.023,-0.957,-0.183,1333251
-0.297,0.024,-0.959,-0.183,1333256
-0.297,0.024,-0.959,-0.183,1333261
-0.297,0.024,-0.959,-0.183,1333266
-0.298,0.022,-0.957,-0.183,1333272
-0.298,0.022,-0.957,-0.244,1333277
-0.297,0.022,-0.958,-0.305,1333282
-0.297,0.022,-0.958,-0.305,1333287
-0.296,0.024,-0.958,-0.061,1333293
-0.296,0.024,-0.958,-0.183,1333298
-0.297,0.023,-0.96,-0.244,1333303
-0.297,0.023,-0.96,-0.244,1333308
-0.296,0.022,-0.96,-0.305,1333314
-0.296,0.022,-0.96,-0.244,1333319
-0.296,0.021,-0.959,-0.122,1333324
-0.296,0.021,-0.959,-0.244,1333329
-0.295,0.021,-0.958,-0.183,1333335
-0.295,0.021,-0.958,-0.183,1333340
-0.296,0.022,-0.956,-0.183,1333345
-0.296,0.022,-0.956,-0.183,1333350
-0.298,0.022,-0.96,-0.183,1333356
-0.297,0.021,-0.958,-0.244,1333361
-0.297,0.021,-0.958,-0.183,1333366
-0.296,0.02,-0.957,-0.122,1333371
-0.296,0.02,-0.957,-0.183,1333377
-0.295,0.022,-0.957,-0.122,1333382
-0.295,0.022,-0.957,-0.244,1333387
-0.296,0.021,-0.958,-0.122,1333392
-0.296,0.021,-0.958,-0.061,1333398
-0.297,0.022,-0.958,-0.183,1333403
-0.297,0.022,-0.958,-0.122,1333408
-0.297,0.022,-0.958,-0.244,1333413
-0.297,0.022,-0.958,-0.366,1333419
-0.295,0.022,-0.957,-0.183,1333424
-0.295,0.022,-0.957,-0.305,1333429
-0.298,0.023,-0.958,-0.244,1333434
-0.298,0.023,-0.958,-0.183,1333440
-0.299,0.022,-0.957,-0.244,1333445
-0.297,0.023,-0.957,-0.183,1333450
-0.297,0.023,-0.957,-0.183,1333456
-0.298,0.022,-0.96,-0.244,1333461
-0.298,0.022,-0.96,-0.122,1333466
-0.297,0.023,-0.958,-0.061,1333471
-0.297,0.023,-0.958,-0.183,1333477
-0.295,0.022,-0.958,-0.244,1333482
-0.295,0.022,-0.958,-0.122,1333487
-0.296,0.023,-0.959,-0.244,1333492
-0.296,0.023,-0.959,-0.183,1333498
-0.298,0.024,-0.959,-0.122,1333503
-0.298,0.024,-0.959,-0.122,1333508
-0.297,0.024,-0.959,-0.305,1333513
-0.297,0.024,-0.959,-0.305,1333519
-0.297,0.024,-0.958,-0.183,1333524
-0.297,0.024,-0.958,-0.183,1333529
-0.298,0.023,-0.959,-0.183,1333534
-0.296,0.023,-0.959,-0.183,1333540
-0.296,0.023,-0.959,-0.244,1333545
-0.298,0.023,-0.958,-0.183,1333550
-0.298,0.023,-0.958,-0.183,1333555
-0.296,0.021,-0.958,-0.244,1333561
-0.296,0.021,-0.958,-0.122,1333566
-0.296,0.021,-0.959,-0.244,1333571
-0.296,0.021,-0.959,-0.122,1333576
-0.297,0.022,-0.959,-0.244,1333582
-0.297,0.022,-0.959,-0.122,1333587
-0.294,0.023,-0.96,-0.122,1333592
-0.294,0.023,-0.96,-0.305,1333597
-0.295,0.021,-0.958,-0.366,1333603
-0.295,0.021,-0.958,-0.244,1333608
-0.297,0.023,-0.959,-0.183,1333613
-0.297,0.023,-0.959,-0.183,1333618
-0.297,0.023,-0.958,-0.366,1333624
-0.295,0.022,-0.958,-0.122,1333629
-0.295,0.022,-0.958,-0.183,1333634
-0.298,0.023,-0.959,-0.244,1333639
-0.298,0.023,-0.959,-0.244,1333645
-0.298,0.024,-0.959,-0.244,1333650
-0.298,0.024,-0.959,-0.183,1333655
-0.299,0.023,-0.959,-0.122,1333660
-0.299,0.023,-0.959,-0.244,1333666
-0.298,0.022,-0.958,-0.305,1333671
-0.298,0.022,-0.958,-0.183,1333676
-0.298,0.022,-0.958,-0.305,1333681
-0.298,0.022,-0.958,-0.366,1333687
-0.298,0.022,-0.958,-0.244,1333692
-0.298,0.022,-0.958,-0.305,1333697
-0.296,0.02,-0.958,-0.427,1333702
-0.296,0.02,-0.958,-0.122,1333708
-0.295,0.02,-0.959,-0.183,1333713
-0.297,0.021,-0.958,-0.183,1333718
-0.297,0.021,-0.958,-0.183,1333724
-0.297,0.02,-0.96,-0.183,1333729
-0.297,0.02,-0.96,-0.244,1333734
-0.298,0.022,-0.959,-0.183,1333739
-0.298,0.022,-0.959,-0.122,1333745
-0.296,0.022,-0.959,-0.183,1333750
-0.296,0.022,-0.959,-0.183,1333755
-0.297,0.022,-0.958,-0.183,1333760
-0.297,0.022,-0.958,-0.061,1333766
-0.296,0.022,-0.959,-0.122,1333771
-0.296,0.022,-0.959,-0.122,1333776
-0.297,0.023,-0.959,-0.244,1333781
-0.297,0.023,-0.959,-0.183,1333787
-0.295,0.023,-0.958,-0.244,1333792
-0.295,0.023,-0.958,-0.305,1333797
-0.296,0.021,-0.958,-0.183,1333802
-0.296,0.023,-0.959,-0.244,1333808
-0.296,0.023,-0.959,-0.427,1333813
-0.298,0.022,-0.958,-0.122,1333818
-0.298,0.022,-0.958,-0.122,1333823
-0.294,0.023,-0.959,-0.244,1333829
-0.294,0.023,-0.959,-0.305,1333834
-0.297,0.022,-0.959,-0.122,1333839
-0.297,0.022,-0.959,-0.122,1333844
-0.297,0.024,-0.959,-0.183,1333850
-0.297,0.024,-0.959,-0.183,1333855
-0.298,0.024,-0.959,-0.244,1333860
-0.298,0.024,-0.959,-0.122,1333865
-0.296,0.023,-0.958,-0.244,1333871
-0.296,0.023,-0.958,-0.183,1333876
-0.298,0.023,-0.96,-0.366,1333881
-0.298,0.023,-0.96,-0.183,1333886
-0.298,0.022,-0.959,-0.122,1333892
-0.298,0.024,-0.958,-0.244,1333897
-0.298,0.024,-0.958,-0.244,1333902
-0.296,0.023,-0.957,-0.122,1333907
-0.296,0.023,-0.957,-0.183,1333913
-0.296,0.023,-0.958,-0.183,1333918
-0.296,0.023,-0.958,-0.183,1333923
-0.297,0.021,-0.959,-0.183,1333929
-0.297,0.021,-0.959,-0.305,1333934
-0.296,0.022,-0.96,-0.061,1333939
-0.296,0.022,-0.96,-0.183,1333944
-0.297,0.021,-0.957,-0.244,1333950
-0.297,0.021,-0.957,-0.183,1333955
-0.296,0.021,-0.958,-0.183,1333960
-0.296,0.021,-0.958,-0.183,1333965
-0.296,0.022,-0.958,-0.183,1333971
-0.296,0.022,-0.958,-0.366,1333976
-0.297,0.023,-0.957,0.061,1333981
-0.297,0.022,-0.958,-0.244,1333986
-0.297,0.022,-0.958,-0.427,1333992
-0.297,0.021,-0.959,-0.244,1333997
-0.297,0.021,-0.959,-0.061,1334002
-0.298,0.022,-0.958,-0.244,1334007
-0.298,0.022,-0.958,-0.183,1334013
-0.298,0.021,-0.958,-0.122,1334018
-0.298,0.021,-0.958,-0.244,1334023
-0.294,0.023,-0.957,-0.305,1334028
-0.294,0.023,-0.957,-0.244,1334034
-0.295,0.023,-0.958,-0.122,1334039
-0.295,0.023,-0.958,-0.122,1334044
-0.297,0.021,-0.959,-0.183,1334049
-0.297,0.021,-0.959,-0.183,1334055
-0.296,0.022,-0.959,-0.183,1334060
-0.296,0.022,-0.959,-0.305,1334065
-0.295,0.022,-0.958,-0.305,1334070
-0.295,0.023,-0.958,-0.244,1334076
-0.295,0.023,-0.958,-0.122,1334081
-0.297,0.023,-0.958,-0.183,1334086
-0.297,0.023,-0.958,-0.244,1334091
-0.296,0.022,-0.959,-0.244,1334097
-0.296,0.022,-0.959,-0.244,1334102
-0.296,0.023,-0.959,-0.183,1334107
-0.296,0.023,-0.959,-0.244,1334112
-0.298,0.024,-0.959,-0.305,1334118
-0.298,0.024,-0.959,-0.366,1334123
-0.298,0.024,-0.958,-0.183,1334128
-0.298,0.024,-0.958,-0.122,1334133
-0.298,0.024,-0.958,-0.305,1334139
-0.298,0.024,-0.958,-0.244,1334144
-0.297,0.025,-0.961,-0.305,1334149
-0.296,0.022,-0.959,-0.183,1334154
-0.296,0.022,-0.959,-0.122,1334160
-0.297,0.023,-0.958,-0.183,1334165
-0.297,0.023,-0.958,-0.244,1334170
-0.297,0.023,-0.958,-0.244,1334175
-0.297,0.023,-0.958,-0.305,1334181
-0.298,0.023,-0.959,-0.244,1334186
-0.298,0.023,-0.959,-0.305,1334191
-0.296,0.023,-0.958,-0.305,1334196
-0.296,0.023,-0.958,-0.305,1334202
-0.297,0.025,-0.958,-0.122,1334207
-0.297,0.025,-0.958,-0.122,1334212
-0.296,0.024,-0.959,-0.183,1334217
-0.296,0.024,-0.959,-0.183,1334223
-0.297,0.023,-0.958,-0.183,1334228
-0.297,0.023,-0.958,-0.244,1334233
-0.297,0.022,-0.957,-0.244,1334238
-0.296,0.023,-0.959,-0.122,1334244
-0.296,0.023,-0.959,-0.305,1334249
-0.295,0.023,-0.958,-0.183,1334254
-0.295,0.023,-0.958,-0.427,1334259
-0.296,0.023,-0.959,-0.244,1334265
-0.296,0.023,-0.959,-0.183,1334270
-0.298,0.023,-0.96,-0.183,1334275
-0.298,0.023,-0.96,-0.122,1334280
-0.298,0.024,-0.959,-0.183,1334286
-0.298,0.024,-0.959,-0.183,1334291
-0.296,0.021,-0.958,-0.122,1334296
-0.296,0.021,-0.958,-0.183,1334301
-0.298,0.021,-0.957,-0.183,1334307
-0.298,0.021,-0.957,-0.122,1334312
-0.297,0.023,-0.958,-0.183,1334317
-0.297,0.023,-0.958,-0.244,1334322
-0.295,0.022,-0.959,-0.183,1334328
-0.297,0.022,-0.957,-0.244,1334333
-0.297,0.022,-0.957,-0.122,1334338
-0.297,0.023,-0.957,-0.122,1334344
-0.297,0.023,-0.957,-0.244,1334349
-0.296,0.022,-0.958,-0.183,1334354
-0.296,0.022,-0.958,-0.061,1334359
-0.297,0.022,-0.959,-0.244,1334365
-0.297,0.022,-0.959,-0.305,1334370
-0.297,0.022,-0.959,-0.183,1334375
-0.297,0.022,-0.959,-0.244,1334380
-0.296,0.023,-0.958,-0.122,1334386
-0.296,0.023,-0.958,-0.061,1334391
-0.295,0.024,-0.959,-0.427,1334396
-0.295,0.024,-0.959,-0.244,1334401
-0.296,0.021,-0.959,-0.183,1334407
-0.296,0.021,-0.959,-0.061,1334412
-0.298,0.021,-0.959,-0.122,1334417
-0.297,0.022,-0.959,-0.305,1334422
-0.297,0.022,-0.959,-0.305,1334428
-0.296,0.023,-0.96,-0.183,1334433
-0.296,0.023,-0.96,-0.244,1334438
-0.298,0.024,-0.96,-0.305,1334443
-0.298,0.024,-0.96,-0.122,1334449
-0.296,0.022,-0.96,-0.122,1334454
-0.296,0.022,-0.96,-0.183,1334459
-0.297,0.022,-0.959,-0.183,1334464
-0.297,0.022,-0.959,-0.122,1334470
-0.295,0.026,-0.959,-0.244,1334475
-0.295,0.026,-0.959,-0.366,1334480
-0.294,0.022,-0.959,-0.183,1334485
-0.294,0.022,-0.959,-0.183,1334491
-0.296,0.022,-0.957,-0.183,1334496
-0.296,0.022,-0.957,-0.183,1334501
-0.296,0.025,-0.959,-0.183,1334506
-0.296,0.021,-0.96,-0.244,1334512
-0.296,0.021,-0.96,-0.183,1334517
-0.297,0.022,-0.958,-0.244,1334522
-0.297,0.022,-0.958,-0.183,1334527
-0.296,0.023,-0.958,-0.183,1334533
-0.296,0.023,-0.958,-0.183,1334538
-0.295,0.022,-0.959,-0.305,1334543
-0.295,0.022,-0.959,-0.244,1334548
-0.295,0.021,-0.959,-0.183,1334554
-0.295,0.021,-0.959,-0.244,1334559
-0.295,0.022,-0.958,-0.122,1334564
-0.295,0.022,-0.958,-0.305,1334569
-0.298,0.022,-0.958,-0.244,1334575
-0.298,0.022,-0.958,-0.122,1334580
-0.297,0.021,-0.958,-0.183,1334585
-0.297,0.021,-0.958,-0.305,1334590
-0.297,0.021,-0.958,-0.183,1334596
-0.297,0.023,-0.96,-0.244,1334601
-0.297,0.023,-0.96,-0.244,1334606
-0.299,0.021,-0.959,-0.183,1334611
-0.299,0.021,-0.959,-0.183,1334617
-0.297,0.021,-0.96,-0.244,1334622
-0.297,0.021,-0.96,-0.122,1334627
-0.297,0.022,-0.958,-0.183,1334633
-0.297,0.022,-0.958,-0.244,1334638
-0.296,0.022,-0.959,-0.244,1334643
-0.296,0.022,-0.959,-0.183,1334648
-0.297,0.021,-0.957,-0.183,1334654
-0.297,0.021,-0.957,-0.183,1334659
-0.296,0.022,-0.957,-0.183,1334664
-0.296,0.022,-0.957,-0.183,1334669
-0.296,0.022,-0.957,-0.244,1334675
-0.296,0.022,-0.957,-0.244,1334680
-0.295,0.023,-0.958,-0.183,1334685
-0.297,0.022,-0.959,-0.122,1334690
-0.297,0.022,-0.959,-0.122,1334696
-0.298,0.023,-0.958,-0.244,1334701
-0.298,0.023,-0.958,-0.183,1334706
-0.296,0.023,-0.958,-0.244,1334711
-0.296,0.023,-0.958,-0.183,1334717
-0.297,0.023,-0.958,-0.183,1334722
-0.297,0.023,-0.958,0.0,1334727
-0.298,0.023,-0.96,-0.122,1334732
-0.298,0.023,-0.96,-0.305,1334738
-0.298,0.024,-0.959,-0.183,1334743
-0.298,0.024,-0.959,-0.183,1334748
-0.297,0.023,-0.959,-0.305,1334753
-0.297,0.023,-0.959,-0.366,1334759
-0.297,0.024,-0.958,-0.183,1334764
-0.297,0.024,-0.958,-0.122,1334769
-0.297,0.024,-0.958,-0.305,1334774
-0.295,0.023,-0.959,-0.183,1334780
-0.295,0.023,-0.959,-0.244,1334785
-0.297,0.023,-0.96,-0.183,1334790
-0.297,0.023,-0.96,-0.183,1334795
-0.297,0.024,-0.959,-0.244,1334801
-0.297,0.024,-0.959,-0.122,1334806
-0.297,0.023,-0.957,-0.122,1334811
-0.297,0.023,-0.957,-0.183,1334816
-0.296,0.022,-0.957,-0.183,1334822
-0.296,0.022,-0.957,-0.183,1334827
-0.296,0.022,-0.958,-0.183,1334832
-0.296,0.022,-0.958,-0.122,1334837
-0.297,0.024,-0.96,-0.244,1334843
-0.297,0.024,-0.96,-0.183,1334848
-0.295,0.022,-0.958,-0.244,1334853
-0.295,0.022,-0.958,-0.183,1334858
-0.296,0.022,-0.96,-0.183,1334864
-0.298,0.023,-0.961,-0.183,1334869
-0.298,0.023,-0.961,-0.183,1334874
-0.296,0.022,-0.958,-0.305,1334879
-0.296,0.022,-0.958,-0.183,1334885
-0.297,0.021,-0.958,-0.183,1334890
-0.297,0.021,-0.958,-0.183,1334895
-0.297,0.021,-0.958,-0.183,1334900
-0.297,0.021,-0.958,-0.122,1334906
-0.297,0.022,-0.958,-0.183,1334911
-0.297,0.022,-0.958,-0.183,1334916
-0.296,0.022,-0.958,-0.122,1334921
-0.296,0.022,-0.958,-0.122,1334927
-0.298,0.022,-0.958,-0.122,1334932
-0.298,0.022,-0.958,-0.122,1334937
-0.295,0.021,-0.957,-0.244,1334942
-0.295,0.021,-0.957,-0.122,1334948
-0.296,0.021,-0.958,-0.183,1334953
-0.297,0.022,-0.96,-0.183,1334958
-0.297,0.022,-0.96,-0.061,1334963
-0.295,0.024,-0.959,-0.305,1334969
-0.295,0.024,-0.959,-0.122,1334974
-0.297,0.022,-0.959,-0.061,1334979
-0.297,0.022,-0.959,-0.183,1334985
-0.297,0.022,-0.959,-0.183,1334990
-0.297,0.022,-0.959,-0.122,1334995
-0.297,0.022,-0.959,-0.122,1335000
-0.297,0.022,-0.959,-0.183,1335006
-0.298,0.023,-0.956,-0.183,1335011
-0.298,0.023,-0.956,-0.122,1335016
-0.297,0.022,-0.958,-0.183,1335021
-0.297,0.022,-0.958,-0.244,1335027
-0.296,0.022,-0.958,-0.366,1335032
-0.296,0.022,-0.958,-0.366,1335037
-0.297,0.024,-0.958,-0.305,1335042
-0.299,0.022,-0.959,-0.183,1335048
-0.299,0.022,-0.959,-0.122,1335053
-0.297,0.023,-0.959,-0.244,1335058
-0.297,0.023,-0.959,-0.183,1335063
-0.298,0.023,-0.958,-0.183,1335069
-0.298,0.023,-0.958,-0.244,1335074
-0.297,0.023,-0.957,-0.183,1335079
-0.297,0.023,-0.957,-0.183,1335084
-0.296,0.023,-0.958,-0.366,1335090
-0.296,0.023,-0.958,-0.305,1335095
-0.296,0.022,-0.959,-0.183,1335100
-0.296,0.022,-0.959,-0.122,1335105
-0.298,0.023,-0.958,-0.244,1335111
-0.298,0.023,-0.958,-0.305,1335116
-0.296,0.022,-0.957,-0.183,1335121
-0.296,0.022,-0.957,-0.305,1335126
-0.296,0.023,-0.959,-0.244,1335132
-0.297,0.022,-0.958,-0.122,1335137
-0.297,0.022,-0.958,-0.244,1335142
-0.297,0.023,-0.959,-0.305,1335147
-0.297,0.023,-0.959,-0.183,1335153
-0.297,0.023,-0.959,-0.183,1335158
-0.297,0.023,-0.959,-0.305,1335163
-0.297,0.022,-0.958,-0.244,1335168
-0.297,0.022,-0.958,-0.122,1335174
-0.294,0.021,-0.958,-0.183,1335179
-0.294,0.021,-0.958,-0.122,1335184
-0.297,0.023,-0.958,-0.183,1335189
-0.297,0.023,-0.958,-0.183,1335195
-0.297,0.022,-0.957,-0.183,1335200
-0.297,0.022,-0.957,-0.183,1335205
-0.297,0.022,-0.958,-0.305,1335210
-0.296,0.021,-0.958,-0.183,1335216
-0.296,0.021,-0.958,-0.183,1335221
-0.297,0.023,-0.958,-0.122,1335226
-0.297,0.023,-0.958,-0.183,1335231
-0.297,0.022,-0.958,-0.183,1335237
-0.297,0.022,-0.958,-0.244,1335242
-0.296,0.023,-0.957,-0.122,1335247
-0.296,0.023,-0.957,-0.122,1335253
-0.297,0.022,-0.959,-0.183,1335258
-0.297,0.022,-0.959,-0.122,1335263
-0.297,0.022,-0.96,-0.183,1335268
-0.297,0.022,-0.96,-0.244,1335274
-0.296,0.023,-0.958,-0.122,1335279
-0.296,0.023,-0.958,-0.061,1335284
-0.297,0.024,-0.958,-0.183,1335289
-0.297,0.024,-0.958,-0.061,1335295
-0.296,0.023,-0.958,-0.183,1335300
-0.296,0.023,-0.959,-0.183,1335305
-0.296,0.023,-0.959,-0.244,1335310
-0.297,0.022,-0.959,-0.244,1335316
-0.297,0.022,-0.959,-0.305,1335321
-0.296,0.024,-0.96,-0.244,1335326
-0.296,0.024,-0.96,-0.244,1335331
-0.294,0.025,-0.959,-0.305,1335337
-0.294,0.025,-0.959,-0.366,1335342
-0.296,0.024,-0.959,-0.122,1335347
-0.296,0.024,-0.959,-0.244,1335352
-0.298,0.023,-0.959,-0.244,1335358
-0.298,0.023,-0.959,-0.305,1335363
-0.297,0.023,-0.958,-0.183,1335368
-0.297,0.023,-0.958,-0.122,1335373
-0.296,0.023,-0.96,-0.183,1335379
-0.296,0.023,-0.96,-0.183,1335384
-0.296,0.021,-0.958,-0.183,1335389
-0.299,0.023,-0.958,-0.061,1335394
-0.299,0.023,-0.958,-0.244,1335400
-0.297,0.024,-0.958,-0.244,1335405
-0.297,0.024,-0.958,-0.366,1335410
-0.297,0.023,-0.958,-0.366,1335415
-0.297,0.023,-0.958,-0.305,1335421
-0.297,0.022,-0.958,-0.305,1335426
-0.297,0.022,-0.958,-0.305,1335431
-0.297,0.022,-0.957,-0.244,1335436
-0.297,0.022,-0.957,-0.122,1335442
-0.298,0.022,-0.958,-0.183,1335447
-0.298,0.022,-0.958,-0.244,1335452
-0.297,0.021,-0.96,-0.183,1335457
-0.297,0.021,-0.96,-0.122,1335463
-0.294,0.024,-0.959,-0.305,1335468
-0.294,0.024,-0.959,-0.183,1335473
-0.296,0.021,-0.958,-0.244,1335478
-0.296,0.02,-0.957,-0.183,1335484
-0.296,0.02,-0.957,-0.183,1335489
-0.295,0.022,-0.958,-0.183,1335494
-0.295,0.022,-0.958,-0.244,1335499
-0.297,0.022,-0.96,-0.305,1335505
-0.297,0.022,-0.96,-0.366,1335510
-0.297,0.022,-0.958,-0.244,1335515
-0.297,0.022,-0.958,-0.183,1335520
-0.297,0.02,-0.96,-0.122,1335526
-0.297,0.02,-0.96,-0.183,1335531
-0.298,0.022,-0.959,-0.061,1335536
-0.298,0.022,-0.959,-0.122,1335541
-0.296,0.022,-0.958,-0.183,1335547
-0.296,0.022,-0.958,-0.244,1335552
-0.297,0.022,-0.959,-0.244,1335557
-0.297,0.022,-0.959,-0.122,1335563
-0.296,0.022,-0.958,-0.244,1335568
-0.298,0.022,-0.958,-0.061,1335573
-0.298,0.022,-0.958,-0.122,1335578
-0.296,0.022,-0.958,-0.183,1335584
-0.296,0.022,-0.958,-0.305,1335589
-0.295,0.024,-0.958,-0.305,1335594
-0.295,0.024,-0.958,-0.183,1335599
-0.296,0.024,-0.958,-0.427,1335605
-0.296,0.024,-0.958,-0.122,1335610
-0.296,0.023,-0.959,-0.061,1335615
-0.296,0.023,-0.959,-0.183,1335620
-0.296,0.023,-0.959,-0.183,1335626
-0.296,0.023,-0.959,-0.183,1335631
-0.296,0.024,-0.96,-0.244,1335636
-0.296,0.024,-0.96,-0.244,1335641
-0.297,0.024,-0.957,-0.183,1335647
-0.297,0.024,-0.957,-0.244,1335652
-0.298,0.024,-0.958,-0.244,1335657
-0.298,0.022,-0.96,-0.244,1335662
-0.298,0.022,-0.96,-0.122,1335668
-0.297,0.022,-0.96,-0.122,1335673
-0.297,0.022,-0.96,-0.183,1335678
-0.296,0.024,-0.959,-0.183,1335683
-0.296,0.024,-0.959,-0.305,1335689
-0.298,0.023,-0.96,-0.122,1335694
-0.298,0.023,-0.96,-0.183,1335699
-0.297,0.024,-0.959,-0.183,1335704
-0.297,0.024,-0.959,-0.061,1335710
-0.297,0.023,-0.958,-0.183,1335715
-0.297,0.023,-0.958,-0.122,1335720
-0.297,0.021,-0.959,-0.183,1335725
-0.297,0.021,-0.959,-0.183,1335731
-0.297,0.022,-0.958,-0.183,1335736
-0.297,0.022,-0.958,-0.244,1335741
-0.296,0.022,-0.958,-0.183,1335746
-0.297,0.023,-0.959,-0.183,1335752
-0.297,0.023,-0.959,-0.122,1335757
-0.297,0.023,-0.958,-0.244,1335762
-0.297,0.023,-0.958,-0.244,1335767
-0.296,0.023,-0.959,-0.305,1335773
-0.296,0.023,-0.959,-0.366,1335778
-0.296,0.022,-0.959,-0.122,1335783
-0.296,0.022,-0.959,-0.122,1335788
-0.294,0.021,-0.958,-0.244,1335794
-0.294,0.021,-0.958,-0.244,1335799
-0.298,0.022,-0.96,-0.244,1335804
-0.298,0.022,-0.96,-0.244,1335809
-0.297,0.021,-0.958,-0.244,1335815
-0.297,0.021,-0.958,-0.366,1335820
-0.297,0.021,-0.957,-0.244,1335825
-0.297,0.021,-0.957,-0.305,1335831
-0.297,0.022,-0.959,-0.183,1335836
-0.295,0.021,-0.959,-0.122,1335841
-0.295,0.021,-0.959,-0.183,1335846
-0.296,0.021,-0.959,-0.183,1335852
-0.296,0.021,-0.959,-0.183,1335857
-0.296,0.021,-0.959,-0.122,1335862
-0.296,0.021,-0.959,-0.244,1335867
-0.297,0.022,-0.958,-0.183,1335873
-0.297,0.022,-0.958,-0.244,1335878
-0.296,0.021,-0.958,-0.122,1335883
-0.296,0.021,-0.958,-0.061,1335888
-0.296,0.022,-0.958,-0.183,1335894
-0.296,0.022,-0.958,-0.305,1335899
-0.297,0.022,-0.958,-0.183,1335904
-0.297,0.022,-0.958,-0.122,1335909
-0.298,0.022,-0.96,-0.244,1335915
-0.298,0.022,-0.96,-0.122,1335920
-0.297,0.023,-0.958,-0.122,1335925
-0.296,0.022,-0.959,-0.244,1335930
-0.296,0.022,-0.959,-0.244,1335936
-0.297,0.022,-0.959,-0.305,1335941
-0.297,0.022,-0.959,-0.244,1335946
-0.296,0.022,-0.957,-0.244,1335951
-0.296,0.022,-0.957,0.061,1335957
-0.295,0.023,-0.958,-0.061,1335962
-0.295,0.023,-0.958,-0.183,1335967
-0.298,0.023,-0.958,-0.122,1335972
-0.298,0.023,-0.958,-0.183,1335978
-0.298,0.023,-0.96,-0.122,1335983
-0.298,0.023,-0.96,-0.122,1335988
-0.296,0.024,-0.96,-0.305,1335993
-0.296,0.024,-0.96,-0.122,1335999
-0.297,0.024,-0.958,-0.183,1336004
-0.297,0.024,-0.958,-0.244,1336009
-0.297,0.023,-0.957,-0.305,1336014
-0.296,0.023,-0.958,-0.305,1336020
-0.296,0.023,-0.958,-0.183,1336025
-0.296,0.023,-0.96,-0.244,1336030
-0.296,0.023,-0.96,-0.244,1336035
-0.296,0.022,-0.957,-0.183,1336041
-0.296,0.022,-0.957,-0.305,1336046
-0.298,0.023,-0.958,-0.366,1336051
-0.298,0.023,-0.958,-0.305,1336056
-0.298,0.021,-0.96,-0.183,1336062
-0.298,0.021,-0.96,-0.183,1336067
-0.296,0.022,-0.959,-0.183,1336072
-0.296,0.022,-0.959,-0.244,1336077
-0.296,0.023,-0.959,-0.305,1336083
-0.296,0.023,-0.959,-0.244,1336088
-0.297,0.023,-0.958,-0.183,1336093
-0.297,0.023,-0.958,-0.366,1336098
-0.298,0.023,-0.958,-0.061,1336104
-0.296,0.022,-0.957,-0.183,1336109
-0.296,0.022,-0.957,-0.305,1336114
-0.297,0.021,-0.956,-0.183,1336120
-0.297,0.021,-0.956,-0.183,1336125
-0.297,0.022,-0.958,-0.244,1336130
-0.297,0.022,-0.958,-0.244,1336135
-0.296,0.023,-0.959,-0.183,1336141
-0.296,0.023,-0.959,-0.061,1336146
-0.295,0.021,-0.961,-0.183,1336151
-0.295,0.021,-0.961,-0.244,1336156
-0.298,0.022,-0.957,-0.244,1336162
-0.298,0.022,-0.957,-0.122,1336167
-0.296,0.022,-0.959,-0.183,1336172
-0.296,0.022,-0.959,-0.183,1336177
-0.296,0.021,-0.958,-0.244,1336183
-0.296,0.021,-0.958,-0.183,1336188
-0.298,0.023,-0.957,-0.122,1336193
-0.295,0.023,-0.96,-0.183,1336198
-0.295,0.023,-0.96,-0.183,1336204
-0.296,0.022,-0.959,-0.183,1336209
-0.296,0.022,-0.959,-0.244,1336214
-0.298,0.022,-0.959,-0.244,1336219
-0.298,0.022,-0.959,-0.122,1336225
-0.297,0.022,-0.96,-0.061,1336230
-0.297,0.022,-0.96,-0.183,1336235
-0.298,0.022,-0.959,-0.183,1336240
-0.298,0.022,-0.959,-0.183,1336246
-0.298,0.024,-0.959,-0.122,1336251
-0.298,0.024,-0.959,-0.244,1336256
-0.298,0.023,-0.958,-0.244,1336261
-0.298,0.023,-0.958,-0.122,1336267
-0.298,0.024,-0.96,-0.244,1336272
-0.296,0.024,-0.959,-0.183,1336277
-0.296,0.024,-0.959,-0.244,1336282
-0.296,0.022,-0.958,-0.122,1336288
-0.296,0.022,-0.958,-0.244,1336293
-0.298,0.022,-0.958,-0.305,1336298
-0.298,0.022,-0.958,-0.122,1336303
-0.297,0.021,-0.959,-0.122,1336309
-0.297,0.021,-0.959,-0.183,1336314
-0.297,0.023,-0.96,-0.183,1336319
-0.297,0.023,-0.96,-0.122,1336324
-0.297,0.023,-0.959,-0.183,1336330
-0.297,0.023,-0.959,-0.305,1336335
-0.297,0.022,-0.958,-0.305,1336340
-0.297,0.022,-0.958,-0.122,1336345
-0.294,0.022,-0.958,-0.244,1336351
-0.294,0.022,-0.958,-0.183,1336356
-0.297,0.024,-0.959,-0.122,1336361
-0.297,0.023,-0.958,-0.061,1336366
-0.297,0.023,-0.958,-0.244,1336372
-0.297,0.022,-0.957,-0.244,1336377
-0.297,0.022,-0.957,-0.183,1336382
-0.297,0.021,-0.957,-0.244,1336388
-0.297,0.021,-0.957,-0.305,1336393
-0.297,0.021,-0.96,-0.305,1336398
-0.297,0.021,-0.96,-0.183,1336403
-0.297,0.023,-0.959,-0.122,1336409
-0.297,0.023,-0.959,-0.122,1336414
-0.297,0.023,-0.959,-0.244,1336419
-0.297,0.023,-0.959,-0.122,1336424
-0.298,0.022,-0.958,-0.183,1336430
-0.298,0.022,-0.958,-0.244,1336435
-0.296,0.022,-0.957,-0.305,1336440
-0.296,0.022,-0.957,-0.061,1336445
-0.297,0.022,-0.957,-0.122,1336451
-0.297,0.022,-0.959,-0.183,1336456
-0.297,0.022,-0.959,-0.244,1336461
-0.298,0.023,-0.959,-0.122,1336466
-0.298,0.023,-0.959,-0.183,1336472
-0.298,0.022,-0.958,-0.305,1336477
-0.298,0.022,-0.958,-0.183,1336482
-0.297,0.023,-0.958,-0.183,1336487
-0.297,0.023,-0.958,-0.244,1336493
-0.295,0.021,-0.958,-0.183,1336498
-0.295,0.021,-0.958,-0.183,1336503
-0.296,0.021,-0.959,-0.122,1336508
-0.296,0.021,-0.959,-0.244,1336514
-0.297,0.023,-0.958,-0.183,1336519
-0.297,0.023,-0.958,-0.183,1336524
-0.297,0.021,-0.958,-0.183,1336529
-0.297,0.021,-0.958,-0.244,1336535
-0.298,0.023,-0.958,-0.061,1336540
-0.296,0.022,-0.959,-0.305,1336545
-0.296,0.022,-0.959,-0.122,1336550
-0.297,0.024,-0.958,-0.183,1336556
-0.297,0.024,-0.958,-0.244,1336561
-0.297,0.023,-0.958,-0.244,1336566
-0.297,0.023,-0.958,-0.122,1336571
-0.298,0.022,-0.958,-0.183,1336577
-0.298,0.022,-0.958,-0.183,1336582
-0.296,0.023,-0.958,-0.122,1336587
-0.296,0.023,-0.958,-0.122,1336592
-0.297,0.022,-0.958,-0.122,1336598
-0.297,0.022,-0.958,-0.183,1336603
-0.297,0.023,-0.959,-0.244,1336608
-0.297,0.023,-0.959,-0.183,1336613
-0.298,0.024,-0.96,-0.183,1336619
-0.298,0.024,-0.96,-0.122,1336624
-0.299,0.022,-0.959,-0.244,1336629
-0.296,0.022,-0.958,-0.122,1336634
-0.296,0.022,-0.958,-0.244,1336640
-0.298,0.022,-0.958,-0.183,1336645
-0.298,0.022,-0.958,-0.183,1336650
-0.295,0.022,-0.959,-0.244,1336656
-0.295,0.022,-0.959,-0.366,1336661
-0.296,0.023,-0.959,-0.244,1336666
-0.296,0.023,-0.959,-0.305,1336671
-0.298,0.022,-0.958,-0.122,1336677
-0.298,0.022,-0.958,-0.183,1336682
-0.296,0.021,-0.958,-0.183,1336687
-0.296,0.021,-0.958,-0.122,1336692
-0.295,0.022,-0.959,-0.122,1336698
-0.295,0.022,-0.959,-0.183,1336703
-0.296,0.023,-0.959,-0.122,1336708
-0.296,0.023,-0.959,-0.122,1336713
-0.298,0.022,-0.957,-0.305,1336719
-0.297,0.022,-0.958,-0.366,1336724
-0.297,0.022,-0.958,-0.244,1336729
-0.298,0.022,-0.958,-0.122,1336734
-0.298,0.022,-0.958,-0.122,1336740
-0.298,0.022,-0.958,-0.122,1336745
-0.298,0.022,-0.958,-0.061,1336750
-0.298,0.021,-0.958,-0.244,1336755
-0.298,0.021,-0.958,-0.183,1336761
-0.297,0.021,-0.958,-0.183,1336766
-0.297,0.021,-0.958,-0.122,1336771
-0.297,0.022,-0.958,-0.061,1336776
-0.297,0.022,-0.958,-0.061,1336782
-0.297,0.022,-0.958,-0.183,1336787
-0.297,0.022,-0.958,-0.122,1336792
-0.295,0.022,-0.958,-0.183,1336797
-0.295,0.022,-0.958,-0.183,1336803
-0.296,0.022,-0.959,-0.244,1336808
-0.296,0.023,-0.96,-0.183,1336813
-0.296,0.023,-0.96,-0.183,1336818
-0.296,0.023,-0.959,-0.061,1336824
-0.296,0.023,-0.959,-0.305,1336829
-0.297,0.023,-0.958,-0.244,1336834
-0.297,0.023,-0.958,-0.305,1336839
-0.298,0.023,-0.959,-0.366,1336845
-0.298,0.023,-0.959,-0.244,1336850
-0.297,0.022,-0.959,-0.183,1336855
-0.297,0.022,-0.959,-0.183,1336860
-0.297,0.023,-0.96,-0.183,1336866
-0.297,0.023,-0.96,-0.183,1336871
-0.297,0.022,-0.96,-0.244,1336876
-0.297,0.022,-0.96,-0.244,1336881
-0.297,0.022,-0.959,-0.061,1336887
-0.297,0.022,-0.959,-0.183,1336892
-0.297,0.023,-0.958,-0.122,1336897
-0.296,0.022,-0.958,-0.122,1336902
-0.296,0.022,-0.958,-0.244,1336908
-0.294,0.022,-0.958,-0.183,1336913
-0.294,0.022,-0.958,-0.122,1336918
-0.296,0.023,-0.96,-0.183,1336923
-0.296,0.023,-0.96,-0.305,1336929
-0.298,0.024,-0.96,-0.244,1336934
-0.298,0.024,-0.96,-0.122,1336939
-0.298,0.023,-0.958,-0.122,1336944
-0.298,0.023,-0.958,-0.244,1336950
-0.295,0.023,-0.958,-0.244,1336955
-0.295,0.023,-0.958,-0.183,1336960
-0.296,0.023,-0.959,-0.244,1336966
-0.296,0.023,-0.959,-0.122,1336971
-0.298,0.022,-0.959,-0.183,1336976
-0.298,0.022,-0.959,-0.122,1336981
-0.297,0.023,-0.958,-0.183,1336987
-0.296,0.024,-0.959,-0.122,1336992
-0.296,0.024,-0.959,-0.183,1336997
-0.298,0.023,-0.96,-0.244,1337002
-0.298,0.023,-0.96,-0.305,1337008
-0.297,0.023,-0.959,-0.244,1337013
-0.297,0.023,-0.959,-0.183,1337018
-0.296,0.023,-0.959,-0.244,1337023
-0.296,0.023,-0.959,-0.244,1337029
-0.295,0.022,-0.958,-0.244,1337034
-0.295,0.022,-0.958,-0.122,1337039
-0.295,0.021,-0.958,-0.305,1337044
-0.295,0.021,-0.958,-0.305,1337050
-0.295,0.021,-0.957,-0.122,1337055
-0.295,0.021,-0.957,-0.122,1337060
-0.296,0.021,-0.957,-0.183,1337065
-0.296,0.021,-0.957,-0.305,1337071
-0.297,0.023,-0.958,-0.122,1337076
-0.297,0.022,-0.958,0.0,1337081
-0.297,0.022,-0.958,-0.183,1337086
-0.296,0.022,-0.958,-0.305,1337092
-0.296,0.022,-0.958,-0.305,1337097
-0.297,0.022,-0.958,-0.305,1337102
-0.297,0.022,-0.958,-0.061,1337107
-0.296,0.021,-0.957,-0.122,1337113
-0.296,0.021,-0.957,-0.305,1337118
-0.296,0.022,-0.959,-0.122,1337123
-0.296,0.022,-0.959,-0.183,1337128
-0.296,0.021,-0.957,-0.305,1337134
-0.296,0.021,-0.957,-0.122,1337139
-0.296,0.021,-0.958,-0.061,1337144
-0.296,0.021,-0.958,-0.244,1337149
-0.296,0.021,-0.961,-0.305,1337155
-0.296,0.021,-0.961,-0.183,1337160
-0.295,0.022,-0.959,-0.305,1337165
-0.295,0.023,-0.958,-0.183,1337170
-0.295,0.023,-0.958,-0.183,1337176
-0.297,0.022,-0.957,-0.183,1337181
-0.297,0.022,-0.957,-0.122,1337186
-0.297,0.021,-0.958,-0.244,1337191
-0.297,0.021,-0.958,-0.122,1337197
-0.297,0.02,-0.958,-0.366,1337202
-0.297,0.02,-0.958,-0.244,1337207
-0.296,0.022,-0.957,-0.183,1337212
-0.296,0.022,-0.957,-0.244,1337218
-0.297,0.023,-0.96,-0.061,1337223
-0.297,0.023,-0.96,-0.061,1337228
-0.298,0.021,-0.959,-0.305,1337233
-0.298,0.021,-0.959,-0.305,1337239
-0.296,0.022,-0.958,-0.183,1337244
-0.296,0.022,-0.958,-0.183,1337249
-0.297,0.022,-0.957,-0.183,1337254
-0.297,0.022,-0.958,-0.183,1337260
-0.297,0.022,-0.958,-0.122,1337265
-0.298,0.023,-0.959,-0.183,1337270
-0.298,0.023,-0.959,-0.305,1337275
-0.298,0.022,-0.957,-0.122,1337281
-0.298,0.022,-0.957,-0.305,1337286
-0.297,0.021,-0.959,-0.305,1337291
-0.297,0.021,-0.959,-0.244,1337296
-0.296,0.024,-0.959,-0.061,1337302
-0.296,0.024,-0.959,-0.244,1337307
-0.296,0.022,-0.958,-0.122,1337312
-0.296,0.022,-0.958,-0.122,1337317
-0.298,0.022,-0.958,-0.061,1337323
-0.298,0.022,-0.958,-0.122,1337328
-0.298,0.021,-0.958,-0.183,1337333
-0.298,0.021,-0.958,-0.183,1337338
-0.297,0.021,-0.96,-0.244,1337344
-0.297,0.022,-0.959,-0.183,1337349
-0.297,0.022,-0.959,-0.122,1337354
-0.295,0.023,-0.959,-0.183,1337360
-0.295,0.023,-0.959,-0.244,1337365
-0.295,0.022,-0.959,-0.183,1337370
-0.295,0.022,-0.959,-0.183,1337375
-0.297,0.022,-0.959,-0.122,1337381
-0.297,0.022,-0.959,-0.122,1337386
-0.295,0.022,-0.958,-0.305,1337391
-0.295,0.022,-0.958,-0.183,1337396
-0.297,0.024,-0.959,-0.183,1337402
-0.297,0.024,-0.959,-0.122,1337407
-0.298,0.022,-0.959,-0.244,1337412
-0.298,0.022,-0.959,-0.244,1337417
-0.297,0.023,-0.957,-0.305,1337423
-0.296,0.022,-0.958,-0.244,1337428
-0.296,0.022,-0.958,-0.305,1337433
-0.297,0.023,-0.959,-0.244,1337438
-0.297,0.023,-0.959,-0.183,1337444
-0.296,0.024,-0.959,-0.244,1337449
-0.296,0.024,-0.959,-0.183,1337454
-0.298,0.022,-0.959,-0.183,1337459
-0.298,0.022,-0.959,-0.183,1337465
-0.296,0.023,-0.96,-0.183,1337470
-0.296,0.023,-0.96,-0.122,1337475
-0.296,0.022,-0.958,-0.183,1337480
-0.296,0.022,-0.958,-0.183,1337486
-0.297,0.022,-0.958,-0.122,1337491
-0.297,0.022,-0.958,-0.183,1337496
-0.297,0.021,-0.959,-0.183,1337501
-0.297,0.021,-0.959,-0.244,1337507
-0.296,0.024,-0.959,-0.183,1337512
-0.297,0.023,-0.959,-0.122,1337517
-0.297,0.023,-0.959,-0.244,1337522
-0.298,0.023,-0.957,-0.122,1337528
-0.298,0.023,-0.957,-0.122,1337533
-0.297,0.023,-0.958,-0.183,1337538
-0.297,0.023,-0.958,-0.244,1337543
-0.296,0.022,-0.958,-0.244,1337549
-0.296,0.022,-0.958,-0.366,1337554
-0.298,0.022,-0.959,-0.122,1337559
-0.298,0.022,-0.959,-0.122,1337564
-0.297,0.023,-0.956,-0.183,1337570
-0.297,0.023,-0.956,-0.305,1337575
-0.296,0.022,-0.959,-0.305,1337580
-0.296,0.022,-0.959,-0.122,1337585
-0.296,0.021,-0.96,-0.183,1337591
-0.296,0.021,-0.96,-0.244,1337596
-0.299,0.022,-0.96,-0.244,1337601
-0.298,0.021,-0.957,-0.122,1337606
-0.298,0.021,-0.957,-0.122,1337612
-0.297,0.022,-0.958,-0.244,1337617
-0.297,0.022,-0.958,-0.244,1337622
-0.297,0.022,-0.958,-0.305,1337628
-0.297,0.022,-0.958,-0.183,1337633
-0.297,0.023,-0.958,-0.183,1337638
-0.297,0.023,-0.958,-0.244,1337643
-0.298,0.021,-0.959,-0.122,1337649
-0.298,0.021,-0.959,-0.244,1337654
-0.297,0.022,-0.959,-0.244,1337659
-0.297,0.022,-0.959,-0.244,1337664
-0.296,0.024,-0.959,-0.244,1337670
-0.296,0.024,-0.959,-0.366,1337675
-0.296,0.022,-0.958,-0.244,1337680
-0.296,0.022,-0.958,-0.305,1337685
-0.295,0.021,-0.959,-0.366,1337691
-0.297,0.023,-0.957,-0.305,1337696
-0.297,0.023,-0.957,-0.244,1337701
-0.295,0.022,-0.958,-0.122,1337706
-0.295,0.022,-0.958,-0.061,1337712
-0.294,0.022,-0.958,-0.244,1337717
-0.294,0.022,-0.958,-0.183,1337722
-0.296,0.023,-0.959,-0.183,1337727
-0.296,0.023,-0.959,-0.305,1337733
-0.297,0.023,-0.959,-0.244,1337738
-0.297,0.023,-0.959,-0.244,1337743
-0.296,0.021,-0.958,-0.122,1337748
-0.296,0.021,-0.958,-0.244,1337754
-0.297,0.022,-0.958,-0.305,1337759
-0.297,0.022,-0.958,-0.244,1337764
-0.297,0.021,-0.96,-0.061,1337769
-0.297,0.021,-0.96,-0.183,1337775
-0.298,0.023,-0.958,-0.305,1337780
-0.297,0.022,-0.958,-0.183,1337785
-0.297,0.022,-0.958,-0.244,1337790
-0.297,0.024,-0.959,-0.244,1337796
-0.297,0.024,-0.959,-0.305,1337801
-0.296,0.023,-0.958,-0.305,1337806
-0.296,0.023,-0.958,-0.305,1337811
-0.296,0.023,-0.958,-0.305,1337817
-0.296,0.023,-0.958,-0.183,1337822
-0.297,0.023,-0.957,-0.244,1337827
-0.297,0.023,-0.957,-0.305,1337832
-0.297,0.023,-0.96,-0.305,1337838
-0.297,0.023,-0.96,-0.366,1337843
-0.297,0.022,-0.96,-0.183,1337848
-0.297,0.022,-0.96,-0.183,1337853
-0.297,0.022,-0.958,-0.305,1337859
-0.297,0.022,-0.958,-0.122,1337864
-0.297,0.022,-0.957,-0.122,1337869
-0.297,0.022,-0.958,-0.183,1337874
-0.297,0.022,-0.958,-0.061,1337880
-0.296,0.022,-0.958,-0.183,1337885
-0.296,0.022,-0.958,-0.305,1337890
-0.296,0.023,-0.958,-0.244,1337896
-0.296,0.023,-0.958,-0.122,1337901
-0.298,0.022,-0.959,-0.183,1337906
-0.298,0.022,-0.959,-0.122,1337911
-0.297,0.022,-0.957,-0.183,1337917
-0.297,0.022,-0.957,-0.183,1337922
-0.297,0.022,-0.958,-0.122,1337927
-0.297,0.022,-0.958,-0.183,1337932
-0.298,0.022,-0.958,-0.183,1337938
-0.298,0.022,-0.958,-0.122,1337943
-0.297,0.022,-0.96,-0.122,1337948
-0.297,0.022,-0.96,-0.244,1337953
-0.297,0.021,-0.959,-0.122,1337959
-0.297,0.022,-0.958,-0.244,1337964
-0.297,0.022,-0.958,-0.183,1337969
-0.297,0.024,-0.958,-0.244,1337974
-0.297,0.024,-0.958,-0.244,1337980
-0.297,0.021,-0.957,-0.305,1337985
-0.297,0.021,-0.957,-0.183,1337990
-0.297,0.022,-0.958,-0.244,1337995
-0.297,0.022,-0.958,-0.183,1338001
-0.297,0.022,-0.958,-0.183,1338006
-0.297,0.022,-0.958,-0.122,1338011
-0.297,0.023,-0.959,-0.183,1338016
-0.297,0.023,-0.959,-0.122,1338022
-0.296,0.021,-0.958,-0.183,1338027
-0.296,0.021,-0.958,-0.244,1338032
-0.298,0.021,-0.958,-0.244,1338037
-0.298,0.021,-0.958,-0.366,1338043
-0.296,0.022,-0.958,-0.122,1338048
-0.297,0.021,-0.958,-0.244,1338053
-0.297,0.021,-0.958,-0.183,1338058
-0.297,0.021,-0.959,-0.244,1338064
-0.297,0.021,-0.959,-0.183,1338069
-0.297,0.021,-0.958,-0.183,1338074
-0.297,0.021,-0.958,-0.244,1338079
-0.295,0.024,-0.959,-0.244,1338085
-0.295,0.024,-0.959,-0.122,1338090
-0.296,0.023,-0.959,-0.244,1338095
-0.296,0.023,-0.959,-0.244,1338101
-0.297,0.021,-0.958,-0.244,1338106
-0.297,0.021,-0.958,-0.244,1338111
-0.296,0.021,-0.958,-0.183,1338116
-0.296,0.021,-0.958,-0.183,1338122
-0.297,0.022,-0.958,-0.183,1338127
-0.297,0.021,-0.958,-0.183,1338132
-0.297,0.021,-0.958,-0.305,1338137
-0.296,0.022,-0.959,-0.183,1338143
-0.296,0.022,-0.959,-0.183,1338148
-0.297,0.021,-0.959,-0.366,1338153
-0.297,0.021,-0.959,-0.244,1338158
-0.297,0.022,-0.958,0.061,1338164
-0.297,0.022,-0.958,-0.061,1338169
-0.297,0.023,-0.958,-0.122,1338174
-0.297,0.023,-0.958,-0.183,1338179
-0.297,0.022,-0.958,-0.305,1338185
-0.297,0.022,-0.958,-0.183,1338190
-0.297,0.022,-0.958,-0.183,1338195
-0.297,0.022,-0.958,-0.183,1338200
-0.297,0.021,-0.957,-0.305,1338206
-0.297,0.021,-0.957,-0.244,1338211
-0.296,0.024,-0.959,-0.183,1338216
-0.297,0.023,-0.959,-0.183,1338221
-0.297,0.023,-0.959,-0.183,1338227
-0.297,0.021,-0.959,-0.305,1338232
-0.297,0.021,-0.959,-0.244,1338237
-0.296,0.022,-0.958,-0.122,1338242
-0.296,0.022,-0.958,-0.183,1338248
-0.296,0.023,-0.958,-0.183,1338253
-0.296,0.023,-0.958,-0.244,1338258
-0.297,0.023,-0.959,-0.183,1338263
-0.297,0.023,-0.959,-0.122,1338269
-0.295,0.023,-0.96,-0.122,1338274
-0.295,0.023,-0.96,-0.183,1338279
-0.296,0.022,-0.958,-0.244,1338284
-0.296,0.022,-0.958,-0.122,1338290
-0.297,0.022,-0.958,-0.183,1338295
-0.297,0.022,-0.958,-0.122,1338300
-0.298,0.023,-0.958,-0.122,1338305
-0.296,0.022,-0.957,-0.244,1338311
-0.296,0.022,-0.957,-0.244,1338316
-0.295,0.022,-0.958,-0.183,1338321
-0.295,0.022,-0.958,-0.061,1338326
-0.297,0.02,-0.958,-0.122,1338332
-0.297,0.02,-0.958,-0.061,1338337
-0.296,0.022,-0.959,-0.244,1338342
-0.296,0.022,-0.959,-0.122,1338347
-0.297,0.022,-0.959,-0.183,1338353
-0.297,0.022,-0.959,-0.122,1338358
-0.297,0.022,-0.957,-0.244,1338363
-0.297,0.022,-0.957,-0.183,1338368
-0.296,0.022,-0.958,-0.122,1338374
-0.296,0.022,-0.958,-0.183,1338379
-0.298,0.024,-0.959,-0.305,1338384
-0.298,0.024,-0.959,-0.122,1338389
-0.298,0.023,-0.959,-0.244,1338395
-0.295,0.023,-0.958,-0.183,1338400
-0.295,0.023,-0.958,-0.183,1338405
-0.295,0.023,-0.958,-0.122,1338410
-0.295,0.023,-0.958,-0.305,1338416
-0.297,0.023,-0.958,-0.305,1338421
-0.297,0.023,-0.958,-0.244,1338426
-0.297,0.022,-0.958,-0.244,1338432
-0.297,0.022,-0.958,-0.122,1338437
-0.295,0.021,-0.958,-0.122,1338442
-0.295,0.021,-0.958,-0.122,1338447
-0.297,0.022,-0.959,-0.122,1338453
-0.297,0.022,-0.959,-0.183,1338458
-0.295,0.021,-0.958,-0.244,1338463
-0.295,0.021,-0.958,-0.244,1338468
-0.297,0.021,-0.96,-0.122,1338474
-0.297,0.021,-0.96,-0.183,1338479
-0.297,0.023,-0.958,-0.183,1338484
-0.296,0.021,-0.958,-0.183,1338489
-0.296,0.021,-0.958,-0.183,1338495
-0.297,0.021,-0.959,-0.244,1338500
-0.297,0.021,-0.959,-0.061,1338505
-0.297,0.022,-0.957,-0.183,1338510
-0.297,0.022,-0.957,-0.183,1338516
-0.296,0.022,-0.958,-0.122,1338521
-0.296,0.022,-0.958,-0.183,1338526
-0.296,0.022,-0.958,-0.183,1338531
-0.296,0.022,-0.958,-0.244,1338537
-0.294,0.023,-0.959,-0.183,1338542
-0.294,0.023,-0.959,-0.122,1338547
-0.296,0.021,-0.959,-0.183,1338552
-0.296,0.021,-0.959,-0.244,1338558
-0.297,0.023,-0.959,-0.061,1338563
-0.297,0.023,-0.959,-0.122,1338568
-0.297,0.023,-0.958,-0.183,1338573
-0.296,0.022,-0.958,-0.244,1338579
-0.296,0.022,-0.958,-0.183,1338584
-0.297,0.022,-0.959,-0.122,1338589
-0.297,0.022,-0.959,-0.183,1338594
-0.297,0.023,-0.959,-0.183,1338600
-0.297,0.023,-0.959,-0.244,1338605
-0.296,0.022,-0.96,-0.122,1338610
-0.296,0.022,-0.96,-0.305,1338615
-0.298,0.023,-0.959,-0.305,1338621
-0.298,0.023,-0.959,-0.183,1338626
-0.298,0.023,-0.958,-0.183,1338631
-0.298,0.023,-0.958,-0.122,1338636
-0.296,0.022,-0.959,-0.244,1338642
-0.296,0.022,-0.959,-0.305,1338647
-0.297,0.024,-0.96,-0.061,1338652
-0.297,0.024,-0.96,-0.244,1338657
-0.297,0.024,-0.96,-0.122,1338663
-0.296,0.022,-0.959,-0.122,1338668
-0.296,0.022,-0.959,-0.244,1338673
-0.294,0.023,-0.958,-0.244,1338678
-0.294,0.023,-0.958,-0.305,1338684
-0.295,0.023,-0.958,0.0,1338689
-0.295,0.023,-0.958,-0.183,1338694
-0.298,0.021,-0.958,-0.244,1338699
-0.298,0.021,-0.958,-0.183,1338705
-0.297,0.021,-0.96,-0.366,1338710
-0.297,0.021,-0.96,-0.366,1338715
-0.296,0.023,-0.958,-0.122,1338720
-0.296,0.023,-0.958,-0.244,1338726
-0.297,0.025,-0.958,-0.244,1338731
-0.297,0.025,-0.958,-0.183,1338736
-0.296,0.022,-0.96,-0.183,1338741
-0.296,0.022,-0.96,-0.183,1338747
-0.295,0.022,-0.959,-0.183,1338752
-0.296,0.021,-0.958,-0.244,1338757
-0.296,0.021,-0.958,-0.244,1338762
-0.297,0.023,-0.96,-0.122,1338768
-0.297,0.023,-0.96,-0.183,1338773
-0.298,0.023,-0.959,-0.244,1338778
-0.298,0.023,-0.959,-0.183,1338783
-0.297,0.023,-0.957,-0.244,1338789
-0.297,0.023,-0.957,-0.183,1338794
-0.298,0.023,-0.958,-0.244,1338799
-0.298,0.023,-0.958,-0.244,1338804
-0.297,0.022,-0.959,-0.183,1338810
-0.297,0.022,-0.959,-0.183,1338815
-0.296,0.022,-0.96,-0.305,1338820
-0.296,0.022,-0.96,-0.305,1338825
-0.297,0.023,-0.958,-0.244,1338831
-0.297,0.023,-0.958,-0.244,1338836
-0.297,0.023,-0.959,-0.122,1338841
-0.297,0.023,-0.959,-0.244,1338847
-0.297,0.023,-0.959,-0.183,1338852
-0.297,0.022,-0.96,-0.183,1338857
-0.297,0.022,-0.96,-0.183,1338862
-0.296,0.023,-0.957,-0.244,1338868
-0.296,0.023,-0.957,-0.122,1338873
-0.297,0.023,-0.958,-0.061,1338878
-0.297,0.023,-0.958,-0.244,1338883
-0.299,0.022,-0.959,-0.122,1338889
-0.299,0.022,-0.959,-0.305,1338894
-0.297,0.023,-0.959,-0.183,1338899
-0.297,0.023,-0.959,-0.122,1338904
-0.296,0.023,-0.958,-0.305,1338910
-0.296,0.023,-0.958,-0.305,1338915
-0.296,0.021,-0.958,-0.183,1338920
-0.296,0.021,-0.958,-0.183,1338925
-0.297,0.023,-0.958,-0.244,1338931
-0.298,0.024,-0.959,-0.244,1338936
-0.298,0.024,-0.959,-0.122,1338941
-0.298,0.023,-0.958,-0.244,1338946
-0.298,0.023,-0.958,-0.305,1338952
-0.298,0.021,-0.96,-0.305,1338957
-0.298,0.021,-0.96,-0.244,1338962
-0.296,0.023,-0.96,-0.244,1338967
-0.296,0.023,-0.96,-0.305,1338973
-0.296,0.024,-0.958,-0.305,1338978
-0.296,0.024,-0.958,-0.305,1338983
-0.297,0.022,-0.957,-0.244,1338988
-0.297,0.022,-0.957,-0.061,1338994
-0.297,0.022,-0.959,0.0,1338999
-0.297,0.022,-0.959,-0.244,1339004
-0.296,0.023,-0.959,-0.183,1339009
-0.296,0.023,-0.959,-0.122,1339015
-0.296,0.021,-0.958,-0.183,1339020
-0.296,0.022,-0.958,-0.183,1339025
-0.296,0.022,-0.958,-0.244,1339030
-0.297,0.022,-0.958,-0.183,1339036
-0.297,0.022,-0.958,-0.183,1339041
-0.296,0.022,-0.958,-0.244,1339046
-0.296,0.022,-0.958,-0.183,1339051
-0.295,0.021,-0.96,-0.183,1339057
-0.295,0.021,-0.96,-0.305,1339062
-0.297,0.022,-0.96,-0.305,1339067
-0.297,0.022,-0.96,-0.305,1339072
-0.298,0.022,-0.959,-0.305,1339078
-0.298,0.022,-0.959,-0.122,1339083
-0.297,0.022,-0.958,-0.122,1339088
-0.297,0.022,-0.958,-0.305,1339093
-0.298,0.022,-0.958,-0.244,1339099
-0.298,0.022,-0.958,-0.061,1339104
-0.297,0.024,-0.958,-0.244,1339109
-0.297,0.022,-0.958,-0.244,1339114
-0.297,0.022,-0.958,-0.183,1339120
-0.296,0.022,-0.959,-0.244,1339125
-0.296,0.022,-0.959,-0.183,1339130
-0.297,0.023,-0.958,-0.122,1339135
-0.297,0.023,-0.958,-0.244,1339141
-0.297,0.023,-0.959,-0.122,1339146
-0.297,0.023,-0.959,-0.122,1339151
-0.297,0.021,-0.958,-0.183,1339156
-0.297,0.021,-0.958,-0.122,1339162
-0.296,0.023,-0.959,-0.305,1339167
-0.296,0.023,-0.959,-0.244,1339172
-0.295,0.022,-0.959,-0.244,1339177
-0.295,0.022,-0.959,-0.183,1339183
-0.296,0.022,-0.959,-0.244,1339188
-0.296,0.022,-0.959,-0.122,1339193
-0.296,0.022,-0.959,-0.183,1339198
-0.297,0.023,-0.959,-0.244,1339204
-0.297,0.023,-0.959,-0.183,1339209
-0.297,0.023,-0.959,-0.244,1339214
-0.297,0.023,-0.959,-0.305,1339220
-0.297,0.022,-0.958,-0.183,1339225
-0.297,0.022,-0.958,-0.122,1339230
-0.296,0.022,-0.959,-0.122,1339235
-0.296,0.022,-0.959,-0.122,1339241
-0.295,0.023,-0.958,-0.122,1339246
-0.295,0.023,-0.958,-0.305,1339251
-0.295,0.023,-0.959,-0.244,1339256
-0.295,0.023,-0.959,-0.183,1339262
-0.298,0.023,-0.96,-0.244,1339267
-0.298,0.023,-0.96,-0.305,1339272
-0.296,0.023,-0.958,-0.427,1339277
-0.296,0.023,-0.958,-0.366,1339283
-0.296,0.022,-0.958,-0.183,1339288
-0.296,0.022,-0.959,-0.061,1339293
-0.296,0.022,-0.959,-0.244,1339298
-0.297,0.022,-0.958,-0.427,1339304
-0.297,0.022,-0.958,-0.244,1339309
-0.297,0.021,-0.959,-0.244,1339314
-0.297,0.021,-0.959,-0.244,1339319
-0.298,0.022,-0.959,-0.244,1339325
-0.298,0.022,-0.959,-0.183,1339330
-0.297,0.022,-0.958,-0.183,1339335
-0.297,0.022,-0.958,-0.244,1339340
-0.296,0.024,-0.958,-0.244,1339346
-0.296,0.024,-0.958,-0.183,1339351
-0.297,0.023,-0.959,-0.244,1339356
-0.297,0.023,-0.959,-0.183,1339361
-0.297,0.022,-0.958,-0.244,1339367
-0.297,0.022,-0.958,-0.244,1339372
-0.297,0.022,-0.959,-0.183,1339377
-0.299,0.022,-0.959,-0.244,1339382
-0.299,0.022,-0.959,-0.305,1339388
-0.298,0.022,-0.958,-0.244,1339393
-0.298,0.022,-0.958,-0.183,1339398
-0.295,0.022,-0.957,-0.244,1339403
-0.295,0.022,-0.957,-0.122,1339409
-0.297,0.022,-0.959,-0.122,1339414
-0.297,0.022,-0.959,-0.183,1339419
-0.296,0.021,-0.958,-0.244,1339424
-0.296,0.021,-0.958,-0.183,1339430
-0.298,0.022,-0.958,-0.183,1339435
-0.298,0.022,-0.958,-0.244,1339440
-0.297,0.022,-0.958,-0.244,1339445
-0.297,0.022,-0.958,-0.122,1339451
-0.297,0.023,-0.957,0.0,1339456
-0.297,0.023,-0.957,-0.183,1339461
-0.295,0.022,-0.958,-0.305,1339466
-0.296,0.021,-0.958,-0.183,1339472
-0.296,0.021,-0.958,-0.305,1339477
-0.297,0.023,-0.957,-0.366,1339482
-0.297,0.023,-0.957,-0.244,1339487
-0.296,0.024,-0.958,-0.488,1339493
-0.296,0.024,-0.958,-0.244,1339498
-0.296,0.022,-0.958,-0.061,1339503
-0.296,0.022,-0.958,-0.183,1339508
-0.296,0.022,-0.959,-0.244,1339514
-0.296,0.022,-0.959,-0.244,1339519
-0.297,0.023,-0.958,-0.244,1339524
-0.297,0.023,-0.958,-0.122,1339529
-0.297,0.024,-0.958,-0.183,1339535
-0.297,0.024,-0.958,-0.244,1339540
-0.297,0.023,-0.96,-0.183,1339545
-0.297,0.022,-0.959,-0.183,1339550
-0.297,0.022,-0.959,-0.183,1339556
-0.297,0.021,-0.958,-0.244,1339561
-0.297,0.021,-0.958,-0.305,1339566
-0.296,0.024,-0.959,-0.305,1339571
-0.296,0.024,-0.959,-0.305,1339577
-0.297,0.022,-0.959,-0.305,1339582
-0.297,0.022,-0.959,-0.244,1339587
-0.296,0.021,-0.958,-0.305,1339592
-0.296,0.021,-0.958,-0.305,1339598
-0.296,0.023,-0.958,-0.244,1339603
-0.296,0.023,-0.958,-0.183,1339608
-0.296,0.021,-0.959,-0.183,1339613
-0.296,0.021,-0.959,-0.183,1339619
-0.297,0.022,-0.959,-0.183,1339624
-0.297,0.022,-0.959,-0.244,1339629
-0.297,0.022,-0.958,-0.183,1339634
-0.297,0.022,-0.957,-0.183,1339640
-0.297,0.022,-0.957,-0.305,1339645
-0.297,0.023,-0.958,-0.244,1339650
-0.297,0.023,-0.958,-0.244,1339655
-0.296,0.021,-0.957,-0.122,1339661
-0.296,0.021,-0.957,-0.183,1339666
-0.297,0.022,-0.957,-0.183,1339671
-0.297,0.022,-0.957,-0.366,1339677
-0.296,0.022,-0.958,-0.305,1339682
-0.296,0.022,-0.958,-0.122,1339687
-0.295,0.022,-0.958,-0.061,1339692
-0.295,0.022,-0.958,-0.061,1339698
-0.297,0.023,-0.959,-0.183,1339703
-0.297,0.023,-0.959,-0.244,1339708
-0.295,0.022,-0.959,-0.183,1339713
-0.295,0.022,-0.959,-0.366,1339719
-0.297,0.022,-0.958,-0.183,1339724
-0.296,0.022,-0.957,-0.122,1339729
-0.296,0.022,-0.957,-0.183,1339734
-0.297,0.022,-0.96,-0.183,1339740
-0.297,0.022,-0.96,-0.183,1339745
-0.296,0.023,-0.958,-0.305,1339750
-0.296,0.023,-0.958,-0.183,1339755
-0.296,0.022,-0.958,-0.244,1339761
-0.296,0.022,-0.958,-0.183,1339766
-0.298,0.023,-0.959,-0.122,1339771
-0.298,0.023,-0.959,-0.061,1339776
-0.296,0.024,-0.96,-0.122,1339782
-0.296,0.024,-0.96,-0.122,1339787
-0.297,0.023,-0.959,-0.183,1339792
-0.297,0.023,-0.959,-0.183,1339797
-0.298,0.022,-0.96,-0.122,1339803
-0.298,0.022,-0.96,-0.122,1339808
-0.296,0.023,-0.959,-0.122,1339813
-0.296,0.023,-0.959,-0.183,1339818
-0.296,0.023,-0.959,-0.183,1339824
-0.297,0.024,-0.958,-0.183,1339829
-0.297,0.024,-0.958,-0.061,1339834
-0.296,0.022,-0.96,-0.122,1339839
-0.296,0.022,-0.96,-0.183,1339845
-0.298,0.023,-0.959,-0.122,1339850
-0.298,0.023,-0.959,-0.244,1339855
-0.298,0.022,-0.958,-0.366,1339860
-0.298,0.022,-0.958,-0.122,1339866
-0.296,0.022,-0.958,-0.305,1339871
-0.296,0.022,-0.958,-0.305,1339876
-0.297,0.021,-0.959,-0.122,1339881
-0.297,0.021,-0.959,-0.305,1339887
-0.296,0.02,-0.958,-0.183,1339892
-0.296,0.02,-0.958,-0.183,1339897
-0.296,0.022,-0.959,-0.305,1339902
-0.298,0.022,-0.959,-0.244,1339908
-0.298,0.022,-0.959,-0.183,1339913
-0.297,0.021,-0.958,-0.183,1339918
-0.297,0.021,-0.958,-0.183,1339923
-0.296,0.021,-0.958,-0.183,1339929
-0.296,0.021,-0.958,-0.122,1339934
-0.297,0.022,-0.959,-0.122,1339939
-0.297,0.022,-0.959,-0.122,1339944
-0.297,0.021,-0.961,-0.061,1339950
-0.297,0.021,-0.961,-0.061,1339955
-0.296,0.023,-0.958,-0.183,1339960
-0.296,0.023,-0.958,-0.183,1339965
-0.297,0.022,-0.958,-0.244,1339971
-0.297,0.022,-0.958,-0.244,1339976
-0.296,0.023,-0.961,-0.183,1339981
-0.296,0.023,-0.961,-0.183,1339987
-0.297,0.023,-0.958,-0.244,1339992
-0.296,0.022,-0.959,-0.122,1339997
-0.296,0.022,-0.959,-0.183,1340002
-0.295,0.022,-0.958,-0.183,1340008
-0.295,0.022,-0.958,-0.183,1340013
-0.295,0.023,-0.96,-0.122,1340018
-0.295,0.023,-0.96,-0.244,1340023
-0.295,0.022,-0.96,-0.244,1340029
-0.295,0.022,-0.96,-0.244,1340034
-0.297,0.024,-0.959,-0.244,1340039
-0.297,0.024,-0.959,-0.366,1340044
-0.298,0.024,-0.956,-0.061,1340050
-0.298,0.024,-0.956,-0.061,1340055
-0.297,0.024,-0.958,-0.183,1340060
-0.297,0.024,-0.958,-0.122,1340065
-0.296,0.023,-0.959,-0.122,1340071
-0.296,0.023,-0.959,-0.305,1340076
-0.297,0.023,-0.956,-0.183,1340081
-0.298,0.023,-0.957,-0.305,1340086
-0.298,0.023,-0.957,-0.183,1340092
-0.298,0.024,-0.958,-0.122,1340097
-0.298,0.024,-0.958,-0.244,1340102
-0.299,0.023,-0.959,-0.122,1340107
-0.299,0.023,-0.959,-0.244,1340113
-0.299,0.023,-0.959,-0.305,1340118
-0.299,0.023,-0.959,-0.244,1340123
-0.297,0.023,-0.958,0.0,1340128
-0.297,0.023,-0.958,-0.122,1340134
-0.297,0.023,-0.959,-0.305,1340139
-0.297,0.023,-0.959,-0.488,1340144
-0.296,0.022,-0.959,-0.488,1340149
-0.296,0.022,-0.959,-0.366,1340155
-0.297,0.022,-0.959,-0.244,1340160
-0.297,0.022,-0.959,-0.244,1340165
-0.297,0.022,-0.959,-0.122,1340170
-0.298,0.021,-0.959,-0.305,1340176
-0.298,0.021,-0.959,-0.244,1340181
-0.296,0.022,-0.959,-0.244,1340186
-0.296,0.022,-0.959,-0.305,1340191
-0.296,0.023,-0.958,-0.366,1340197
-0.296,0.023,-0.958,-0.244,1340202
-0.297,0.023,-0.957,-0.183,1340207
-0.297,0.023,-0.957,-0.244,1340212
-0.296,0.022,-0.959,-0.244,1340218
-0.296,0.022,-0.959,-0.183,1340223
-0.297,0.022,-0.96,-0.244,1340228
-0.297,0.022,-0.96,-0.244,1340233
-0.296,0.021,-0.959,-0.061,1340239
-0.296,0.021,-0.959,-0.122,1340244
-0.295,0.022,-0.959,-0.366,1340249
-0.295,0.022,-0.959,-0.244,1340254
-0.296,0.022,-0.959,-0.305,1340260
-0.297,0.022,-0.957,-0.183,1340265
-0.297,0.022,-0.957,-0.244,1340270
-0.297,0.022,-0.958,-0.244,1340275
-0.297,0.022,-0.958,-0.244,1340281
-0.296,0.023,-0.96,-0.244,1340286
-0.296,0.023,-0.96,-0.183,1340291
-0.297,0.022,-0.958,-0.122,1340296
-0.297,0.022,-0.958,-0.183,1340302
-0.298,0.021,-0.959,-0.183,1340307
-0.298,0.021,-0.959,-0.244,1340312
-0.298,0.022,-0.958,-0.061,1340318
-0.298,0.022,-0.958,-0.183,1340323
-0.296,0.021,-0.957,-0.122,1340328
-0.296,0.021,-0.957,-0.244,1340333
-0.297,0.022,-0.958,-0.183,1340339
-0.297,0.022,-0.958,-0.244,1340344
-0.297,0.021,-0.956,-0.061,1340349
-0.296,0.022,-0.956,-0.122,1340354
-0.296,0.022,-0.956,-0.244,1340360
-0.296,0.023,-0.958,-0.122,1340365
-0.296,0.023,-0.958,-0.244,1340370
-0.297,0.024,-0.96,-0.183,1340375
-0.297,0.024,-0.96,-0.183,1340381
-0.296,0.022,-0.958,-0.183,1340386
-0.296,0.022,-0.958,-0.183,1340391
-0.295,0.023,-0.959,-0.244,1340396
-0.295,0.023,-0.959,-0.183,1340402
-0.296,0.024,-0.956,-0.244,1340407
-0.296,0.024,-0.956,-0.183,1340412
-0.299,0.022,-0.959,-0.244,1340417
-0.299,0.022,-0.959,-0.244,1340423
-0.297,0.023,-0.959,-0.183,1340428
-0.297,0.023,-0.959,-0.244,1340433
-0.297,0.023,-0.958,-0.061,1340438
-0.297,0.023,-0.959,-0.305,1340444
-0.297,0.023,-0.959,-0.305,1340449
-0.296,0.022,-0.96,-0.244,1340454
-0.296,0.022,-0.96,-0.122,1340459
-0.296,0.021,-0.961,-0.183,1340465
-0.296,0.021,-0.961,-0.061,1340470
-0.296,0.022,-0.958,-0.061,1340475
-0.296,0.022,-0.958,-0.244,1340480
-0.296,0.023,-0.96,-0.244,1340486
-0.296,0.023,-0.96,-0.122,1340491
-0.296,0.021,-0.959,-0.122,1340496
-0.296,0.021,-0.959,-0.305,1340501
-0.296,0.022,-0.96,-0.183,1340507
-0.296,0.022,-0.96,-0.244,1340512
-0.296,0.021,-0.957,-0.244,1340517
-0.297,0.023,-0.957,-0.244,1340522
-0.297,0.023,-0.957,-0.244,1340528
-0.295,0.023,-0.959,-0.244,1340533
-0.295,0.023,-0.959,-0.427,1340538
-0.295,0.02,-0.96,-0.122,1340544
-0.295,0.02,-0.96,-0.122,1340549
-0.297,0.022,-0.958,-0.183,1340554
-0.297,0.022,-0.958,-0.244,1340559
-0.295,0.021,-0.957,-0.183,1340565
-0.295,0.021,-0.957,-0.183,1340570
-0.296,0.022,-0.957,-0.122,1340575
-0.296,0.022,-0.957,-0.183,1340580
-0.296,0.021,-0.957,-0.183,1340586
-0.296,0.021,-0.957,-0.244,1340591
-0.298,0.02,-0.958,-0.122,1340596
-0.298,0.02,-0.958,-0.122,1340601
-0.299,0.021,-0.959,-0.305,1340607
-0.298,0.022,-0.959,-0.061,1340612
-0.298,0.022,-0.959,-0.244,1340617
-0.296,0.023,-0.958,-0.183,1340622
-0.296,0.023,-0.958,-0.122,1340628
-0.296,0.022,-0.958,-0.183,1340633
-0.296,0.022,-0.958,-0.061,1340638
-0.297,0.024,-0.96,-0.061,1340643
-0.297,0.024,-0.96,-0.061,1340649
-0.296,0.023,-0.957,-0.183,1340654
-0.296,0.023,-0.957,-0.244,1340659
-0.297,0.023,-0.958,-0.244,1340664
-0.297,0.023,-0.958,-0.244,1340670
-0.298,0.023,-0.958,-0.122,1340675
-0.298,0.023,-0.958,-0.305,1340680
-0.298,0.024,-0.96,-0.244,1340685
-0.298,0.024,-0.96,-0.183,1340691
-0.296,0.023,-0.96,-0.305,1340696
-0.297,0.023,-0.959,-0.122,1340701
-0.297,0.023,-0.959,-0.244,1340706
-0.297,0.023,-0.96,-0.183,1340712
-0.297,0.023,-0.96,-0.305,1340717
-0.296,0.023,-0.959,-0.061,1340722
-0.296,0.023,-0.959,-0.183,1340727
-0.295,0.022,-0.959,-0.305,1340733
-0.295,0.022,-0.959,-0.122,1340738
-0.295,0.023,-0.96,-0.061,1340743
-0.295,0.023,-0.96,-0.183,1340748
-0.295,0.023,-0.96,-0.244,1340754
-0.295,0.023,-0.96,-0.366,1340759
-0.297,0.025,-0.96,-0.244,1340764
-0.297,0.025,-0.96,-0.183,1340769
-0.296,0.026,-0.958,-0.183,1340775
-0.296,0.026,-0.958,-0.305,1340780
-0.296,0.027,-0.959,-0.244,1340785
-0.296,0.026,-0.958,-0.244,1340790
-0.296,0.026,-0.958,-0.244,1340796
-0.294,0.026,-0.958,-0.366,1340801
-0.294,0.026,-0.958,-0.305,1340806
-0.295,0.026,-0.959,-0.305,1340811
-0.295,0.026,-0.959,-0.183,1340817
-0.296,0.025,-0.959,-0.122,1340822
-0.296,0.025,-0.959,-0.183,1340827
-0.296,0.025,-0.96,-0.244,1340832
-0.296,0.025,-0.96,-0.244,1340838
-0.297,0.025,-0.959,-0.305,1340843
-0.297,0.025,-0.959,-0.305,1340848
-0.298,0.026,-0.959,-0.183,1340853
-0.298,0.026,-0.959,-0.244,1340859
-0.297,0.026,-0.958,-0.366,1340864
-0.297,0.026,-0.958,-0.244,1340869
-0.297,0.024,-0.96,-0.244,1340875
-0.298,0.023,-0.959,-0.183,1340880
-0.298,0.023,-0.959,-0.244,1340885
-0.297,0.024,-0.957,-0.366,1340890
-0.297,0.024,-0.957,-0.305,1340896
-0.299,0.024,-0.957,-0.305,1340901
-0.299,0.024,-0.957,-0.366,1340906
-0.299,0.023,-0.958,-0.183,1340911
-0.299,0.023,-0.958,-0.305,1340917
-0.298,0.025,-0.957,-0.488,1340922
-0.298,0.025,-0.957,-0.366,1340927
-0.299,0.021,-0.957,-0.183,1340932
-0.299,0.021,-0.957,-0.488,1340938
-0.299,0.02,-0.956,-0.427,1340943
-0.299,0.02,-0.956,-0.305,1340948
-0.299,0.02,-0.956,-0.244,1340953
-0.299,0.02,-0.956,-0.183,1340959
-0.299,0.017,-0.958,-0.366,1340964
-0.297,0.015,-0.957,-0.305,1340969
-0.297,0.015,-0.957,-0.366,1340974
-0.298,0.016,-0.956,-0.305,1340980
-0.298,0.016,-0.956,-0.244,1340985
-0.297,0.015,-0.957,-0.244,1340990
-0.297,0.015,-0.957,-0.244,1340995
-0.294,0.013,-0.958,-0.183,1341001
-0.294,0.013,-0.958,-0.122,1341006
-0.295,0.013,-0.958,-0.122,1341011
-0.295,0.013,-0.958,-0.061,1341016
-0.295,0.015,-0.96,-0.244,1341022
-0.295,0.015,-0.96,-0.061,1341027
-0.293,0.016,-0.959,-0.122,1341032
-0.293,0.016,-0.959,-0.305,1341037
-0.293,0.016,-0.957,-0.244,1341043
-0.293,0.016,-0.957,-0.183,1341048
-0.296,0.017,-0.958,-0.122,1341053
-0.295,0.019,-0.958,-0.183,1341058
-0.295,0.019,-0.958,0.061,1341064
-0.294,0.021,-0.956,0.0,1341069
-0.294,0.021,-0.956,-0.061,1341074
-0.296,0.023,-0.958,-0.061,1341079
-0.296,0.023,-0.958,-0.122,1341085
-0.298,0.022,-0.959,-0.122,1341090
-0.298,0.022,-0.959,-0.122,1341095
-0.298,0.026,-0.959,-0.061,1341100
-0.298,0.026,-0.959,-0.183,1341106
-0.298,0.028,-0.959,-0.122,1341111
-0.298,0.028,-0.959,-0.183,1341116
-0.299,0.028,-0.961,-0.244,1341121
-0.299,0.028,-0.961,-0.244,1341127
-0.298,0.028,-0.959,-0.183,1341132
-0.298,0.028,-0.959,-0.122,1341137
-0.299,0.029,-0.961,-0.122,1341142
-0.3,0.029,-0.96,-0.244,1341148
-0.3,0.029,-0.96,-0.305,1341153
-0.297,0.03,-0.96,-0.244,1341158
-0.297,0.03,-0.96,-0.183,1341163
-0.296,0.03,-0.96,-0.183,1341169
-0.296,0.03,-0.96,-0.305,1341174
-0.296,0.029,-0.958,-0.305,1341179
-0.296,0.029,-0.958,-0.305,1341184
-0.297,0.029,-0.959,-0.366,1341190
-0.297,0.029,-0.959,-0.427,1341195
-0.299,0.026,-0.959,-0.305,1341200
-0.299,0.026,-0.959,-0.122,1341205
-0.297,0.024,-0.959,-0.305,1341211
-0.297,0.024,-0.959,-0.244,1341216
-0.296,0.024,-0.959,-0.183,1341221
-0.296,0.024,-0.959,-0.183,1341226
-0.296,0.022,-0.959,-0.366,1341232
-0.294,0.019,-0.959,-0.427,1341237
-0.294,0.019,-0.959,-0.305,1341242
-0.295,0.021,-0.958,-0.366,1341247
-0.295,0.021,-0.958,-0.366,1341253
-0.296,0.019,-0.959,-0.305,1341258
-0.296,0.019,-0.959,-0.366,1341263
-0.296,0.018,-0.958,-0.244,1341268
-0.296,0.018,-0.958,-0.305,1341274
-0.296,0.016,-0.96,-0.366,1341279
-0.296,0.016,-0.96,-0.244,1341284
-0.294,0.015,-0.958,-0.244,1341290
-0.294,0.015,-0.958,-0.305,1341295
-0.295,0.015,-0.958,-0.244,1341300
-0.295,0.015,-0.958,-0.244,1341305
-0.293,0.015,-0.957,-0.305,1341311
-0.293,0.015,-0.957,-0.244,1341316
-0.296,0.015,-0.957,-0.305,1341321
-0.295,0.015,-0.959,-0.366,1341326
-0.295,0.015,-0.959,-0.122,1341332
-0.296,0.016,-0.958,-0.183,1341337
-0.296,0.016,-0.958,-0.244,1341342
-0.297,0.016,-0.956,-0.061,1341347
-0.297,0.016,-0.956,-0.244,1341353
-0.298,0.016,-0.958,-0.061,1341358
-0.298,0.016,-0.958,-0.183,1341363
-0.297,0.017,-0.957,-0.122,1341368
-0.297,0.017,-0.957,-0.122,1341374
-0.297,0.019,-0.957,-0.244,1341379
-0.297,0.019,-0.957,-0.183,1341384
-0.299,0.019,-0.958,-0.244,1341389
-0.299,0.019,-0.958,-0.122,1341395
-0.297,0.021,-0.96,-0.183,1341400
-0.297,0.021,-0.96,-0.122,1341405
-0.297,0.022,-0.961,0.0,1341410
-0.298,0.025,-0.959,-0.061,1341416
-0.298,0.025,-0.959,-0.061,1341421
-0.297,0.027,-0.961,-0.122,1341426
-0.297,0.027,-0.961,-0.122,1341431
-0.297,0.026,-0.959,-0.183,1341437
-0.297,0.026,-0.959,-0.183,1341442
-0.296,0.027,-0.958,-0.244,1341447
-0.296,0.027,-0.958,-0.183,1341452
-0.299,0.026,-0.959,-0.122,1341458
-0.299,0.026,-0.959,-0.244,1341463
-0.296,0.025,-0.959,-0.183,1341468
-0.296,0.025,-0.959,-0.183,1341473
-0.296,0.025,-0.96,-0.183,1341479
-0.296,0.025,-0.96,-0.244,1341484
-0.295,0.026,-0.96,-0.244,1341489
-0.295,0.026,-0.96,-0.183,1341494
-0.295,0.024,-0.959,-0.488,1341500
-0.297,0.023,-0.962,-0.427,1341505
-0.297,0.023,-0.962,-0.244,1341510
-0.294,0.024,-0.96,-0.244,1341515
-0.294,0.024,-0.96,-0.366,1341521
-0.295,0.022,-0.958,-0.305,1341526
-0.295,0.022,-0.958,-0.305,1341531
-0.294,0.022,-0.959,-0.244,1341536
-0.294,0.022,-0.959,-0.244,1341542
-0.294,0.02,-0.959,-0.305,1341547
-0.294,0.02,-0.959,-0.305,1341552
-0.297,0.022,-0.958,-0.244,1341557
-0.297,0.022,-0.958,-0.183,1341563
-0.298,0.019,-0.959,-0.244,1341568
-0.298,0.019,-0.959,-0.183,1341573
-0.297,0.019,-0.956,-0.244,1341578
-0.297,0.019,-0.956,-0.244,1341584
-0.296,0.02,-0.958,-0.305,1341589
-0.297,0.02,-0.957,-0.305,1341594
-0.297,0.02,-0.957,-0.183,1341599
-0.296,0.017,-0.957,-0.183,1341605
-0.296,0.017,-0.957,-0.244,1341610
-0.297,0.016,-0.956,-0.244,1341615
-0.297,0.016,-0.956,-0.183,1341620
-0.298,0.017,-0.957,-0.244,1341626
-0.298,0.017,-0.957,-0.183,1341631
-0.298,0.018,-0.956,-0.183,1341636
-0.298,0.018,-0.956,-0.183,1341642
-0.298,0.02,-0.957,-0.183,1341647
-0.298,0.02,-0.957,-0.305,1341652
-0.297,0.02,-0.958,-0.183,1341657
-0.297,0.02,-0.958,-0.122,1341663
-0.297,0.019,-0.958,-0.183,1341668
-0.298,0.019,-0.958,-0.122,1341673
-0.298,0.019,-0.958,-0.122,1341678
-0.297,0.02,-0.957,-0.305,1341684
-0.297,0.02,-0.957,-0.061,1341689
-0.297,0.021,-0.959,0.0,1341694
-0.297,0.021,-0.959,-0.061,1341699
-0.296,0.023,-0.959,-0.122,1341704
-0.296,0.023,-0.959,-0.061,1341710
-0.299,0.024,-0.959,-0.244,1341715
-0.299,0.024,-0.959,-0.183,1341720
-0.298,0.025,-0.96,-0.061,1341725
-0.298,0.025,-0.96,-0.183,1341731
-0.297,0.024,-0.962,-0.183,1341736
-0.297,0.024,-0.962,-0.244,1341741
-0.295,0.023,-0.962,-0.183,1341747
-0.295,0.023,-0.962,-0.183,1341752
-0.295,0.025,-0.96,-0.244,1341757
-0.295,0.025,-0.96,-0.305,1341762
-0.295,0.025,-0.96,-0.183,1341768
-0.294,0.024,-0.961,-0.244,1341773
-0.294,0.024,-0.961,-0.244,1341778
-0.295,0.026,-0.961,-0.122,1341783
-0.295,0.026,-0.961,-0.366,1341789
-0.295,0.025,-0.959,-0.244,1341794
-0.295,0.025,-0.959,-0.183,1341799
-0.295,0.024,-0.959,-0.183,1341804
-0.295,0.024,-0.959,-0.244,1341810
-0.295,0.025,-0.96,-0.305,1341815
-0.295,0.025,-0.96,-0.244,1341820
-0.295,0.025,-0.959,-0.244,1341825
-0.295,0.025,-0.959,-0.305,1341831
-0.297,0.024,-0.959,-0.244,1341836
-0.297,0.024,-0.959,-0.305,1341841
-0.297,0.022,-0.959,-0.366,1341846
-0.297,0.022,-0.959,-0.305,1341852
-0.296,0.021,-0.959,-0.305,1341857
-0.298,0.022,-0.958,-0.244,1341862
-0.298,0.022,-0.958,-0.244,1341867
-0.299,0.02,-0.959,-0.305,1341873
-0.299,0.02,-0.959,-0.366,1341878
-0.298,0.021,-0.958,-0.244,1341883
-0.298,0.021,-0.958,-0.183,1341888
-0.297,0.019,-0.957,-0.244,1341894
-0.297,0.019,-0.957,-0.183,1341899
-0.297,0.019,-0.957,-0.122,1341904
-0.297,0.019,-0.957,-0.305,1341909
-0.295,0.018,-0.958,-0.366,1341915
-0.295,0.018,-0.958,-0.183,1341920
-0.298,0.018,-0.957,-0.183,1341925
-0.298,0.018,-0.957,-0.244,1341930
-0.299,0.019,-0.958,-0.305,1341936
-0.297,0.017,-0.958,-0.305,1341941
-0.297,0.017,-0.958,-0.183,1341946
-0.298,0.019,-0.958,-0.183,1341951
-0.298,0.019,-0.958,-0.183,1341957
-0.296,0.018,-0.958,-0.122,1341962
-0.296,0.018,-0.958,-0.061,1341967
-0.296,0.015,-0.958,-0.122,1341972
-0.296,0.015,-0.958,0.0,1341978
-0.296,0.018,-0.958,-0.244,1341983
-0.296,0.018,-0.958,-0.244,1341988
-0.295,0.019,-0.959,-0.061,1341993
-0.295,0.019,-0.959,-0.061,1341999
-0.296,0.019,-0.958,-0.122,1342004
-0.296,0.019,-0.958,-0.122,1342009
-0.297,0.019,-0.958,-0.183,1342014
-0.297,0.019,-0.958,-0.122,1342020
-0.294,0.022,-0.959,-0.183,1342025
-0.295,0.023,-0.959,-0.122,1342030
-0.295,0.023,-0.959,-0.122,1342035
-0.296,0.022,-0.959,-0.122,1342041
-0.296,0.022,-0.959,-0.183,1342046
-0.295,0.022,-0.959,-0.122,1342051
-0.295,0.022,-0.959,-0.061,1342056
-0.296,0.024,-0.96,-0.244,1342062
-0.296,0.024,-0.96,-0.244,1342067
-0.296,0.024,-0.959,-0.122,1342072
-0.296,0.024,-0.959,-0.183,1342077
-0.296,0.023,-0.958,-0.244,1342083
-0.296,0.023,-0.958,-0.244,1342088
-0.297,0.024,-0.956,-0.183,1342093
-0.297,0.024,-0.956,-0.183,1342098
-0.297,0.025,-0.958,-0.183,1342104
-0.297,0.025,-0.958,-0.183,1342109
-0.297,0.024,-0.959,-0.122,1342114
-0.299,0.025,-0.96,-0.244,1342119
-0.299,0.025,-0.96,-0.183,1342125
-0.297,0.026,-0.959,-0.061,1342130
-0.297,0.026,-0.959,-0.244,1342135
-0.299,0.025,-0.959,-0.305,1342140
-0.299,0.025,-0.959,-0.244,1342146
-0.299,0.025,-0.96,-0.122,1342151
-0.299,0.025,-0.96,-0.244,1342156
-0.299,0.024,-0.958,-0.244,1342161
-0.299,0.024,-0.958,-0.244,1342167
-0.296,0.026,-0.959,-0.244,1342172
-0.296,0.026,-0.959,-0.244,1342177
-0.298,0.024,-0.958,-0.183,1342182
-0.298,0.024,-0.958,-0.244,1342188
-0.297,0.023,-0.959,-0.366,1342193
-0.297,0.023,-0.959,-0.183,1342198
-0.296,0.022,-0.958,-0.244,1342203
-0.296,0.021,-0.958,-0.305,1342209
-0.296,0.021,-0.958,-0.244,1342214
-0.295,0.02,-0.96,-0.366,1342219
-0.295,0.02,-0.96,-0.244,1342224
-0.295,0.021,-0.959,-0.244,1342230
-0.295,0.021,-0.959,-0.305,1342235
-0.293,0.02,-0.959,-0.305,1342240
-0.293,0.02,-0.959,-0.183,1342246
-0.295,0.02,-0.958,-0.305,1342251
-0.295,0.02,-0.958,-0.366,1342256
-0.294,0.019,-0.958,-0.244,1342261
-0.294,0.019,-0.958,-0.183,1342267
-0.295,0.018,-0.96,-0.427,1342272
-0.295,0.018,-0.96,-0.366,1342277
-0.296,0.02,-0.957,-0.305,1342282
-0.296,0.02,-0.957,-0.183,1342288
-0.296,0.021,-0.959,-0.122,1342293
-0.297,0.019,-0.958,-0.061,1342298
-0.297,0.019,-0.958,-0.183,1342303
-0.298,0.02,-0.958,-0.244,1342309
-0.298,0.02,-0.958,-0.122,1342314
-0.297,0.018,-0.958,-0.183,1342319
-0.297,0.018,-0.958,-0.183,1342324
-0.298,0.018,-0.957,-0.244,1342330
-0.298,0.018,-0.957,-0.244,1342335
-0.299,0.019,-0.957,-0.183,1342340
-0.299,0.019,-0.957,-0.244,1342345
-0.298,0.019,-0.958,-0.183,1342351
-0.298,0.019,-0.958,-0.183,1342356
-0.298,0.019,-0.957,-0.244,1342361
-0.298,0.019,-0.957,-0.061,1342366
-0.299,0.02,-0.959,-0.061,1342372
-0.299,0.02,-0.959,-0.183,1342377
-0.298,0.02,-0.958,-0.305,1342382
-0.298,0.02,-0.958,-0.244,1342387
-0.298,0.02,-0.958,-0.183,1342393
-0.295,0.02,-0.958,-0.183,1342398
-0.295,0.02,-0.958,-0.122,1342403
-0.294,0.02,-0.959,-0.122,1342408
-0.294,0.02,-0.959,-0.183,1342414
-0.295,0.02,-0.96,-0.183,1342419
-0.295,0.02,-0.96,-0.122,1342424
-0.295,0.021,-0.959,-0.183,1342429
-0.295,0.021,-0.959,-0.244,1342435
-0.295,0.022,-0.96,-0.122,1342440
-0.295,0.022,-0.96,-0.061,1342445
-0.293,0.022,-0.96,-0.244,1342450
-0.293,0.022,-0.96,-0.183,1342456
-0.295,0.022,-0.959,-0.244,1342461
-0.295,0.022,-0.959,-0.183,1342466
-0.295,0.023,-0.96,-0.244,1342471
-0.295,0.023,-0.959,-0.366,1342477
-0.295,0.023,-0.959,-0.244,1342482
-0.297,0.021,-0.958,-0.183,1342487
-0.297,0.021,-0.958,-0.122,1342492
-0.296,0.021,-0.958,-0.183,1342498
-0.296,0.021,-0.958,-0.183,1342503
-0.296,0.02,-0.959,-0.305,1342508
-0.296,0.02,-0.959,-0.305,1342513
-0.296,0.021,-0.958,-0.122,1342519
-0.296,0.021,-0.958,-0.061,1342524
-0.296,0.021,-0.957,-0.122,1342529
-0.296,0.021,-0.957,-0.122,1342534
-0.297,0.02,-0.958,-0.244,1342540
-0.297,0.02,-0.958,-0.305,1342545
-0.298,0.02,-0.957,-0.183,1342550
-0.298,0.02,-0.957,-0.244,1342556
-0.299,0.019,-0.958,-0.183,1342561
-0.297,0.02,-0.957,-0.244,1342566
-0.297,0.02,-0.957,-0.122,1342571
-0.296,0.019,-0.957,-0.244,1342577
-0.296,0.019,-0.957,-0.122,1342582
-0.299,0.019,-0.958,-0.183,1342587
-0.299,0.019,-0.958,-0.122,1342592
-0.298,0.021,-0.958,-0.183,1342598
-0.298,0.021,-0.958,-0.244,1342603
-0.296,0.019,-0.958,-0.244,1342608
-0.296,0.019,-0.958,-0.183,1342613
-0.295,0.018,-0.958,-0.061,1342619
-0.295,0.018,-0.958,-0.183,1342624
-0.296,0.019,-0.956,-0.122,1342629
-0.296,0.019,-0.956,-0.122,1342634
-0.297,0.02,-0.958,0.0,1342640
-0.297,0.02,-0.958,-0.061,1342645
-0.295,0.021,-0.96,0.0,1342650
-0.296,0.02,-0.958,-0.183,1342655
-0.296,0.02,-0.958,-0.183,1342660
-0.297,0.021,-0.958,0.0,1342666
-0.297,0.021,-0.958,-0.061,1342671
-0.296,0.023,-0.959,-0.183,1342676
-0.296,0.023,-0.959,-0.183,1342681
-0.294,0.021,-0.96,-0.122,1342687
-0.294,0.021,-0.96,-0.183,1342692
-0.292,0.021,-0.959,-0.183,1342697
-0.292,0.021,-0.959,-0.061,1342702
-0.293,0.021,-0.958,0.0,1342708
-0.293,0.021,-0.958,-0.061,1342713
-0.295,0.023,-0.96,0.061,1342718
-0.295,0.023,-0.96,0.0,1342723
-0.294,0.024,-0.961,-0.183,1342728
-0.294,0.024,-0.961,-0.183,1342734
-0.294,0.025,-0.96,-0.122,1342739
-0.294,0.025,-0.96,0.0,1342744
-0.296,0.023,-0.959,0.122,1342749
-0.297,0.022,-0.961,-0.061,1342754
-0.297,0.022,-0.961,-0.061,1342760
-0.297,0.023,-0.961,-0.122,1342765
-0.297,0.023,-0.961,0.0,1342770
-0.298,0.024,-0.959,-0.122,1342775
-0.298,0.024,-0.959,-0.183,1342781
-0.298,0.025,-0.959,0.061,1342786
-0.298,0.025,-0.959,-0.122,1342791
-0.297,0.025,-0.958,-0.122,1342796
-0.297,0.025,-0.958,0.0,1342802
-0.299,0.026,-0.958,0.0,1342807
-0.299,0.026,-0.958,-0.122,1342812
-0.3,0.026,-0.96,-0.061,1342817
-0.3,0.026,-0.96,-0.183,1342822
-0.301,0.024,-0.958,-0.183,1342828
-0.301,0.024,-0.958,-0.122,1342833
-0.3,0.025,-0.958,-0.244,1342838
-0.299,0.025,-0.958,-0.061,1342843
-0.299,0.025,-0.958,-0.183,1342849
-0.3,0.024,-0.957,-0.122,1342854
-0.3,0.024,-0.957,-0.122,1342859
-0.301,0.023,-0.958,-0.122,1342864
-0.301,0.023,-0.958,-0.244,1342870
-0.299,0.021,-0.959,-0.183,1342875
-0.299,0.021,-0.959,-0.244,1342880
-0.299,0.022,-0.958,-0.183,1342885
-0.299,0.022,-0.958,-0.183,1342891
-0.299,0.022,-0.958,-0.244,1342896
-0.299,0.022,-0.958,-0.183,1342901
-0.298,0.021,-0.956,-0.244,1342906
-0.298,0.021,-0.956,-0.183,1342912
-0.297,0.021,-0.956,-0.244,1342917
-0.297,0.021,-0.956,-0.244,1342922
-0.298,0.023,-0.959,-0.061,1342927
-0.296,0.024,-0.958,-0.305,1342933
-0.296,0.024,-0.958,-0.122,1342938
-0.297,0.021,-0.958,-0.183,1342943
-0.297,0.021,-0.958,-0.122,1342949
-0.295,0.022,-0.957,-0.183,1342954
-0.295,0.022,-0.957,-0.244,1342959
-0.296,0.023,-0.958,-0.122,1342964
-0.296,0.023,-0.958,-0.122,1342970
-0.295,0.022,-0.961,-0.122,1342975
-0.295,0.022,-0.961,-0.183,1342980
-0.295,0.022,-0.959,-0.183,1342985
-0.295,0.022,-0.959,-0.183,1342991
-0.293,0.021,-0.96,-0.366,1342996
-0.293,0.021,-0.96,-0.183,1343001
-0.294,0.021,-0.959,-0.122,1343006
-0.294,0.021,-0.959,-0.122,1343012
-0.295,0.021,-0.957,-0.305,1343017
-0.295,0.022,-0.959,-0.061,1343022
-0.295,0.022,-0.959,-0.183,1343027
-0.294,0.022,-0.959,-0.305,1343033
-0.294,0.022,-0.959,-0.366,1343038
-0.296,0.023,-0.959,-0.244,1343043
-0.296,0.023,-0.959,-0.122,1343048
-0.297,0.023,-0.958,-0.122,1343054
-0.297,0.023,-0.958,-0.183,1343059
-0.298,0.022,-0.959,-0.183,1343064
-0.298,0.022,-0.959,-0.244,1343069
-0.297,0.023,-0.959,-0.183,1343075
-0.297,0.023,-0.959,-0.305,1343080
-0.299,0.023,-0.958,-0.122,1343085
-0.299,0.023,-0.958,-0.061,1343090
-0.299,0.024,-0.958,-0.244,1343096
-0.299,0.024,-0.958,-0.244,1343101
-0.299,0.023,-0.959,-0.244,1343106
-0.3,0.024,-0.958,-0.244,1343111
-0.3,0.024,-0.958,-0.305,1343117
-0.3,0.025,-0.958,-0.183,1343122
-0.3,0.025,-0.958,-0.122,1343127
-0.301,0.024,-0.958,-0.183,1343132
-0.301,0.024,-0.958,-0.183,1343138
-0.301,0.024,-0.96,-0.122,1343143
-0.301,0.024,-0.96,-0.183,1343148
-0.3,0.026,-0.959,-0.122,1343153
-0.3,0.026,-0.959,-0.122,1343159
-0.298,0.025,-0.959,-0.061,1343164
-0.298,0.025,-0.959,-0.122,1343169
-0.298,0.026,-0.96,-0.061,1343174
-0.298,0.026,-0.96,-0.305,1343180
-0.296,0.027,-0.959,-0.305,1343185
-0.296,0.027,-0.959,-0.366,1343190
-0.296,0.025,-0.959,-0.244,1343195
-0.296,0.025,-0.959,-0.366,1343201
-0.296,0.025,-0.959,-0.183,1343206
-0.293,0.023,-0.958,-0.122,1343211
-0.293,0.023,-0.958,-0.244,1343216
-0.293,0.023,-0.959,-0.244,1343222
-0.293,0.023,-0.959,-0.244,1343227
-0.292,0.023,-0.96,-0.183,1343232
-0.292,0.023,-0.96,-0.244,1343237
-0.292,0.021,-0.961,-0.244,1343243
-0.292,0.021,-0.961,-0.244,1343248
-0.295,0.019,-0.96,-0.183,1343253
-0.295,0.019,-0.96,-0.244,1343258
-0.293,0.02,-0.958,-0.305,1343264
-0.293,0.02,-0.958,-0.183,1343269
-0.292,0.021,-0.96,-0.183,1343274
-0.292,0.021,-0.96,-0.183,1343279
-0.295,0.02,-0.959,-0.305,1343285
-0.294,0.018,-0.958,-0.305,1343290
-0.294,0.018,-0.958,-0.366,1343295
-0.296,0.02,-0.959,-0.244,1343301
-0.296,0.02,-0.959,-0.244,1343306
-0.296,0.018,-0.959,-0.183,1343311
-0.296,0.018,-0.959,-0.244,1343316
-0.298,0.018,-0.957,-0.183,1343322
-0.298,0.018,-0.957,-0.183,1343327
-0.3,0.019,-0.957,-0.122,1343332
