Acc_X,Acc_Y,Acc_Z,Rot_Z,Millis
-0.05,0.345,0.931,-0.305,31812
-0.05,0.345,0.931,-0.488,31817
-0.051,0.346,0.932,-0.61,31822
-0.049,0.344,0.931,-0.183,31827
-0.049,0.344,0.931,-0.122,31832
-0.047,0.344,0.931,-0.183,31837
-0.047,0.344,0.931,-0.122,31842
-0.048,0.345,0.932,-0.061,31847
-0.048,0.345,0.932,0.061,31853
-0.047,0.347,0.93,0.122,31858
-0.047,0.347,0.93,-0.061,31863
-0.047,0.346,0.933,0.061,31868
-0.047,0.346,0.933,0.0,31873
-0.048,0.348,0.93,0.183,31878
-0.048,0.348,0.93,0.061,31883
-0.047,0.347,0.929,-0.244,31888
-0.047,0.347,0.929,-0.122,31893
-0.047,0.347,0.926,-0.183,31898
-0.047,0.347,0.926,-0.366,31904
-0.048,0.347,0.928,-0.305,31909
-0.048,0.347,0.928,-0.305,31914
-0.049,0.346,0.93,-0.305,31919
-0.049,0.346,0.93,-0.305,31924
-0.049,0.346,0.931,-0.366,31929
-0.049,0.346,0.931,-0.61,31934
-0.048,0.346,0.933,-0.488,31939
-0.048,0.346,0.933,-0.549,31944
-0.048,0.344,0.932,-0.427,31950
-0.048,0.344,0.932,-0.305,31955
-0.048,0.344,0.931,-0.244,31960
-0.048,0.344,0.931,-0.061,31965
-0.046,0.345,0.933,0.061,31970
-0.046,0.345,0.933,-0.061,31975
-0.045,0.346,0.932,0.061,31980
-0.045,0.346,0.932,0.122,31985
-0.048,0.346,0.93,-0.061,31990
-0.048,0.347,0.931,-0.061,31996
-0.048,0.347,0.931,-0.183,32001
-0.048,0.346,0.93,-0.183,32006
-0.048,0.346,0.93,-0.122,32011
-0.048,0.345,0.931,-0.122,32016
-0.048,0.345,0.931,-0.366,32021
-0.047,0.345,0.931,-0.549,32026
-0.047,0.345,0.931,-0.488,32031
-0.05,0.346,0.932,-0.366,32037
-0.05,0.346,0.932,-0.671,32042
-0.049,0.344,0.934,-0.671,32047
-0.049,0.344,0.934,-0.427,32052
-0.052,0.342,0.933,-0.366,32057
-0.052,0.342,0.933,-0.305,32062
-0.05,0.344,0.932,-0.183,32067
-0.05,0.344,0.932,-0.183,32072
-0.048,0.344,0.931,-0.122,32078
-0.048,0.344,0.931,-0.061,32083
-0.048,0.346,0.933,0.122,32088
-0.048,0.346,0.933,0.061,32093
-0.048,0.345,0.932,0.0,32098
-0.048,0.345,0.932,0.183,32103
-0.048,0.347,0.93,0.122,32108
-0.048,0.347,0.93,0.061,32113
-0.048,0.347,0.929,-0.061,32118
-0.048,0.347,0.929,-0.183,32123
-0.048,0.348,0.929,-0.244,32128
-0.048,0.348,0.929,-0.244,32134
-0.049,0.348,0.931,-0.244,32139
-0.049,0.348,0.931,-0.183,32144
-0.046,0.347,0.93,-0.427,32149
-0.046,0.347,0.93,-0.488,32154
-0.05,0.345,0.933,-0.488,32159
-0.05,0.345,0.932,-0.488,32164
-0.05,0.345,0.932,-0.366,32169
-0.05,0.345,0.933,-0.244,32174
-0.05,0.345,0.933,-0.244,32180
-0.049,0.344,0.931,-0.244,32185
-0.049,0.344,0.931,-0.183,32190
-0.05,0.345,0.932,0.061,32195
-0.05,0.345,0.932,0.122,32200
-0.049,0.346,0.931,-0.061,32205
-0.049,0.346,0.931,-0.183,32210
-0.049,0.347,0.931,0.0,32215
-0.049,0.347,0.931,0.061,32220
-0.049,0.346,0.932,-0.122,32225
-0.049,0.346,0.932,-0.183,32231
-0.05,0.347,0.93,-0.122,32236
-0.05,0.347,0.93,-0.183,32241
-0.05,0.346,0.928,-0.305,32246
-0.05,0.346,0.928,-0.305,32251
-0.049,0.344,0.932,-0.427,32256
-0.049,0.344,0.932,-0.366,32261
-0.048,0.346,0.932,-0.366,32266
-0.048,0.346,0.932,-0.427,32272
-0.047,0.345,0.932,-0.183,32277
-0.047,0.345,0.932,-0.183,32282
-0.046,0.346,0.932,-0.122,32287
-0.046,0.346,0.932,-0.366,32292
-0.048,0.346,0.932,-0.183,32297
-0.048,0.346,0.932,0.0,32302
-0.049,0.346,0.933,-0.122,32307
-0.049,0.346,0.933,-0.061,32312
-0.046,0.345,0.933,-0.061,32318
-0.046,0.345,0.933,-0.061,32323
-0.046,0.345,0.933,-0.061,32328
-0.047,0.347,0.93,0.061,32333
-0.047,0.347,0.93,0.0,32338
-0.049,0.347,0.93,-0.122,32343
-0.049,0.347,0.93,-0.122,32348
-0.048,0.347,0.93,-0.305,32353
-0.048,0.347,0.93,-0.366,32358
-0.048,0.346,0.929,-0.427,32363
-0.048,0.346,0.929,-0.366,32369
-0.047,0.347,0.93,-0.366,32374
-0.047,0.347,0.93,-0.305,32379
-0.047,0.345,0.931,-0.366,32384
-0.047,0.345,0.931,-0.305,32389
-0.049,0.345,0.931,-0.244,32394
-0.049,0.345,0.931,-0.183,32399
-0.048,0.346,0.932,-0.183,32404
-0.048,0.346,0.932,-0.183,32410
-0.048,0.345,0.932,0.0,32415
-0.048,0.345,0.932,0.0,32420
-0.048,0.346,0.931,0.061,32425
-0.048,0.346,0.931,-0.061,32430
-0.05,0.346,0.93,-0.122,32435
-0.05,0.346,0.93,-0.122,32440
-0.047,0.345,0.93,0.0,32445
-0.047,0.345,0.93,-0.305,32450
-0.047,0.345,0.93,-0.366,32455
-0.047,0.345,0.93,-0.183,32460
-0.049,0.345,0.93,-0.244,32466
-0.049,0.345,0.93,-0.244,32471
-0.049,0.346,0.932,-0.244,32476
-0.049,0.346,0.932,-0.366,32481
-0.05,0.344,0.933,-0.366,32486
-0.05,0.344,0.933,-0.366,32491
-0.051,0.344,0.934,-0.305,32496
-0.051,0.344,0.934,-0.427,32501
-0.051,0.346,0.932,-0.244,32507
-0.05,0.346,0.933,-0.305,32512
-0.05,0.346,0.933,-0.244,32517
-0.05,0.347,0.931,-0.183,32522
-0.05,0.347,0.931,-0.183,32527
-0.048,0.346,0.932,-0.183,32532
-0.048,0.346,0.932,-0.061,32537
-0.05,0.345,0.933,-0.061,32542
-0.05,0.345,0.933,-0.061,32548
-0.049,0.345,0.931,-0.183,32553
-0.049,0.345,0.931,-0.183,32558
-0.049,0.346,0.932,-0.061,32563
-0.049,0.346,0.932,-0.061,32568
-0.049,0.345,0.931,-0.122,32573
-0.049,0.345,0.931,-0.183,32578
-0.049,0.346,0.932,-0.244,32583
-0.049,0.346,0.932,-0.183,32589
-0.046,0.346,0.929,-0.183,32594
-0.046,0.346,0.929,-0.183,32599
-0.048,0.345,0.931,-0.183,32604
-0.048,0.345,0.931,-0.061,32609
-0.048,0.345,0.933,0.0,32614
-0.048,0.345,0.933,-0.305,32619
-0.048,0.346,0.933,-0.183,32624
-0.048,0.346,0.933,-0.183,32629
-0.046,0.345,0.932,-0.305,32635
-0.046,0.345,0.932,-0.183,32640
-0.046,0.344,0.93,0.0,32645
-0.046,0.344,0.93,0.0,32650
-0.046,0.345,0.93,0.122,32655
-0.046,0.345,0.93,0.061,32660
-0.045,0.345,0.93,-0.061,32665
-0.045,0.345,0.93,-0.122,32670
-0.045,0.346,0.931,-0.122,32675
-0.046,0.347,0.929,-0.122,32680
-0.046,0.347,0.929,-0.061,32685
-0.046,0.346,0.93,-0.061,32691
-0.046,0.346,0.93,-0.244,32696
-0.046,0.345,0.929,-0.244,32701
-0.046,0.345,0.929,-0.427,32706
-0.046,0.346,0.929,-0.366,32711
-0.046,0.346,0.929,-0.122,32716
-0.047,0.346,0.933,-0.183,32721
-0.047,0.346,0.933,-0.305,32726
-0.047,0.346,0.931,-0.061,32732
-0.047,0.346,0.931,-0.122,32737
-0.047,0.346,0.93,-0.122,32742
-0.047,0.346,0.93,-0.122,32747
-0.046,0.347,0.93,-0.305,32752
-0.046,0.347,0.93,-0.183,32757
-0.046,0.346,0.931,-0.061,32762
-0.046,0.346,0.931,-0.244,32767
-0.047,0.347,0.93,-0.244,32773
-0.047,0.347,0.93,-0.122,32778
-0.047,0.348,0.93,-0.061,32783
-0.047,0.348,0.93,-0.122,32788
-0.046,0.347,0.929,-0.305,32793
-0.046,0.347,0.929,-0.244,32798
-0.047,0.347,0.93,-0.244,32803
-0.047,0.347,0.93,-0.366,32808
-0.046,0.345,0.931,-0.305,32813
-0.046,0.345,0.931,-0.488,32819
-0.047,0.345,0.929,-0.366,32824
-0.047,0.345,0.929,-0.244,32829
-0.046,0.346,0.931,-0.366,32834
-0.046,0.345,0.932,-0.244,32839
-0.046,0.345,0.932,-0.183,32844
-0.047,0.345,0.932,-0.061,32849
-0.047,0.345,0.932,-0.183,32854
-0.045,0.344,0.93,-0.305,32860
-0.045,0.344,0.93,-0.244,32865
-0.047,0.345,0.929,-0.122,32870
-0.047,0.345,0.929,-0.305,32875
-0.047,0.346,0.929,-0.244,32880
-0.047,0.346,0.929,-0.244,32885
-0.047,0.346,0.93,-0.366,32890
-0.047,0.346,0.93,-0.244,32895
-0.047,0.346,0.932,-0.305,32901
-0.047,0.346,0.932,-0.366,32906
-0.048,0.344,0.932,-0.366,32911
-0.048,0.344,0.932,-0.61,32916
-0.05,0.344,0.932,-0.671,32921
-0.05,0.344,0.932,-0.61,32926
-0.049,0.345,0.932,-0.488,32931
-0.049,0.345,0.932,-0.488,32936
-0.049,0.344,0.932,-0.61,32941
-0.049,0.344,0.932,-0.488,32947
-0.051,0.344,0.934,-0.488,32952
-0.051,0.344,0.934,-0.244,32957
-0.052,0.345,0.933,-0.244,32962
-0.052,0.345,0.933,-0.183,32967
-0.052,0.344,0.935,-0.122,32972
-0.052,0.344,0.935,-0.183,32977
-0.051,0.346,0.934,-0.244,32982
-0.051,0.346,0.934,0.0,32988
-0.05,0.347,0.933,-0.183,32993
-0.049,0.345,0.929,-0.122,32998
-0.049,0.345,0.929,-0.244,33003
-0.05,0.345,0.928,-0.244,33008
-0.05,0.345,0.928,-0.122,33013
-0.049,0.346,0.933,0.0,33018
-0.049,0.346,0.933,-0.305,33023
-0.048,0.345,0.93,-0.488,33028
-0.048,0.345,0.93,-0.305,33033
-0.049,0.346,0.933,-0.305,33039
-0.049,0.346,0.933,-0.366,33044
-0.049,0.343,0.932,-0.61,33049
-0.049,0.343,0.932,-0.671,33054
-0.051,0.344,0.93,-0.488,33059
-0.051,0.344,0.93,-0.122,33064
-0.047,0.344,0.935,-0.305,33069
-0.047,0.344,0.935,-0.366,33074
-0.048,0.342,0.929,-0.122,33080
-0.048,0.342,0.929,-0.183,33085
-0.047,0.343,0.932,0.122,33090
-0.047,0.343,0.932,0.061,33095
-0.046,0.345,0.935,-0.122,33100
-0.046,0.345,0.935,-0.061,33105
-0.047,0.344,0.928,0.0,33110
-0.047,0.344,0.928,-0.122,33115
-0.046,0.345,0.93,0.0,33120
-0.046,0.345,0.93,-0.305,33125
-0.047,0.345,0.929,-0.366,33130
-0.047,0.345,0.929,-0.366,33136
-0.048,0.346,0.93,-0.305,33141
-0.048,0.346,0.93,-0.305,33146
-0.047,0.346,0.931,-0.61,33151
-0.047,0.346,0.931,-0.732,33156
-0.052,0.346,0.93,-0.549,33161
-0.049,0.345,0.934,-0.549,33166
-0.049,0.345,0.934,-0.671,33171
-0.05,0.345,0.93,-0.793,33177
-0.05,0.345,0.93,-0.488,33182
-0.052,0.345,0.932,-0.244,33187
-0.052,0.345,0.932,-0.366,33192
-0.051,0.345,0.933,-0.366,33197
-0.051,0.345,0.933,-0.366,33202
-0.051,0.344,0.93,-0.183,33207
-0.051,0.344,0.93,-0.122,33212
-0.049,0.344,0.934,-0.244,33218
-0.049,0.344,0.934,-0.305,33223
-0.052,0.342,0.93,-0.305,33228
-0.052,0.342,0.93,-0.183,33233
-0.051,0.344,0.933,-0.183,33238
-0.051,0.344,0.933,-0.183,33243
-0.052,0.345,0.932,-0.366,33248
-0.052,0.345,0.932,-0.427,33253
-0.052,0.344,0.931,-0.305,33259
-0.052,0.344,0.931,-0.305,33264
-0.052,0.344,0.934,-0.427,33269
-0.052,0.344,0.934,-0.61,33274
-0.054,0.343,0.932,-0.488,33279
-0.054,0.343,0.932,-0.122,33284
-0.053,0.343,0.934,0.0,33289
-0.053,0.343,0.934,-0.061,33294
-0.052,0.343,0.932,-0.366,33299
-0.052,0.343,0.932,-0.183,33305
-0.052,0.345,0.932,-0.183,33310
-0.052,0.345,0.932,0.0,33315
-0.05,0.344,0.935,-0.061,33320
-0.049,0.343,0.933,0.183,33325
-0.049,0.343,0.933,0.122,33330
-0.047,0.344,0.929,-0.061,33335
-0.047,0.344,0.929,-0.244,33340
-0.047,0.344,0.929,-0.244,33345
-0.047,0.344,0.929,0.061,33350
-0.047,0.347,0.931,0.061,33356
-0.047,0.347,0.931,0.0,33361
-0.048,0.346,0.932,-0.122,33366
-0.048,0.346,0.932,-0.244,33371
-0.049,0.345,0.931,-0.183,33376
-0.049,0.345,0.931,-0.305,33381
-0.047,0.345,0.931,-0.488,33386
-0.047,0.345,0.931,-0.61,33391
-0.049,0.344,0.932,-0.366,33396
-0.049,0.344,0.932,-0.122,33401
-0.049,0.346,0.93,-0.183,33407
-0.049,0.346,0.93,-0.183,33412
-0.047,0.347,0.93,-0.183,33417
-0.047,0.347,0.93,-0.122,33422
-0.048,0.344,0.931,-0.122,33427
-0.048,0.344,0.931,-0.183,33432
-0.048,0.345,0.931,0.061,33437
-0.048,0.345,0.931,0.061,33442
-0.047,0.344,0.933,-0.122,33447
-0.047,0.344,0.933,-0.244,33453
-0.048,0.345,0.931,-0.305,33458
-0.048,0.345,0.931,-0.427,33463
-0.049,0.345,0.929,-0.549,33468
-0.049,0.345,0.929,-0.427,33473
-0.05,0.345,0.931,-0.427,33478
-0.05,0.345,0.931,-0.366,33483
-0.05,0.344,0.931,-0.366,33488
-0.049,0.344,0.931,-0.305,33494
-0.049,0.344,0.931,-0.427,33499
-0.05,0.345,0.935,-0.305,33504
-0.05,0.345,0.935,-0.244,33509
-0.05,0.343,0.934,-0.305,33514
-0.05,0.343,0.934,-0.427,33519
-0.051,0.344,0.93,-0.244,33524
-0.051,0.344,0.93,-0.122,33529
-0.049,0.345,0.932,-0.122,33535
-0.049,0.345,0.932,-0.122,33540
-0.049,0.344,0.931,-0.061,33545
-0.049,0.344,0.931,0.122,33550
-0.05,0.344,0.933,0.122,33555
-0.05,0.344,0.933,-0.061,33560
-0.048,0.344,0.931,-0.244,33565
-0.048,0.344,0.931,-0.305,33570
-0.051,0.345,0.93,-0.366,33575
-0.051,0.345,0.93,-0.305,33580
-0.052,0.346,0.93,-0.366,33586
-0.052,0.346,0.93,-0.305,33591
-0.05,0.344,0.929,-0.061,33596
-0.05,0.344,0.929,-0.183,33601
-0.05,0.343,0.931,-0.244,33606
-0.05,0.343,0.931,-0.183,33611
-0.051,0.345,0.932,-0.305,33616
-0.051,0.345,0.932,-0.244,33621
-0.051,0.344,0.934,-0.183,33627
-0.051,0.344,0.934,-0.183,33632
-0.049,0.344,0.932,-0.122,33637
-0.049,0.344,0.932,-0.122,33642
-0.049,0.344,0.931,-0.061,33647
-0.049,0.344,0.931,-0.122,33652
-0.051,0.346,0.93,0.0,33657
-0.048,0.346,0.931,0.0,33662
-0.048,0.346,0.931,0.061,33667
-0.046,0.345,0.931,0.061,33672
-0.046,0.345,0.931,-0.122,33677
-0.046,0.346,0.932,-0.183,33683
-0.046,0.346,0.932,-0.244,33688
-0.047,0.344,0.931,-0.305,33693
-0.047,0.344,0.931,-0.427,33698
-0.046,0.343,0.93,-0.427,33703
-0.046,0.343,0.93,-0.366,33708
-0.051,0.343,0.931,-0.488,33713
-0.051,0.343,0.931,-0.488,33718
-0.051,0.343,0.933,-0.305,33724
-0.051,0.343,0.933,-0.305,33729
-0.049,0.343,0.934,-0.427,33734
-0.049,0.343,0.934,-0.427,33739
-0.049,0.345,0.934,-0.244,33744
-0.049,0.345,0.934,-0.244,33749
-0.05,0.344,0.932,-0.244,33754
-0.05,0.344,0.932,-0.061,33759
-0.048,0.344,0.933,-0.061,33765
-0.048,0.344,0.933,0.0,33770
-0.046,0.345,0.932,0.061,33775
-0.046,0.345,0.932,0.122,33780
-0.048,0.345,0.929,0.183,33785
-0.048,0.345,0.929,0.122,33790
-0.048,0.347,0.931,0.061,33795
-0.048,0.347,0.931,-0.244,33800
-0.051,0.345,0.928,-0.183,33805
-0.051,0.345,0.928,-0.061,33810
-0.048,0.345,0.928,-0.427,33815
-0.048,0.345,0.928,-0.549,33821
-0.05,0.345,0.927,-0.488,33826
-0.048,0.345,0.93,-0.244,33831
-0.048,0.345,0.93,-0.305,33836
-0.048,0.346,0.931,-0.366,33841
-0.048,0.346,0.931,-0.244,33846
-0.049,0.343,0.932,-0.244,33851
-0.049,0.343,0.932,-0.305,33856
-0.048,0.344,0.934,-0.366,33862
-0.048,0.344,0.934,-0.122,33867
-0.05,0.345,0.933,0.061,33872
-0.05,0.345,0.933,0.061,33877
-0.05,0.344,0.93,-0.061,33882
-0.05,0.344,0.93,0.122,33887
-0.049,0.346,0.932,0.244,33892
-0.049,0.346,0.932,0.122,33897
-0.048,0.348,0.933,0.122,33902
-0.048,0.348,0.933,0.061,33907
-0.049,0.346,0.932,-0.122,33912
-0.049,0.346,0.932,-0.122,33918
-0.047,0.344,0.931,-0.244,33923
-0.047,0.344,0.931,-0.244,33928
-0.047,0.343,0.929,-0.305,33933
-0.047,0.343,0.929,-0.305,33938
-0.047,0.345,0.929,-0.122,33943
-0.047,0.345,0.929,-0.305,33948
-0.048,0.344,0.93,-0.366,33953
-0.048,0.344,0.93,-0.427,33959
-0.049,0.342,0.932,-0.305,33964
-0.049,0.342,0.932,-0.183,33969
-0.051,0.343,0.934,-0.488,33974
-0.051,0.343,0.934,-0.488,33979
-0.052,0.343,0.933,-0.366,33984
-0.052,0.343,0.933,-0.244,33989
-0.052,0.345,0.933,-0.183,33994
-0.05,0.344,0.929,-0.061,34000
-0.05,0.344,0.929,0.061,34005
-0.047,0.345,0.932,0.305,34010
-0.047,0.345,0.932,0.183,34015
-0.047,0.345,0.934,0.061,34020
-0.047,0.345,0.934,-0.061,34025
-0.049,0.345,0.931,0.122,34030
-0.049,0.345,0.931,-0.183,34035
-0.046,0.344,0.931,-0.122,34040
-0.046,0.344,0.931,-0.122,34045
-0.049,0.345,0.931,-0.244,34051
-0.049,0.345,0.931,-0.244,34056
-0.049,0.346,0.928,-0.305,34061
-0.049,0.346,0.928,-0.427,34066
-0.049,0.344,0.93,-0.366,34071
-0.049,0.344,0.93,-0.244,34076
-0.049,0.345,0.931,-0.244,34081
-0.049,0.345,0.931,-0.366,34086
-0.048,0.345,0.934,-0.244,34091
-0.048,0.345,0.934,-0.305,34097
-0.048,0.343,0.932,-0.305,34102
-0.048,0.343,0.932,-0.366,34107
-0.048,0.342,0.932,-0.427,34112
-0.048,0.342,0.932,-0.244,34117
-0.049,0.343,0.931,-0.061,34122
-0.049,0.343,0.931,-0.061,34127
-0.048,0.344,0.932,-0.061,34132
-0.048,0.344,0.932,-0.061,34138
-0.047,0.343,0.93,-0.061,34143
-0.047,0.343,0.93,-0.061,34148
-0.045,0.345,0.93,-0.122,34153
-0.045,0.345,0.93,-0.183,34158
-0.048,0.346,0.931,-0.244,34163
-0.05,0.346,0.929,-0.183,34168
-0.05,0.346,0.929,-0.244,34173
-0.049,0.348,0.928,-0.366,34179
-0.049,0.348,0.928,-0.366,34184
-0.049,0.347,0.931,-0.183,34189
-0.049,0.347,0.931,-0.244,34194
-0.05,0.345,0.931,-0.244,34199
-0.05,0.345,0.931,-0.427,34204
-0.049,0.344,0.932,-0.488,34209
-0.049,0.344,0.932,-0.427,34214
-0.051,0.344,0.932,-0.549,34220
-0.051,0.344,0.932,-0.549,34225
-0.051,0.342,0.933,-0.488,34230
-0.051,0.342,0.933,-0.244,34235
-0.05,0.342,0.934,-0.183,34240
-0.05,0.342,0.934,-0.183,34245
-0.048,0.343,0.932,-0.122,34250
-0.048,0.343,0.932,0.0,34255
-0.049,0.344,0.932,0.0,34260
-0.049,0.344,0.932,0.061,34265
-0.048,0.345,0.93,0.061,34270
-0.048,0.345,0.93,0.061,34276
-0.048,0.346,0.929,0.061,34281
-0.048,0.346,0.929,0.061,34286
-0.047,0.346,0.93,-0.122,34291
-0.047,0.346,0.93,-0.244,34296
-0.048,0.346,0.929,-0.122,34301
-0.048,0.346,0.929,-0.183,34306
-0.046,0.345,0.933,-0.244,34311
-0.046,0.345,0.933,-0.427,34316
-0.048,0.345,0.933,-0.427,34322
-0.048,0.345,0.933,-0.305,34327
-0.048,0.344,0.931,-0.305,34332
-0.049,0.344,0.932,-0.549,34337
-0.049,0.344,0.932,-0.366,34342
-0.049,0.344,0.931,-0.244,34347
-0.049,0.344,0.931,-0.122,34352
-0.049,0.343,0.931,-0.244,34357
-0.049,0.343,0.931,-0.183,34362
-0.049,0.344,0.932,-0.183,34368
-0.049,0.344,0.932,0.0,34373
-0.049,0.346,0.933,0.0,34378
-0.049,0.346,0.933,-0.183,34383
-0.049,0.345,0.931,0.0,34388
-0.049,0.345,0.931,0.0,34393
-0.048,0.345,0.931,0.0,34398
-0.048,0.345,0.931,-0.183,34403
-0.049,0.346,0.93,-0.122,34408
-0.049,0.346,0.93,-0.061,34413
-0.048,0.345,0.929,-0.122,34418
-0.048,0.345,0.929,-0.305,34423
-0.048,0.345,0.932,-0.488,34429
-0.048,0.345,0.932,-0.366,34434
-0.05,0.343,0.93,-0.427,34439
-0.05,0.343,0.93,-0.366,34444
-0.047,0.343,0.931,-0.488,34449
-0.047,0.343,0.931,-0.732,34454
-0.05,0.342,0.933,-0.488,34459
-0.05,0.342,0.933,-0.244,34464
-0.048,0.343,0.933,-0.305,34470
-0.048,0.343,0.933,-0.427,34475
-0.049,0.344,0.931,-0.244,34480
-0.049,0.344,0.931,-0.183,34485
-0.051,0.344,0.931,-0.122,34490
-0.051,0.344,0.931,-0.122,34495
-0.051,0.344,0.931,-0.061,34500
-0.048,0.344,0.931,0.061,34505
-0.048,0.344,0.931,-0.061,34510
-0.048,0.345,0.929,-0.061,34516
-0.048,0.345,0.929,-0.122,34521
-0.049,0.347,0.931,-0.061,34526
-0.049,0.347,0.931,-0.122,34531
-0.048,0.345,0.931,-0.122,34536
-0.048,0.345,0.931,-0.305,34541
-0.048,0.345,0.931,-0.183,34546
-0.048,0.345,0.931,-0.183,34551
-0.049,0.346,0.931,-0.488,34557
-0.049,0.346,0.931,-0.549,34562
-0.049,0.346,0.932,-0.366,34567
-0.049,0.346,0.932,-0.305,34572
-0.048,0.345,0.932,-0.305,34577
-0.048,0.345,0.932,-0.183,34582
-0.048,0.344,0.931,-0.244,34587
-0.048,0.344,0.931,-0.122,34592
-0.05,0.345,0.931,0.0,34597
-0.05,0.345,0.931,-0.122,34603
-0.048,0.344,0.932,-0.183,34608
-0.048,0.344,0.932,-0.061,34613
-0.049,0.344,0.93,-0.122,34618
-0.049,0.344,0.93,-0.183,34623
-0.049,0.345,0.932,-0.061,34628
-0.049,0.345,0.932,-0.122,34633
-0.049,0.345,0.931,-0.183,34638
-0.049,0.345,0.931,-0.183,34644
-0.049,0.346,0.93,-0.183,34649
-0.049,0.346,0.93,-0.305,34654
-0.05,0.345,0.931,-0.366,34659
-0.05,0.345,0.931,-0.366,34664
-0.049,0.344,0.932,-0.366,34669
-0.049,0.345,0.931,-0.488,34674
-0.049,0.345,0.931,-0.549,34679
-0.05,0.345,0.931,-0.366,34684
-0.05,0.345,0.931,-0.305,34690
-0.05,0.344,0.934,-0.366,34695
-0.05,0.344,0.934,-0.366,34700
-0.05,0.343,0.933,-0.244,34705
-0.05,0.343,0.933,-0.183,34710
-0.05,0.344,0.931,-0.122,34715
-0.05,0.344,0.931,-0.183,34720
-0.048,0.345,0.932,-0.244,34725
-0.048,0.345,0.932,-0.122,34731
-0.049,0.343,0.932,-0.122,34736
-0.049,0.343,0.932,-0.183,34741
-0.049,0.344,0.932,-0.122,34746
-0.049,0.344,0.932,-0.183,34751
-0.049,0.345,0.932,-0.061,34756
-0.049,0.345,0.932,-0.183,34761
-0.049,0.345,0.933,-0.122,34766
-0.049,0.345,0.933,-0.183,34772
-0.048,0.346,0.931,-0.183,34777
-0.048,0.346,0.931,-0.061,34782
-0.047,0.344,0.932,-0.122,34787
-0.047,0.344,0.932,-0.427,34792
-0.049,0.345,0.93,-0.244,34797
-0.049,0.345,0.93,0.061,34802
-0.048,0.345,0.932,-0.122,34807
-0.048,0.345,0.932,-0.183,34812
-0.048,0.344,0.931,-0.305,34818
-0.048,0.344,0.931,-0.061,34823
-0.048,0.344,0.931,-0.122,34828
-0.048,0.344,0.931,-0.122,34833
-0.048,0.344,0.931,0.0,34838
-0.047,0.344,0.931,0.122,34843
-0.047,0.344,0.931,-0.061,34848
-0.046,0.344,0.93,-0.244,34853
-0.046,0.344,0.93,-0.122,34858
-0.047,0.345,0.928,-0.122,34864
-0.047,0.345,0.928,-0.244,34869
-0.048,0.344,0.929,-0.244,34874
-0.048,0.344,0.929,-0.366,34879
-0.048,0.345,0.931,-0.366,34884
-0.048,0.345,0.931,-0.244,34889
-0.047,0.345,0.933,-0.244,34894
-0.047,0.345,0.933,-0.305,34899
-0.049,0.345,0.93,-0.305,34905
-0.049,0.345,0.93,-0.305,34910
-0.05,0.345,0.931,-0.366,34915
-0.05,0.345,0.931,-0.183,34920
-0.049,0.345,0.933,-0.122,34925
-0.049,0.345,0.933,-0.305,34930
-0.05,0.343,0.933,-0.183,34935
-0.05,0.343,0.933,-0.244,34940
-0.047,0.343,0.933,-0.183,34946
-0.047,0.343,0.933,-0.122,34951
-0.049,0.344,0.932,-0.183,34956
-0.049,0.344,0.932,-0.122,34961
-0.051,0.344,0.931,-0.061,34966
-0.051,0.344,0.931,-0.122,34971
-0.049,0.345,0.933,-0.244,34976
-0.049,0.345,0.933,-0.305,34981
-0.049,0.345,0.933,-0.122,34987
-0.047,0.344,0.932,-0.183,34992
-0.047,0.344,0.932,-0.183,34997
-0.049,0.345,0.932,-0.244,35002
-0.049,0.345,0.932,-0.305,35007
-0.048,0.344,0.932,-0.366,35012
-0.048,0.344,0.932,-0.244,35017
-0.048,0.345,0.931,-0.183,35022
-0.048,0.345,0.931,-0.061,35027
-0.049,0.344,0.932,-0.122,35033
-0.049,0.344,0.932,-0.305,35038
-0.048,0.343,0.93,-0.244,35043
-0.048,0.343,0.93,-0.122,35048
-0.05,0.344,0.931,0.0,35053
-0.05,0.344,0.931,0.0,35058
-0.046,0.344,0.931,-0.122,35063
-0.046,0.344,0.931,-0.122,35068
-0.047,0.346,0.93,-0.061,35073
-0.047,0.346,0.93,-0.122,35078
-0.047,0.345,0.931,-0.244,35084
-0.047,0.345,0.931,-0.244,35089
-0.048,0.344,0.931,-0.305,35094
-0.048,0.344,0.931,-0.183,35099
-0.048,0.345,0.931,-0.183,35104
-0.048,0.345,0.931,-0.244,35109
-0.049,0.346,0.93,-0.366,35114
-0.049,0.346,0.93,-0.366,35119
-0.048,0.345,0.933,-0.244,35125
-0.048,0.345,0.933,-0.427,35130
-0.048,0.344,0.932,-0.427,35135
-0.048,0.344,0.932,-0.305,35140
-0.049,0.344,0.933,-0.122,35145
-0.049,0.344,0.933,-0.183,35150
-0.049,0.343,0.933,-0.305,35155
-0.05,0.343,0.933,-0.122,35160
-0.05,0.343,0.933,-0.061,35166
-0.05,0.344,0.932,-0.366,35171
-0.05,0.344,0.932,-0.427,35176
-0.05,0.344,0.93,-0.183,35181
-0.05,0.344,0.93,-0.183,35186
-0.049,0.344,0.933,-0.244,35191
-0.049,0.344,0.933,-0.183,35196
-0.05,0.346,0.931,-0.244,35201
-0.05,0.346,0.931,-0.061,35207
-0.049,0.345,0.933,-0.183,35212
-0.049,0.345,0.933,-0.305,35217
-0.048,0.345,0.931,-0.305,35222
-0.048,0.345,0.931,-0.244,35227
-0.047,0.345,0.932,-0.122,35232
-0.047,0.345,0.932,-0.183,35237
-0.048,0.345,0.93,-0.183,35242
-0.048,0.345,0.93,-0.244,35248
-0.047,0.344,0.93,-0.305,35253
-0.047,0.344,0.93,-0.183,35258
-0.048,0.345,0.932,-0.183,35263
-0.048,0.345,0.932,-0.244,35268
-0.051,0.344,0.931,-0.061,35273
-0.051,0.344,0.931,-0.061,35278
-0.049,0.344,0.931,-0.183,35283
-0.049,0.344,0.931,-0.305,35288
-0.048,0.345,0.932,-0.061,35294
-0.048,0.345,0.932,-0.061,35299
-0.046,0.344,0.931,-0.122,35304
-0.049,0.345,0.932,-0.183,35309
-0.049,0.345,0.932,-0.061,35314
-0.049,0.346,0.932,-0.244,35319
-0.049,0.346,0.932,-0.061,35324
-0.048,0.345,0.933,-0.183,35329
-0.048,0.345,0.933,-0.366,35335
-0.047,0.344,0.934,-0.427,35340
-0.047,0.344,0.934,-0.122,35345
-0.048,0.346,0.932,-0.183,35350
-0.048,0.346,0.932,-0.305,35355
-0.048,0.345,0.931,-0.244,35360
-0.048,0.345,0.931,-0.183,35365
-0.047,0.345,0.931,-0.244,35370
-0.047,0.345,0.931,-0.305,35376
-0.048,0.344,0.931,-0.244,35381
-0.048,0.344,0.931,-0.244,35386
-0.048,0.346,0.932,-0.183,35391
-0.048,0.346,0.932,-0.183,35396
-0.048,0.345,0.931,-0.244,35401
-0.048,0.345,0.931,-0.244,35406
-0.048,0.346,0.93,-0.183,35411
-0.048,0.346,0.93,-0.183,35416
-0.048,0.345,0.934,-0.244,35422
-0.048,0.345,0.934,-0.122,35427
-0.049,0.345,0.931,-0.183,35432
-0.049,0.345,0.931,-0.061,35437
-0.049,0.344,0.933,-0.183,35442
-0.049,0.344,0.933,-0.366,35447
-0.049,0.344,0.933,-0.305,35452
-0.049,0.344,0.933,-0.305,35457
-0.049,0.345,0.931,-0.183,35463
-0.047,0.344,0.932,-0.305,35468
-0.047,0.344,0.932,-0.244,35473
-0.048,0.343,0.932,-0.244,35478
-0.048,0.343,0.932,-0.244,35483
-0.05,0.344,0.932,-0.244,35488
-0.05,0.344,0.932,-0.244,35493
-0.048,0.346,0.931,-0.244,35498
-0.048,0.346,0.931,-0.122,35504
-0.048,0.344,0.932,-0.183,35509
-0.048,0.344,0.932,-0.244,35514
-0.049,0.345,0.931,-0.183,35519
-0.049,0.345,0.931,-0.061,35524
-0.048,0.345,0.932,-0.061,35529
-0.048,0.345,0.932,-0.183,35534
-0.049,0.344,0.933,-0.244,35539
-0.049,0.344,0.933,-0.122,35545
-0.048,0.344,0.932,-0.061,35550
-0.048,0.344,0.932,-0.122,35555
-0.048,0.345,0.93,-0.305,35560
-0.048,0.345,0.93,-0.183,35565
-0.048,0.346,0.93,-0.183,35570
-0.048,0.346,0.93,-0.061,35575
-0.047,0.344,0.931,-0.183,35580
-0.047,0.344,0.931,-0.183,35585
-0.049,0.345,0.932,-0.244,35591
-0.049,0.345,0.932,-0.244,35596
-0.05,0.346,0.931,-0.244,35601
-0.05,0.346,0.931,-0.244,35606
-0.049,0.347,0.928,-0.305,35611
-0.049,0.347,0.928,-0.305,35616
-0.048,0.344,0.932,-0.183,35621
-0.048,0.343,0.932,-0.244,35626
-0.048,0.343,0.932,-0.244,35632
-0.048,0.344,0.93,-0.122,35637
-0.048,0.344,0.93,-0.122,35642
-0.048,0.345,0.93,-0.366,35647
-0.048,0.345,0.93,-0.183,35652
-0.049,0.345,0.932,-0.183,35657
-0.049,0.345,0.932,-0.122,35662
-0.048,0.345,0.931,-0.244,35667
-0.048,0.345,0.931,-0.366,35673
-0.048,0.345,0.928,-0.305,35678
-0.048,0.345,0.928,0.0,35683
-0.048,0.345,0.933,-0.122,35688
-0.048,0.345,0.933,-0.305,35693
-0.049,0.344,0.933,-0.183,35698
-0.049,0.344,0.933,-0.061,35703
-0.05,0.345,0.932,-0.122,35708
-0.05,0.345,0.932,-0.305,35713
-0.051,0.345,0.932,-0.305,35719
-0.051,0.345,0.932,-0.122,35724
-0.05,0.344,0.932,0.0,35729
-0.05,0.344,0.932,-0.122,35734
-0.049,0.346,0.929,-0.366,35739
-0.049,0.346,0.929,-0.244,35744
-0.05,0.345,0.932,-0.183,35749
-0.05,0.345,0.932,-0.061,35754
-0.048,0.345,0.932,-0.061,35759
-0.048,0.345,0.932,-0.122,35765
-0.048,0.344,0.933,-0.061,35770
-0.048,0.344,0.933,-0.183,35775
-0.047,0.344,0.932,-0.183,35780
-0.047,0.344,0.932,-0.244,35785
-0.05,0.345,0.931,-0.183,35790
-0.048,0.346,0.931,-0.183,35795
-0.048,0.346,0.931,-0.122,35800
-0.048,0.345,0.931,-0.061,35805
-0.048,0.345,0.931,-0.183,35811
-0.047,0.345,0.932,-0.305,35816
-0.047,0.345,0.932,-0.305,35821
-0.047,0.345,0.93,-0.183,35826
-0.047,0.345,0.93,-0.244,35831
-0.05,0.346,0.93,-0.305,35836
-0.05,0.346,0.93,-0.122,35841
-0.048,0.344,0.931,-0.061,35846
-0.048,0.344,0.931,-0.061,35852
-0.046,0.344,0.931,-0.122,35857
-0.046,0.344,0.931,-0.244,35862
-0.046,0.344,0.934,-0.183,35867
-0.046,0.344,0.934,-0.183,35872
-0.048,0.343,0.933,-0.183,35877
-0.048,0.343,0.933,-0.305,35882
-0.049,0.343,0.93,-0.183,35887
-0.049,0.343,0.93,-0.122,35893
-0.05,0.343,0.932,-0.183,35898
-0.05,0.343,0.932,-0.305,35903
-0.048,0.345,0.932,-0.305,35908
-0.048,0.345,0.932,-0.183,35913
-0.047,0.345,0.932,-0.366,35918
-0.047,0.345,0.932,-0.305,35923
-0.048,0.345,0.932,-0.183,35928
-0.048,0.345,0.932,-0.244,35934
-0.049,0.346,0.931,-0.183,35939
-0.049,0.346,0.931,-0.244,35944
-0.048,0.345,0.931,-0.244,35949
-0.049,0.346,0.933,-0.244,35954
-0.049,0.346,0.933,-0.244,35959
-0.048,0.344,0.93,-0.305,35964
-0.048,0.344,0.93,-0.244,35969
-0.05,0.344,0.93,-0.061,35974
-0.05,0.344,0.93,-0.061,35980
-0.049,0.346,0.931,-0.305,35985
-0.049,0.346,0.931,-0.305,35990
-0.05,0.345,0.93,-0.183,35995
-0.05,0.345,0.93,-0.122,36000
-0.049,0.343,0.931,-0.122,36005
-0.049,0.343,0.931,-0.244,36010
-0.049,0.345,0.933,-0.244,36015
-0.049,0.345,0.933,-0.122,36021
-0.049,0.344,0.933,-0.122,36026
-0.049,0.344,0.933,-0.122,36031
-0.048,0.344,0.931,-0.244,36036
-0.048,0.344,0.931,-0.183,36041
-0.047,0.346,0.931,0.0,36046
-0.047,0.346,0.931,0.0,36051
-0.047,0.345,0.932,-0.122,36056
-0.047,0.345,0.932,-0.244,36061
-0.049,0.345,0.93,-0.244,36066
-0.049,0.345,0.93,-0.183,36072
-0.05,0.345,0.932,-0.244,36077
-0.05,0.345,0.932,-0.244,36082
-0.049,0.344,0.932,-0.183,36087
-0.049,0.344,0.932,-0.061,36092
-0.047,0.344,0.93,-0.244,36097
-0.047,0.344,0.93,-0.366,36102
-0.048,0.344,0.931,-0.183,36107
-0.047,0.344,0.933,-0.183,36113
-0.047,0.344,0.933,-0.305,36118
-0.049,0.345,0.932,-0.366,36123
-0.049,0.345,0.932,-0.061,36128
-0.049,0.345,0.931,0.0,36133
-0.049,0.345,0.931,-0.244,36138
-0.046,0.345,0.932,-0.305,36143
-0.046,0.345,0.932,-0.244,36148
-0.048,0.343,0.931,-0.183,36153
-0.048,0.343,0.931,-0.183,36159
-0.049,0.343,0.932,-0.183,36164
-0.049,0.343,0.932,-0.122,36169
-0.05,0.343,0.932,-0.305,36174
-0.05,0.343,0.932,-0.244,36179
-0.048,0.343,0.931,-0.122,36184
-0.048,0.343,0.931,-0.244,36189
-0.049,0.345,0.931,-0.244,36194
-0.049,0.345,0.931,-0.244,36200
-0.048,0.344,0.933,-0.122,36205
-0.048,0.344,0.933,-0.061,36210
-0.047,0.344,0.932,-0.122,36215
-0.047,0.344,0.932,-0.122,36220
-0.049,0.345,0.931,-0.122,36225
-0.049,0.345,0.931,-0.244,36230
-0.049,0.346,0.931,-0.122,36235
-0.049,0.346,0.931,-0.122,36240
-0.049,0.344,0.932,-0.183,36246
-0.049,0.344,0.932,-0.244,36251
-0.047,0.344,0.932,-0.244,36256
-0.047,0.344,0.932,-0.244,36261
-0.048,0.344,0.932,-0.305,36266
-0.048,0.344,0.932,-0.244,36271
-0.049,0.346,0.931,-0.122,36276
-0.048,0.346,0.931,-0.183,36281
-0.048,0.346,0.931,-0.305,36287
-0.047,0.344,0.931,-0.244,36292
-0.047,0.344,0.931,-0.183,36297
-0.049,0.344,0.93,-0.122,36302
-0.049,0.344,0.93,-0.305,36307
-0.048,0.345,0.932,-0.305,36312
-0.048,0.345,0.932,-0.183,36317
-0.048,0.345,0.931,-0.122,36322
-0.048,0.345,0.931,-0.305,36328
-0.048,0.345,0.931,-0.244,36333
-0.048,0.345,0.931,-0.122,36338
-0.05,0.345,0.93,-0.061,36343
-0.05,0.345,0.93,-0.122,36348
-0.048,0.345,0.931,-0.305,36353
-0.048,0.345,0.931,-0.244,36358
-0.049,0.345,0.931,-0.122,36363
-0.049,0.345,0.931,-0.183,36369
-0.048,0.345,0.93,-0.305,36374
-0.048,0.345,0.93,-0.305,36379
-0.047,0.344,0.931,-0.183,36384
-0.047,0.344,0.931,-0.061,36389
-0.048,0.344,0.933,-0.061,36394
-0.048,0.344,0.933,-0.305,36399
-0.05,0.344,0.932,-0.305,36404
-0.05,0.344,0.932,-0.122,36410
-0.051,0.346,0.933,-0.183,36415
-0.051,0.346,0.933,-0.366,36420
-0.05,0.345,0.932,-0.366,36425
-0.049,0.344,0.931,-0.183,36430
-0.049,0.344,0.931,-0.244,36435
-0.05,0.344,0.931,-0.244,36440
-0.05,0.344,0.931,-0.183,36445
-0.049,0.344,0.931,-0.061,36450
-0.049,0.344,0.931,-0.122,36456
-0.048,0.345,0.931,-0.122,36461
-0.048,0.345,0.931,-0.244,36466
-0.048,0.344,0.932,-0.244,36471
-0.048,0.344,0.932,0.0,36476
-0.048,0.344,0.932,-0.183,36481
-0.048,0.344,0.932,-0.305,36486
-0.048,0.347,0.93,-0.183,36491
-0.048,0.347,0.93,-0.061,36496
-0.049,0.345,0.933,-0.244,36502
-0.049,0.345,0.933,-0.305,36507
-0.048,0.345,0.932,-0.305,36512
-0.048,0.345,0.932,-0.183,36517
-0.048,0.345,0.933,-0.183,36522
-0.048,0.345,0.933,-0.122,36527
-0.048,0.345,0.933,-0.305,36532
-0.048,0.345,0.933,-0.427,36537
-0.047,0.343,0.932,-0.183,36543
-0.047,0.343,0.932,0.0,36548
-0.047,0.345,0.931,-0.183,36553
-0.047,0.345,0.931,-0.244,36558
-0.047,0.345,0.93,-0.244,36563
-0.047,0.345,0.93,0.0,36568
-0.047,0.345,0.931,0.0,36573
-0.047,0.345,0.931,-0.061,36578
-0.049,0.344,0.93,-0.305,36583
-0.049,0.344,0.93,-0.183,36588
-0.049,0.343,0.932,-0.061,36593
-0.049,0.343,0.932,-0.183,36599
-0.047,0.342,0.932,-0.183,36604
-0.048,0.344,0.93,-0.244,36609
-0.048,0.344,0.93,-0.244,36614
-0.049,0.346,0.931,-0.244,36619
-0.049,0.346,0.931,-0.244,36624
-0.049,0.345,0.932,-0.366,36629
-0.049,0.345,0.932,-0.305,36634
-0.049,0.346,0.933,-0.305,36640
-0.049,0.346,0.933,-0.427,36645
-0.049,0.345,0.931,-0.427,36650
-0.049,0.345,0.931,-0.305,36655
-0.048,0.344,0.931,-0.305,36660
-0.048,0.344,0.931,-0.305,36665
-0.049,0.344,0.931,-0.122,36670
-0.049,0.344,0.931,0.0,36675
-0.05,0.345,0.931,-0.061,36680
-0.05,0.345,0.931,-0.183,36686
-0.05,0.344,0.932,-0.244,36691
-0.05,0.344,0.932,-0.183,36696
-0.049,0.344,0.931,-0.183,36701
-0.049,0.344,0.931,-0.122,36706
-0.048,0.345,0.932,-0.122,36711
-0.048,0.345,0.932,-0.122,36716
-0.048,0.345,0.93,-0.244,36721
-0.048,0.345,0.93,0.0,36726
-0.048,0.345,0.932,0.0,36731
-0.048,0.345,0.932,-0.305,36737
-0.049,0.344,0.934,-0.244,36742
-0.049,0.344,0.934,-0.122,36747
-0.048,0.344,0.932,-0.122,36752
-0.048,0.344,0.932,-0.061,36757
-0.047,0.344,0.931,-0.244,36762
-0.049,0.344,0.931,-0.122,36767
-0.049,0.344,0.931,-0.122,36772
-0.05,0.344,0.931,-0.122,36778
-0.05,0.344,0.931,-0.061,36783
-0.049,0.345,0.93,0.0,36788
-0.049,0.345,0.93,0.0,36793
-0.048,0.344,0.932,-0.244,36798
-0.048,0.344,0.932,-0.366,36803
-0.048,0.344,0.932,-0.427,36808
-0.048,0.344,0.932,-0.183,36813
-0.05,0.344,0.932,-0.061,36818
-0.05,0.344,0.932,-0.244,36823
-0.048,0.344,0.932,-0.244,36829
-0.048,0.344,0.932,-0.366,36834
-0.046,0.344,0.931,-0.183,36839
-0.046,0.344,0.931,-0.122,36844
-0.047,0.344,0.932,-0.244,36849
-0.047,0.344,0.932,-0.183,36854
-0.048,0.344,0.931,-0.122,36859
-0.048,0.344,0.931,-0.061,36864
-0.048,0.344,0.932,-0.122,36870
-0.048,0.344,0.932,-0.305,36875
-0.048,0.345,0.931,-0.183,36880
-0.048,0.345,0.931,-0.122,36885
-0.048,0.346,0.932,-0.244,36890
-0.048,0.346,0.932,-0.244,36895
-0.049,0.343,0.932,-0.244,36900
-0.049,0.343,0.932,-0.183,36905
-0.049,0.343,0.933,-0.122,36910
-0.049,0.343,0.933,-0.183,36916
-0.05,0.345,0.931,-0.183,36921
-0.05,0.345,0.931,-0.183,36926
-0.05,0.344,0.93,-0.244,36931
-0.05,0.344,0.932,-0.244,36936
-0.05,0.344,0.932,-0.244,36941
-0.049,0.344,0.931,-0.183,36946
-0.049,0.344,0.931,-0.122,36951
-0.047,0.346,0.932,-0.183,36957
-0.047,0.346,0.932,-0.122,36962
-0.049,0.344,0.931,-0.244,36967
-0.049,0.344,0.931,-0.244,36972
-0.047,0.345,0.931,-0.244,36977
-0.047,0.345,0.931,-0.122,36982
-0.047,0.345,0.931,-0.183,36987
-0.047,0.345,0.931,-0.183,36992
-0.048,0.344,0.932,-0.122,36998
-0.048,0.344,0.932,-0.183,37003
-0.049,0.345,0.931,-0.122,37008
-0.049,0.345,0.931,-0.183,37013
-0.049,0.346,0.932,-0.183,37018
-0.049,0.346,0.932,-0.122,37023
-0.049,0.345,0.931,-0.183,37028
-0.049,0.345,0.931,-0.244,37033
-0.047,0.345,0.931,-0.183,37039
-0.047,0.345,0.931,-0.183,37044
-0.049,0.345,0.932,-0.305,37049
-0.049,0.345,0.932,-0.244,37054
-0.049,0.345,0.932,-0.244,37059
-0.049,0.345,0.932,-0.305,37064
-0.048,0.346,0.932,-0.183,37069
-0.048,0.346,0.932,-0.183,37074
-0.048,0.345,0.931,-0.244,37080
-0.048,0.345,0.931,-0.244,37085
-0.049,0.344,0.931,-0.061,37090
-0.05,0.344,0.932,-0.244,37095
-0.05,0.344,0.932,-0.122,37100
-0.049,0.344,0.933,-0.122,37105
-0.049,0.344,0.933,-0.183,37110
-0.05,0.344,0.93,-0.183,37115
-0.05,0.344,0.93,-0.366,37120
-0.05,0.345,0.931,-0.427,37126
-0.05,0.345,0.931,-0.244,37131
-0.047,0.345,0.932,-0.305,37136
-0.047,0.345,0.932,-0.122,37141
-0.05,0.345,0.93,-0.366,37146
-0.05,0.345,0.93,-0.305,37151
-0.05,0.346,0.93,-0.244,37156
-0.05,0.346,0.93,-0.244,37161
-0.049,0.344,0.932,-0.305,37167
-0.049,0.344,0.932,-0.366,37172
-0.049,0.344,0.93,-0.244,37177
-0.049,0.344,0.93,-0.122,37182
-0.049,0.344,0.931,-0.244,37187
-0.049,0.344,0.931,-0.366,37192
-0.05,0.344,0.931,-0.366,37197
-0.05,0.344,0.931,-0.183,37202
-0.048,0.344,0.932,-0.244,37208
-0.048,0.344,0.932,-0.122,37213
-0.049,0.345,0.932,-0.244,37218
-0.049,0.345,0.932,-0.244,37223
-0.05,0.344,0.932,0.0,37228
-0.05,0.344,0.932,-0.122,37233
-0.049,0.344,0.931,-0.244,37238
-0.049,0.344,0.931,-0.122,37243
-0.05,0.344,0.931,-0.061,37248
-0.049,0.344,0.931,-0.183,37254
-0.049,0.344,0.931,-0.244,37259
-0.049,0.345,0.932,-0.183,37264
-0.049,0.345,0.932,0.0,37269
-0.047,0.344,0.932,-0.122,37274
-0.047,0.344,0.932,-0.305,37279
-0.049,0.344,0.93,-0.244,37284
-0.049,0.344,0.93,-0.061,37289
-0.047,0.345,0.931,0.0,37294
-0.047,0.345,0.931,-0.244,37299
-0.048,0.345,0.932,-0.366,37305
-0.048,0.345,0.932,-0.183,37310
-0.048,0.345,0.93,-0.244,37315
-0.048,0.345,0.93,-0.244,37320
-0.048,0.345,0.932,-0.244,37325
-0.048,0.345,0.932,-0.244,37330
-0.048,0.343,0.931,-0.061,37335
-0.048,0.343,0.931,-0.122,37340
-0.048,0.345,0.932,-0.305,37346
-0.048,0.345,0.932,-0.305,37351
-0.048,0.346,0.933,-0.183,37356
-0.048,0.346,0.933,-0.244,37361
-0.049,0.345,0.931,-0.305,37366
-0.049,0.345,0.931,-0.122,37371
-0.05,0.345,0.929,-0.122,37376
-0.05,0.345,0.929,-0.183,37381
-0.049,0.347,0.931,-0.183,37387
-0.049,0.347,0.931,-0.244,37392
-0.049,0.345,0.932,-0.244,37397
-0.049,0.345,0.932,-0.122,37402
-0.05,0.344,0.932,-0.183,37407
-0.047,0.344,0.932,-0.366,37412
-0.047,0.344,0.932,-0.305,37417
-0.048,0.344,0.931,-0.244,37422
-0.048,0.344,0.931,-0.244,37428
-0.048,0.345,0.932,-0.305,37433
-0.048,0.345,0.932,-0.122,37438
-0.047,0.344,0.932,-0.183,37443
-0.047,0.344,0.932,-0.183,37448
-0.051,0.344,0.93,-0.305,37453
-0.051,0.344,0.93,-0.305,37458
-0.049,0.344,0.93,-0.183,37463
-0.049,0.344,0.93,-0.061,37468
-0.047,0.346,0.93,-0.244,37474
-0.047,0.346,0.93,-0.305,37479
-0.049,0.345,0.932,-0.183,37484
-0.049,0.345,0.932,-0.122,37489
-0.048,0.343,0.933,-0.061,37494
-0.048,0.343,0.933,-0.061,37499
-0.048,0.344,0.932,-0.183,37504
-0.048,0.344,0.932,-0.183,37509
-0.048,0.346,0.931,-0.061,37515
-0.048,0.346,0.931,-0.122,37520
-0.048,0.345,0.932,-0.122,37525
-0.048,0.345,0.932,-0.244,37530
-0.049,0.345,0.931,-0.366,37535
-0.049,0.345,0.931,-0.305,37540
-0.048,0.344,0.933,-0.183,37545
-0.048,0.344,0.933,-0.122,37550
-0.049,0.345,0.933,-0.305,37555
-0.049,0.345,0.933,-0.366,37561
-0.048,0.345,0.931,-0.122,37566
-0.048,0.344,0.932,-0.183,37571
-0.048,0.344,0.932,-0.305,37576
-0.049,0.345,0.931,-0.244,37581
-0.049,0.345,0.931,-0.061,37586
-0.047,0.344,0.931,-0.183,37591
-0.047,0.344,0.931,-0.305,37596
-0.05,0.345,0.931,-0.305,37602
-0.05,0.345,0.931,-0.183,37607
-0.049,0.344,0.931,-0.244,37612
-0.049,0.344,0.931,-0.244,37617
-0.048,0.345,0.932,-0.305,37622
-0.048,0.345,0.932,-0.366,37627
-0.049,0.345,0.932,-0.305,37632
-0.049,0.345,0.932,-0.183,37637
-0.048,0.344,0.933,-0.366,37642
-0.048,0.344,0.933,-0.366,37648
-0.048,0.345,0.932,-0.122,37653
-0.048,0.345,0.932,-0.122,37658
-0.049,0.345,0.932,-0.244,37663
-0.049,0.345,0.932,-0.366,37668
-0.051,0.345,0.932,-0.244,37673
-0.051,0.345,0.932,0.0,37678
-0.047,0.345,0.931,-0.183,37683
-0.047,0.345,0.931,-0.305,37688
-0.05,0.344,0.932,-0.305,37694
-0.05,0.344,0.932,0.0,37699
-0.049,0.344,0.932,-0.122,37704
-0.049,0.344,0.932,-0.244,37709
-0.049,0.346,0.931,-0.244,37714
-0.049,0.346,0.931,-0.305,37719
-0.05,0.346,0.931,-0.122,37724
-0.05,0.346,0.931,-0.244,37729
-0.049,0.346,0.931,-0.244,37734
-0.049,0.346,0.934,-0.183,37740
-0.049,0.346,0.934,-0.183,37745
-0.049,0.345,0.931,-0.122,37750
-0.049,0.345,0.931,-0.183,37755
-0.047,0.345,0.933,-0.305,37760
-0.047,0.345,0.933,-0.061,37765
-0.046,0.344,0.932,-0.122,37770
-0.046,0.344,0.932,-0.366,37775
-0.05,0.344,0.93,-0.366,37781
-0.05,0.344,0.93,-0.244,37786
-0.049,0.344,0.93,0.0,37791
-0.049,0.344,0.93,-0.183,37796
-0.049,0.345,0.931,-0.305,37801
-0.049,0.345,0.931,-0.244,37806
-0.048,0.343,0.932,-0.244,37811
-0.048,0.343,0.932,-0.183,37816
-0.049,0.344,0.932,-0.366,37821
-0.049,0.344,0.932,-0.244,37827
-0.049,0.345,0.931,-0.183,37832
-0.049,0.345,0.931,-0.183,37837
-0.049,0.345,0.932,-0.122,37842
-0.049,0.345,0.932,-0.122,37847
-0.049,0.346,0.931,-0.122,37852
-0.049,0.346,0.931,-0.183,37857
-0.049,0.346,0.933,-0.122,37862
-0.049,0.346,0.933,-0.244,37868
-0.05,0.345,0.932,-0.427,37873
-0.05,0.345,0.932,-0.427,37878
-0.049,0.344,0.93,-0.366,37883
-0.049,0.344,0.93,-0.183,37888
-0.049,0.344,0.932,-0.305,37893
-0.05,0.345,0.933,-0.305,37898
-0.05,0.345,0.933,-0.183,37903
-0.048,0.344,0.934,-0.244,37909
-0.048,0.344,0.934,-0.305,37914
-0.048,0.344,0.931,-0.183,37919
-0.048,0.344,0.931,-0.122,37924
-0.049,0.345,0.932,-0.244,37929
-0.049,0.345,0.932,-0.061,37934
-0.049,0.344,0.933,-0.122,37939
-0.049,0.344,0.933,-0.305,37944
-0.048,0.345,0.932,-0.244,37949
-0.048,0.345,0.932,-0.183,37955
-0.048,0.346,0.933,-0.183,37960
-0.048,0.346,0.933,-0.183,37965
-0.049,0.344,0.932,-0.122,37970
-0.049,0.344,0.932,-0.061,37975
-0.048,0.344,0.932,-0.122,37980
-0.048,0.344,0.932,-0.244,37985
-0.05,0.345,0.932,-0.183,37990
-0.05,0.345,0.932,-0.122,37996
-0.048,0.344,0.93,-0.122,38001
-0.048,0.344,0.93,-0.183,38006
-0.048,0.344,0.932,-0.244,38011
-0.048,0.344,0.932,-0.244,38016
-0.048,0.346,0.932,-0.183,38021
-0.048,0.346,0.932,-0.183,38026
-0.047,0.344,0.932,-0.183,38031
-0.047,0.344,0.932,-0.305,38037
-0.047,0.344,0.931,-0.244,38042
-0.047,0.344,0.931,-0.183,38047
-0.048,0.346,0.931,-0.305,38052
-0.051,0.344,0.932,-0.366,38057
-0.051,0.344,0.932,-0.122,38062
-0.049,0.344,0.932,-0.122,38067
-0.049,0.344,0.932,-0.305,38072
-0.049,0.345,0.932,-0.122,38078
-0.049,0.345,0.932,-0.061,38083
-0.049,0.344,0.933,-0.183,38088
-0.049,0.344,0.933,-0.427,38093
-0.047,0.345,0.932,-0.244,38098
-0.047,0.345,0.932,-0.122,38103
-0.049,0.344,0.93,-0.122,38108
-0.049,0.344,0.93,-0.366,38113
-0.048,0.345,0.931,-0.305,38119
-0.048,0.345,0.931,-0.244,38124
-0.049,0.345,0.932,-0.244,38129
-0.049,0.345,0.932,-0.427,38134
-0.048,0.344,0.93,-0.366,38139
-0.048,0.344,0.93,-0.366,38144
-0.05,0.344,0.932,-0.244,38149
-0.05,0.344,0.932,-0.183,38154
-0.048,0.344,0.933,-0.183,38159
-0.048,0.344,0.933,-0.305,38165
-0.049,0.346,0.93,-0.244,38170
-0.049,0.346,0.93,-0.244,38175
-0.049,0.345,0.929,-0.244,38180
-0.049,0.345,0.929,-0.305,38185
-0.048,0.344,0.931,-0.183,38190
-0.048,0.344,0.931,-0.061,38195
-0.049,0.344,0.932,-0.122,38200
-0.049,0.344,0.932,-0.183,38206
-0.049,0.345,0.933,-0.183,38211
-0.048,0.345,0.931,-0.244,38216
-0.048,0.345,0.931,-0.122,38221
-0.047,0.346,0.933,-0.183,38226
-0.047,0.346,0.933,-0.183,38231
-0.049,0.346,0.932,-0.183,38236
-0.049,0.346,0.932,-0.061,38241
-0.047,0.346,0.932,-0.244,38247
-0.047,0.346,0.932,-0.244,38252
-0.049,0.346,0.932,-0.183,38257
-0.049,0.346,0.932,-0.122,38262
-0.048,0.345,0.932,-0.183,38267
-0.048,0.345,0.932,-0.427,38272
-0.048,0.344,0.932,-0.305,38277
-0.048,0.344,0.932,-0.122,38282
-0.048,0.345,0.932,-0.061,38288
-0.048,0.345,0.932,-0.061,38293
-0.049,0.344,0.931,-0.183,38298
-0.049,0.344,0.931,-0.244,38303
-0.047,0.344,0.93,-0.244,38308
-0.047,0.344,0.93,-0.122,38313
-0.048,0.345,0.932,-0.183,38318
-0.048,0.345,0.932,-0.305,38323
-0.049,0.344,0.93,-0.183,38328
-0.049,0.344,0.93,-0.122,38334
-0.05,0.344,0.932,-0.244,38339
-0.05,0.344,0.932,-0.244,38344
-0.049,0.344,0.931,-0.305,38349
-0.049,0.344,0.931,-0.244,38354
-0.049,0.344,0.932,-0.183,38359
-0.049,0.344,0.932,-0.244,38364
-0.047,0.344,0.931,-0.244,38369
-0.048,0.344,0.932,-0.183,38375
-0.048,0.344,0.932,-0.305,38380
-0.049,0.345,0.932,-0.244,38385
-0.049,0.345,0.932,-0.305,38390
-0.047,0.345,0.931,-0.244,38395
-0.047,0.345,0.931,-0.244,38400
-0.048,0.344,0.931,-0.244,38405
-0.048,0.344,0.931,-0.305,38410
-0.05,0.345,0.931,-0.305,38416
-0.05,0.345,0.931,-0.122,38421
-0.051,0.345,0.931,-0.122,38426
-0.051,0.345,0.931,-0.061,38431
-0.049,0.344,0.932,-0.244,38436
-0.049,0.344,0.932,-0.305,38441
-0.049,0.345,0.932,-0.244,38446
-0.049,0.345,0.932,-0.183,38451
-0.049,0.346,0.932,-0.366,38457
-0.049,0.346,0.932,-0.427,38462
-0.049,0.344,0.931,-0.061,38467
-0.049,0.344,0.931,-0.183,38472
-0.047,0.345,0.93,-0.244,38477
-0.047,0.345,0.93,-0.305,38482
-0.048,0.345,0.931,-0.183,38487
-0.048,0.345,0.931,-0.122,38492
-0.048,0.344,0.934,-0.183,38497
-0.048,0.344,0.934,-0.244,38503
-0.048,0.346,0.931,-0.244,38508
-0.048,0.346,0.931,-0.244,38513
-0.05,0.345,0.93,-0.061,38518
-0.049,0.345,0.933,-0.427,38523
-0.049,0.345,0.933,-0.244,38528
-0.048,0.344,0.932,0.0,38533
-0.048,0.344,0.932,-0.244,38538
-0.047,0.345,0.933,-0.427,38543
-0.047,0.345,0.933,-0.183,38549
-0.047,0.345,0.932,-0.122,38554
-0.047,0.345,0.932,-0.122,38559
-0.048,0.345,0.931,-0.244,38564
-0.048,0.345,0.931,-0.366,38569
-0.049,0.344,0.932,-0.305,38574
-0.049,0.344,0.932,-0.305,38579
-0.048,0.344,0.933,-0.244,38584
-0.048,0.344,0.933,-0.305,38590
-0.047,0.345,0.932,-0.183,38595
-0.047,0.345,0.932,-0.183,38600
-0.049,0.344,0.933,-0.244,38605
-0.049,0.344,0.933,0.061,38610
-0.049,0.344,0.932,-0.122,38615
-0.049,0.344,0.932,-0.244,38620
-0.05,0.345,0.93,-0.305,38625
-0.05,0.345,0.93,-0.122,38630
-0.049,0.344,0.931,-0.305,38636
-0.049,0.344,0.931,-0.183,38641
-0.048,0.344,0.932,-0.061,38646
-0.048,0.344,0.932,-0.122,38651
-0.048,0.345,0.933,-0.305,38656
-0.048,0.345,0.933,-0.366,38661
-0.049,0.344,0.932,-0.244,38666
-0.049,0.344,0.932,-0.122,38671
-0.049,0.344,0.932,-0.061,38677
-0.049,0.344,0.932,-0.244,38682
-0.047,0.345,0.931,-0.122,38687
-0.048,0.346,0.932,-0.061,38692
-0.048,0.346,0.932,-0.122,38697
-0.048,0.344,0.933,-0.488,38702
-0.048,0.344,0.933,-0.305,38707
-0.047,0.344,0.933,-0.183,38712
-0.047,0.344,0.933,-0.183,38718
-0.047,0.344,0.932,-0.122,38723
-0.047,0.344,0.932,-0.366,38728
-0.047,0.346,0.932,-0.366,38733
-0.047,0.346,0.932,-0.183,38738
-0.049,0.345,0.93,-0.122,38743
-0.049,0.345,0.93,-0.183,38748
-0.049,0.345,0.932,-0.244,38753
-0.049,0.345,0.932,-0.183,38758
-0.048,0.346,0.931,-0.183,38764
-0.048,0.346,0.931,-0.183,38769
-0.048,0.345,0.931,-0.305,38774
-0.048,0.345,0.931,-0.366,38779
-0.05,0.345,0.932,-0.366,38784
-0.05,0.345,0.932,-0.183,38789
-0.049,0.345,0.931,-0.244,38794
-0.049,0.345,0.931,-0.122,38799
-0.049,0.345,0.933,-0.244,38805
-0.049,0.345,0.933,-0.305,38810
-0.048,0.345,0.932,-0.244,38815
-0.048,0.345,0.932,-0.122,38820
-0.049,0.345,0.932,-0.183,38825
-0.049,0.345,0.932,-0.122,38830
-0.048,0.345,0.93,0.0,38835
-0.048,0.345,0.93,-0.183,38840
-0.047,0.344,0.93,-0.061,38845
-0.048,0.345,0.933,-0.122,38851
-0.048,0.345,0.933,-0.305,38856
-0.048,0.344,0.932,-0.122,38861
-0.048,0.344,0.932,-0.183,38866
-0.049,0.345,0.93,-0.061,38871
-0.049,0.345,0.93,0.061,38876
-0.047,0.344,0.932,-0.122,38881
-0.047,0.344,0.932,-0.305,38886
-0.049,0.344,0.931,-0.305,38892
-0.049,0.344,0.931,-0.122,38897
-0.049,0.345,0.932,-0.122,38902
-0.049,0.345,0.932,-0.183,38907
-0.049,0.344,0.931,-0.244,38912
-0.049,0.344,0.931,-0.244,38917
-0.05,0.344,0.932,-0.183,38922
-0.05,0.344,0.932,-0.244,38927
-0.048,0.343,0.93,-0.183,38933
-0.048,0.343,0.93,-0.244,38938
-0.049,0.345,0.931,-0.183,38943
-0.049,0.345,0.931,-0.061,38948
-0.049,0.344,0.931,-0.244,38953
-0.049,0.344,0.931,-0.244,38958
-0.049,0.345,0.93,-0.122,38963
-0.049,0.345,0.93,-0.122,38968
-0.047,0.344,0.932,-0.183,38973
-0.047,0.344,0.932,-0.183,38979
-0.049,0.345,0.932,-0.183,38984
-0.049,0.345,0.932,-0.183,38989
-0.047,0.344,0.932,-0.122,38994
-0.047,0.344,0.932,-0.061,38999
-0.048,0.343,0.931,-0.305,39004
-0.049,0.345,0.932,-0.122,39009
-0.049,0.345,0.932,-0.244,39014
-0.047,0.345,0.932,-0.305,39020
-0.047,0.345,0.932,-0.183,39025
-0.047,0.344,0.931,-0.244,39030
-0.047,0.344,0.931,-0.183,39035
-0.049,0.346,0.931,-0.244,39040
-0.049,0.346,0.931,-0.244,39045
-0.049,0.345,0.931,-0.244,39050
-0.049,0.345,0.931,-0.244,39055
-0.048,0.343,0.932,-0.305,39061
-0.048,0.343,0.932,-0.366,39066
-0.047,0.344,0.932,-0.305,39071
-0.047,0.344,0.932,-0.244,39076
-0.049,0.345,0.932,-0.244,39081
-0.049,0.345,0.932,-0.244,39086
-0.049,0.345,0.932,-0.122,39091
-0.049,0.345,0.932,-0.122,39096
-0.049,0.345,0.931,-0.183,39102
-0.049,0.345,0.931,-0.183,39107
-0.048,0.344,0.932,-0.244,39112
-0.048,0.344,0.932,-0.305,39117
-0.049,0.344,0.931,-0.366,39122
-0.049,0.344,0.931,-0.244,39127
-0.048,0.345,0.932,-0.122,39132
-0.048,0.345,0.932,-0.183,39137
-0.048,0.344,0.931,-0.366,39143
-0.048,0.344,0.931,-0.244,39148
-0.049,0.344,0.931,-0.122,39153
-0.049,0.345,0.932,-0.366,39158
-0.049,0.345,0.932,-0.305,39163
-0.05,0.344,0.931,-0.122,39168
-0.05,0.344,0.931,-0.244,39173
-0.048,0.346,0.932,-0.305,39178
-0.048,0.346,0.932,-0.305,39183
-0.049,0.345,0.931,-0.183,39189
-0.049,0.345,0.931,-0.061,39194
-0.049,0.344,0.933,-0.061,39199
-0.049,0.344,0.933,-0.366,39204
-0.047,0.344,0.932,-0.305,39209
-0.047,0.344,0.932,-0.122,39214
-0.049,0.345,0.931,-0.061,39219
-0.049,0.345,0.931,-0.061,39224
-0.047,0.345,0.929,-0.183,39230
-0.047,0.345,0.929,-0.183,39235
-0.048,0.344,0.93,-0.244,39240
-0.048,0.344,0.93,-0.183,39245
-0.05,0.345,0.93,-0.183,39250
-0.05,0.345,0.93,-0.305,39255
-0.048,0.346,0.93,-0.244,39260
-0.048,0.346,0.93,-0.122,39265
-0.047,0.345,0.931,-0.183,39271
-0.047,0.345,0.931,-0.366,39276
-0.048,0.344,0.93,-0.488,39281
-0.048,0.344,0.93,-0.183,39286
-0.047,0.344,0.932,-0.122,39291
-0.047,0.344,0.932,-0.305,39296
-0.049,0.343,0.933,-0.244,39301
-0.049,0.343,0.933,-0.122,39306
-0.049,0.343,0.933,-0.183,39312
-0.048,0.344,0.932,-0.366,39317
-0.048,0.344,0.932,-0.305,39322
-0.046,0.345,0.932,-0.122,39327
-0.046,0.345,0.932,-0.122,39332
-0.047,0.344,0.932,-0.122,39337
-0.047,0.344,0.932,-0.244,39342
-0.051,0.346,0.931,-0.122,39347
-0.051,0.346,0.931,-0.061,39352
-0.05,0.345,0.932,-0.244,39358
-0.05,0.345,0.932,-0.488,39363
-0.051,0.345,0.933,-0.305,39368
-0.051,0.345,0.933,-0.244,39373
-0.049,0.345,0.931,-0.244,39378
-0.049,0.345,0.931,-0.183,39383
-0.049,0.344,0.93,-0.305,39388
-0.049,0.344,0.93,-0.244,39393
-0.05,0.344,0.93,-0.183,39399
-0.05,0.344,0.93,-0.244,39404
-0.048,0.344,0.931,-0.305,39409
-0.048,0.344,0.931,-0.305,39414
-0.049,0.345,0.931,-0.061,39419
-0.049,0.345,0.931,-0.122,39424
-0.048,0.344,0.933,-0.305,39429
-0.048,0.344,0.933,-0.427,39434
-0.048,0.344,0.931,-0.366,39440
-0.048,0.344,0.931,-0.305,39445
-0.049,0.345,0.932,-0.244,39450
-0.049,0.345,0.932,-0.244,39455
-0.05,0.343,0.933,-0.366,39460
-0.05,0.343,0.933,-0.061,39465
-0.048,0.344,0.932,-0.061,39470
-0.046,0.345,0.932,-0.183,39475
-0.046,0.345,0.932,-0.244,39480
-0.046,0.345,0.932,-0.244,39486
-0.046,0.345,0.932,-0.183,39491
-0.049,0.346,0.931,-0.183,39496
-0.049,0.346,0.931,-0.183,39501
-0.05,0.345,0.931,-0.061,39506
-0.05,0.345,0.931,-0.183,39511
-0.049,0.343,0.93,-0.244,39516
-0.049,0.343,0.93,-0.366,39521
-0.048,0.344,0.932,-0.427,39527
-0.048,0.344,0.932,-0.244,39532
-0.049,0.345,0.933,-0.183,39537
-0.049,0.345,0.933,-0.244,39542
-0.049,0.344,0.931,-0.183,39547
-0.049,0.344,0.931,-0.122,39552
-0.048,0.344,0.931,-0.183,39557
-0.048,0.344,0.931,-0.183,39562
-0.048,0.344,0.932,-0.183,39568
-0.048,0.344,0.932,-0.244,39573
-0.049,0.344,0.932,-0.244,39578
-0.049,0.344,0.932,-0.183,39583
-0.05,0.344,0.931,-0.183,39588
-0.05,0.344,0.931,-0.183,39593
-0.052,0.344,0.932,-0.244,39598
-0.052,0.344,0.932,-0.122,39603
-0.047,0.344,0.933,-0.183,39609
-0.047,0.344,0.933,-0.305,39614
-0.049,0.346,0.931,-0.244,39619
-0.049,0.346,0.931,-0.244,39624
-0.05,0.346,0.932,-0.366,39629
-0.047,0.346,0.932,-0.183,39634
-0.047,0.346,0.932,-0.244,39639
-0.05,0.346,0.931,-0.244,39644
-0.05,0.346,0.931,-0.183,39650
-0.048,0.346,0.932,-0.244,39655
-0.048,0.346,0.932,-0.244,39660
-0.048,0.346,0.93,-0.305,39665
-0.048,0.346,0.93,-0.244,39670
-0.049,0.344,0.932,-0.183,39675
-0.049,0.344,0.932,-0.122,39680
-0.049,0.346,0.931,-0.122,39685
-0.049,0.346,0.931,-0.122,39690
-0.048,0.344,0.933,-0.305,39696
-0.048,0.344,0.933,-0.305,39701
-0.048,0.345,0.932,-0.366,39706
-0.048,0.345,0.932,-0.305,39711
-0.048,0.344,0.932,-0.122,39716
-0.048,0.344,0.932,-0.061,39721
-0.048,0.345,0.93,-0.244,39726
-0.048,0.345,0.93,-0.183,39731
-0.049,0.345,0.929,-0.122,39737
-0.049,0.345,0.929,-0.061,39742
-0.047,0.344,0.932,-0.305,39747
-0.047,0.344,0.932,-0.305,39752
-0.048,0.344,0.933,-0.183,39757
-0.048,0.344,0.933,-0.183,39762
-0.048,0.345,0.932,-0.305,39767
-0.048,0.345,0.932,-0.183,39772
-0.049,0.345,0.929,-0.183,39778
-0.049,0.345,0.929,-0.122,39783
-0.049,0.344,0.932,-0.244,39788
-0.05,0.345,0.931,-0.366,39793
-0.05,0.345,0.931,-0.183,39798
-0.048,0.344,0.929,-0.183,39803
-0.048,0.344,0.929,-0.183,39808
-0.048,0.345,0.931,-0.183,39813
-0.048,0.345,0.931,-0.244,39819
-0.049,0.346,0.931,-0.183,39824
-0.049,0.346,0.931,-0.244,39829
-0.046,0.342,0.929,-0.305,39834
-0.046,0.342,0.929,-0.427,39839
-0.052,0.346,0.927,-0.305,39844
-0.052,0.346,0.927,0.305,39849
-0.047,0.347,0.938,0.671,39854
-0.047,0.347,0.938,-0.366,39859
-0.049,0.345,0.926,-0.977,39865
-0.049,0.345,0.926,-0.122,39870
-0.046,0.342,0.933,-0.061,39875
-0.046,0.342,0.933,-0.793,39880
-0.048,0.346,0.933,-0.732,39885
-0.048,0.346,0.933,-0.183,39890
-0.051,0.345,0.927,0.244,39895
-0.051,0.345,0.927,0.244,39900
-0.045,0.344,0.931,-0.183,39905
-0.045,0.344,0.931,-0.671,39911
-0.049,0.343,0.927,-0.366,39916
-0.049,0.343,0.927,0.183,39921
-0.047,0.347,0.941,0.244,39926
-0.047,0.347,0.941,-0.305,39931
-0.047,0.345,0.934,-0.671,39936
-0.047,0.345,0.934,-0.244,39941
-0.05,0.343,0.931,-0.122,39946
-0.049,0.346,0.931,-1.16,39951
-0.049,0.346,0.931,-0.854,39957
-0.053,0.344,0.926,0.0,39962
-0.053,0.344,0.926,0.183,39967
-0.049,0.345,0.932,0.061,39972
-0.049,0.345,0.932,-0.305,39977
-0.049,0.342,0.919,-0.427,39982
-0.049,0.342,0.919,-0.244,39987
-0.053,0.354,0.941,0.671,39992
-0.053,0.354,0.941,0.732,39997
-0.045,0.351,0.943,-0.549,40002
-0.045,0.351,0.943,-1.038,40008
-0.051,0.342,0.923,-0.427,40013
-0.051,0.342,0.923,-0.549,40018
-0.048,0.343,0.932,-1.221,40023
-0.048,0.343,0.932,-1.038,40028
-0.054,0.345,0.927,-0.244,40033
-0.054,0.345,0.927,0.549,40038
-0.05,0.346,0.937,0.854,40043
-0.05,0.346,0.937,0.244,40048
-0.045,0.341,0.931,-0.793,40053
-0.045,0.341,0.931,-0.671,40059
-0.052,0.34,0.936,-0.061,40064
-0.052,0.34,0.936,0.0,40069
-0.047,0.344,0.943,-0.488,40074
-0.047,0.344,0.943,-0.61,40079
-0.051,0.343,0.924,-0.122,40084
-0.051,0.343,0.924,0.366,40089
-0.046,0.344,0.931,-0.061,40094
-0.046,0.344,0.931,-0.61,40099
-0.049,0.345,0.928,-0.549,40105
-0.049,0.345,0.928,0.061,40110
-0.05,0.345,0.932,0.793,40115
-0.05,0.345,0.932,0.488,40120
-0.045,0.346,0.937,-0.122,40125
-0.047,0.345,0.928,-0.244,40130
-0.047,0.345,0.928,0.0,40135
-0.045,0.346,0.932,-0.488,40140
-0.045,0.346,0.932,-0.793,40145
-0.048,0.344,0.925,-0.488,40150
-0.048,0.344,0.925,-0.122,40156
-0.051,0.345,0.926,0.122,40161
-0.051,0.345,0.926,0.0,40166
-0.047,0.346,0.934,-0.427,40171
-0.047,0.346,0.934,-0.427,40176
-0.049,0.345,0.931,-0.305,40181
-0.049,0.345,0.931,-0.305,40186
-0.048,0.346,0.934,-0.671,40191
-0.048,0.346,0.934,-0.916,40196
-0.05,0.346,0.929,-0.732,40201
-0.05,0.346,0.929,-0.488,40207
-0.05,0.345,0.93,-0.244,40212
-0.05,0.345,0.93,-0.244,40217
-0.052,0.347,0.93,-0.305,40222
-0.052,0.347,0.93,0.183,40227
-0.05,0.347,0.935,0.366,40232
-0.05,0.347,0.935,-0.305,40237
-0.05,0.345,0.928,-0.671,40242
-0.05,0.345,0.928,-0.061,40247
-0.049,0.345,0.931,0.488,40253
-0.049,0.345,0.931,0.122,40258
-0.046,0.346,0.926,-0.549,40263
-0.046,0.346,0.926,-0.183,40268
-0.052,0.346,0.926,0.366,40273
-0.052,0.346,0.926,0.244,40278
-0.047,0.349,0.934,-0.305,40283
-0.047,0.349,0.934,-0.427,40288
-0.048,0.343,0.931,-0.244,40293
-0.048,0.343,0.931,-0.366,40298
-0.051,0.346,0.941,-0.916,40304
-0.05,0.341,0.938,-1.099,40309
-0.05,0.341,0.938,-1.221,40314
-0.053,0.34,0.928,-1.221,40319
-0.053,0.34,0.928,-0.793,40324
-0.051,0.338,0.936,-0.488,40329
-0.051,0.338,0.936,-0.549,40334
-0.051,0.34,0.93,-0.183,40339
-0.051,0.34,0.93,0.427,40345
-0.049,0.343,0.935,0.793,40350
-0.049,0.343,0.935,0.854,40355
-0.048,0.346,0.937,0.732,40360
-0.048,0.346,0.937,0.61,40365
-0.048,0.35,0.929,0.793,40370
-0.048,0.35,0.929,0.854,40375
-0.045,0.354,0.929,0.488,40380
-0.045,0.354,0.929,0.061,40385
-0.05,0.351,0.92,-0.061,40390
-0.05,0.351,0.92,0.061,40395
-0.05,0.349,0.925,0.061,40400
-0.05,0.349,0.925,-0.366,40406
-0.047,0.345,0.929,-0.671,40411
-0.047,0.345,0.929,-0.854,40416
-0.05,0.343,0.932,-0.61,40421
-0.05,0.343,0.932,-0.854,40426
-0.047,0.344,0.936,-1.343,40431
-0.047,0.344,0.936,-1.648,40436
-0.049,0.341,0.934,-1.465,40441
-0.049,0.341,0.934,-1.221,40447
-0.052,0.34,0.934,-1.038,40452
-0.052,0.34,0.934,-0.916,40457
-0.052,0.341,0.938,-0.549,40462
-0.052,0.341,0.938,-0.061,40467
-0.049,0.339,0.936,0.244,40472
-0.047,0.343,0.934,0.488,40477
-0.047,0.343,0.934,0.793,40482
-0.046,0.344,0.934,0.916,40487
-0.046,0.344,0.934,0.854,40492
-0.046,0.345,0.93,0.671,40498
-0.046,0.345,0.93,0.488,40503
-0.047,0.346,0.927,0.366,40508
-0.047,0.346,0.927,0.244,40513
-0.047,0.349,0.927,-0.244,40518
-0.047,0.349,0.927,-0.549,40523
-0.05,0.35,0.927,-0.671,40528
-0.05,0.35,0.927,-0.793,40533
-0.052,0.345,0.93,-0.916,40538
-0.052,0.345,0.93,-1.099,40543
-0.051,0.343,0.931,-1.343,40549
-0.051,0.343,0.931,-1.282,40554
-0.051,0.339,0.935,-0.916,40559
-0.051,0.339,0.935,-1.282,40564
-0.052,0.34,0.933,-1.404,40569
-0.052,0.34,0.933,-0.977,40574
-0.052,0.34,0.937,-0.488,40579
-0.052,0.34,0.937,-0.061,40584
-0.05,0.341,0.935,0.122,40590
-0.05,0.341,0.935,0.305,40595
-0.048,0.344,0.931,0.61,40600
-0.048,0.344,0.931,0.793,40605
-0.048,0.347,0.933,0.977,40610
-0.048,0.347,0.933,0.977,40615
-0.048,0.349,0.929,0.977,40620
-0.048,0.349,0.929,1.099,40625
-0.047,0.349,0.927,1.038,40630
-0.047,0.349,0.927,0.732,40635
-0.046,0.348,0.927,0.305,40640
-0.046,0.348,0.927,0.122,40645
-0.047,0.349,0.925,-0.061,40650
-0.047,0.349,0.925,-0.549,40656
-0.048,0.348,0.928,-0.916,40661
-0.049,0.346,0.929,-1.16,40666
-0.049,0.346,0.929,-1.099,40671
-0.049,0.344,0.931,-1.221,40676
-0.049,0.344,0.931,-1.16,40681
-0.05,0.343,0.935,-0.916,40686
-0.05,0.343,0.935,-0.916,40691
-0.048,0.342,0.935,-0.732,40697
-0.048,0.342,0.935,-0.61,40702
-0.05,0.339,0.937,-0.549,40707
-0.05,0.339,0.937,-0.244,40712
-0.049,0.342,0.932,0.183,40717
-0.049,0.342,0.932,0.366,40722
-0.048,0.343,0.932,0.305,40727
-0.048,0.343,0.932,0.244,40732
-0.049,0.346,0.932,0.305,40737
-0.049,0.346,0.932,0.427,40742
-0.05,0.346,0.93,0.305,40747
-0.05,0.346,0.93,0.244,40753
-0.051,0.347,0.927,0.305,40758
-0.051,0.347,0.927,0.061,40763
-0.049,0.348,0.927,0.0,40768
-0.049,0.348,0.927,-0.244,40773
-0.049,0.348,0.929,-0.427,40778
-0.049,0.348,0.929,-0.61,40783
-0.05,0.344,0.932,-0.793,40788
-0.05,0.344,0.932,-0.916,40793
-0.05,0.343,0.932,-0.854,40798
-0.05,0.343,0.932,-0.793,40804
-0.051,0.343,0.934,-0.793,40809
-0.051,0.343,0.934,-0.61,40814
-0.05,0.342,0.935,-0.427,40819
-0.05,0.342,0.935,-0.305,40824
-0.05,0.342,0.935,-0.244,40829
-0.05,0.342,0.935,-0.183,40834
-0.051,0.341,0.934,0.244,40839
-0.049,0.343,0.934,0.488,40844
-0.049,0.343,0.934,0.366,40850
-0.047,0.344,0.931,0.366,40855
-0.047,0.344,0.931,0.488,40860
-0.045,0.345,0.928,0.488,40865
-0.045,0.345,0.928,0.549,40870
-0.045,0.347,0.927,0.366,40875
-0.045,0.347,0.927,0.122,40880
-0.047,0.348,0.927,0.122,40885
-0.047,0.348,0.927,0.061,40890
-0.047,0.348,0.929,-0.244,40895
-0.047,0.348,0.929,-0.61,40900
-0.049,0.347,0.927,-0.732,40906
-0.049,0.347,0.927,-0.61,40911
-0.05,0.344,0.932,-0.732,40916
-0.05,0.344,0.932,-0.854,40921
-0.049,0.343,0.932,-0.977,40926
-0.049,0.343,0.932,-0.732,40931
-0.049,0.343,0.932,-0.488,40936
-0.049,0.343,0.932,-0.549,40941
-0.049,0.342,0.934,-0.488,40946
-0.049,0.342,0.934,-0.549,40952
-0.051,0.343,0.933,-0.366,40957
-0.051,0.343,0.933,-0.183,40962
-0.051,0.342,0.933,0.0,40967
-0.051,0.342,0.933,0.0,40972
-0.051,0.343,0.931,-0.061,40977
-0.051,0.343,0.931,0.122,40982
-0.051,0.345,0.931,0.122,40987
-0.051,0.345,0.931,0.0,40992
-0.051,0.344,0.929,-0.061,40997
-0.051,0.344,0.929,-0.061,41002
-0.052,0.346,0.931,-0.061,41008
-0.052,0.346,0.931,-0.305,41013
-0.051,0.347,0.931,-0.427,41018
-0.052,0.345,0.932,-0.427,41023
-0.052,0.345,0.932,-0.488,41028
-0.052,0.345,0.93,-0.549,41033
-0.052,0.345,0.93,-0.549,41038
-0.051,0.345,0.932,-0.427,41043
-0.051,0.345,0.932,-0.183,41049
-0.05,0.344,0.934,-0.183,41054
-0.05,0.344,0.934,-0.244,41059
-0.049,0.342,0.935,-0.122,41064
-0.049,0.342,0.935,0.0,41069
-0.049,0.341,0.935,-0.061,41074
-0.049,0.341,0.935,-0.244,41079
-0.05,0.343,0.931,-0.183,41084
-0.05,0.343,0.931,-0.061,41089
-0.05,0.342,0.93,0.122,41095
-0.05,0.342,0.93,0.061,41100
-0.047,0.342,0.93,0.061,41105
-0.047,0.342,0.93,0.122,41110
-0.049,0.344,0.929,0.061,41115
-0.049,0.344,0.929,0.0,41120
-0.048,0.346,0.93,-0.183,41125
-0.048,0.346,0.93,-0.244,41130
-0.049,0.347,0.932,-0.244,41135
-0.049,0.347,0.932,-0.244,41140
-0.049,0.346,0.931,-0.244,41145
-0.049,0.346,0.931,-0.427,41151
-0.05,0.346,0.928,-0.549,41156
-0.05,0.346,0.928,-0.427,41161
-0.048,0.348,0.93,-0.244,41166
-0.048,0.348,0.93,-0.244,41171
-0.048,0.346,0.929,-0.244,41176
-0.048,0.346,0.929,-0.061,41181
-0.049,0.345,0.93,-0.061,41186
-0.048,0.342,0.931,-0.183,41192
-0.048,0.342,0.931,-0.305,41197
-0.05,0.344,0.932,-0.366,41202
-0.05,0.344,0.932,-0.305,41207
-0.05,0.344,0.932,-0.305,41212
-0.05,0.344,0.932,-0.244,41217
-0.05,0.344,0.933,-0.305,41222
-0.05,0.344,0.933,-0.244,41227
-0.051,0.344,0.934,-0.183,41232
-0.051,0.344,0.934,-0.366,41238
-0.051,0.343,0.932,-0.305,41243
-0.051,0.343,0.932,-0.366,41248
-0.051,0.344,0.93,-0.305,41253
-0.051,0.344,0.93,-0.244,41258
-0.05,0.345,0.933,-0.244,41263
-0.05,0.345,0.933,-0.244,41268
-0.051,0.345,0.931,-0.244,41273
-0.051,0.345,0.931,-0.122,41279
-0.049,0.345,0.931,-0.122,41284
-0.049,0.345,0.931,-0.183,41289
-0.049,0.344,0.931,-0.061,41294
-0.049,0.344,0.931,0.122,41299
-0.05,0.344,0.932,0.0,41304
-0.05,0.344,0.932,-0.061,41309
-0.048,0.344,0.932,-0.183,41314
-0.048,0.344,0.932,-0.244,41319
-0.05,0.344,0.933,-0.305,41324
-0.05,0.344,0.933,-0.305,41330
-0.051,0.344,0.931,-0.305,41335
-0.051,0.344,0.931,-0.366,41340
-0.051,0.345,0.931,-0.244,41345
-0.051,0.345,0.931,-0.122,41350
-0.05,0.344,0.931,-0.427,41355
-0.048,0.344,0.932,-0.305,41360
-0.048,0.344,0.932,-0.244,41365
-0.049,0.345,0.933,-0.244,41371
-0.049,0.345,0.933,-0.122,41376
-0.048,0.346,0.933,-0.183,41381
-0.048,0.346,0.933,-0.061,41386
-0.048,0.345,0.932,0.061,41391
-0.048,0.345,0.932,0.0,41396
-0.048,0.346,0.93,0.0,41401
-0.048,0.346,0.93,0.061,41406
-0.048,0.346,0.93,0.061,41411
-0.048,0.346,0.93,-0.122,41416
-0.048,0.345,0.928,-0.366,41421
-0.048,0.345,0.928,-0.122,41427
-0.05,0.346,0.93,-0.244,41432
-0.05,0.346,0.93,-0.427,41437
-0.05,0.345,0.931,-0.549,41442
-0.05,0.345,0.931,-0.61,41447
-0.05,0.344,0.93,-0.366,41452
-0.05,0.344,0.93,-0.305,41457
-0.052,0.344,0.932,-0.366,41462
-0.052,0.344,0.932,-0.427,41468
-0.05,0.345,0.934,-0.305,41473
-0.05,0.345,0.934,-0.244,41478
-0.05,0.343,0.936,-0.244,41483
-0.05,0.343,0.936,-0.427,41488
-0.05,0.342,0.933,-0.427,41493
-0.05,0.342,0.933,-0.183,41498
-0.052,0.344,0.933,0.0,41503
-0.052,0.344,0.933,-0.061,41508
-0.049,0.343,0.932,-0.061,41514
-0.049,0.343,0.932,0.122,41519
-0.049,0.344,0.932,0.122,41524
-0.048,0.346,0.931,-0.061,41529
-0.048,0.346,0.931,-0.122,41534
-0.049,0.346,0.931,-0.122,41539
-0.049,0.346,0.931,-0.305,41544
-0.048,0.345,0.932,-0.366,41549
-0.048,0.345,0.932,-0.366,41554
-0.05,0.344,0.929,-0.366,41560
-0.05,0.344,0.929,-0.305,41565
-0.049,0.345,0.93,-0.366,41570
-0.049,0.345,0.93,-0.366,41575
-0.051,0.344,0.932,-0.427,41580
-0.051,0.344,0.932,-0.366,41585
-0.05,0.343,0.933,-0.305,41590
-0.05,0.343,0.933,-0.244,41595
-0.048,0.343,0.932,-0.244,41601
-0.048,0.343,0.932,-0.366,41606
-0.05,0.345,0.932,-0.305,41611
-0.05,0.345,0.932,-0.183,41616
-0.049,0.345,0.932,0.0,41621
-0.049,0.345,0.932,0.0,41626
-0.048,0.345,0.93,0.0,41631
-0.048,0.345,0.93,-0.061,41636
-0.047,0.345,0.93,-0.061,41641
-0.047,0.345,0.93,-0.122,41646
-0.049,0.346,0.929,-0.061,41651
-0.049,0.346,0.929,0.0,41657
-0.049,0.346,0.929,-0.122,41662
-0.049,0.346,0.929,-0.244,41667
-0.049,0.345,0.931,-0.305,41672
-0.049,0.345,0.931,-0.305,41677
-0.048,0.344,0.931,-0.427,41682
-0.048,0.344,0.931,-0.488,41687
-0.049,0.343,0.931,-0.488,41692
-0.048,0.344,0.933,-0.244,41697
-0.048,0.344,0.933,-0.244,41703
-0.049,0.345,0.933,-0.427,41708
-0.049,0.345,0.933,-0.305,41713
-0.05,0.343,0.934,-0.427,41718
-0.05,0.343,0.934,-0.549,41723
-0.05,0.343,0.933,-0.366,41728
-0.05,0.343,0.933,-0.244,41733
-0.051,0.342,0.931,-0.183,41738
-0.051,0.342,0.931,-0.061,41744
-0.052,0.344,0.931,0.0,41749
-0.052,0.344,0.931,0.061,41754
-0.049,0.344,0.932,-0.061,41759
-0.049,0.344,0.932,-0.061,41764
-0.05,0.345,0.932,-0.061,41769
-0.05,0.345,0.932,0.061,41774
-0.05,0.347,0.932,-0.183,41779
-0.05,0.347,0.932,-0.305,41784
-0.051,0.346,0.928,-0.366,41789
-0.051,0.346,0.928,-0.244,41795
-0.05,0.346,0.931,-0.122,41800
-0.05,0.346,0.931,-0.427,41805
-0.05,0.344,0.93,-0.427,41810
-0.05,0.344,0.93,-0.305,41815
-0.05,0.343,0.931,-0.305,41820
-0.05,0.343,0.931,-0.244,41825
-0.049,0.342,0.934,-0.427,41830
-0.049,0.342,0.934,-0.488,41835
-0.051,0.343,0.933,-0.305,41841
-0.051,0.343,0.933,-0.183,41846
-0.049,0.344,0.933,-0.305,41851
-0.049,0.344,0.933,-0.427,41856
-0.051,0.345,0.929,-0.183,41861
-0.051,0.343,0.932,0.0,41866
-0.051,0.343,0.932,-0.061,41871
-0.048,0.344,0.93,-0.061,41876
-0.048,0.344,0.93,0.061,41881
-0.048,0.345,0.93,0.183,41887
-0.048,0.345,0.93,0.122,41892
-0.047,0.347,0.933,-0.183,41897
-0.047,0.347,0.933,-0.244,41902
-0.05,0.346,0.932,-0.122,41907
-0.05,0.346,0.932,-0.122,41912
-0.049,0.345,0.93,-0.366,41917
-0.049,0.345,0.93,-0.549,41922
-0.05,0.344,0.931,-0.305,41927
-0.05,0.344,0.931,-0.183,41933
-0.052,0.344,0.932,-0.305,41938
-0.052,0.344,0.932,-0.366,41943
-0.051,0.344,0.933,-0.305,41948
-0.051,0.344,0.933,-0.305,41953
-0.05,0.344,0.933,-0.305,41958
-0.05,0.344,0.933,-0.366,41963
-0.052,0.344,0.931,-0.366,41968
-0.052,0.344,0.931,-0.122,41973
-0.05,0.344,0.932,0.061,41979
-0.05,0.344,0.932,0.122,41984
-0.05,0.344,0.934,0.0,41989
-0.05,0.344,0.934,0.061,41994
-0.05,0.344,0.932,0.0,41999
-0.05,0.344,0.932,-0.122,42004
-0.049,0.344,0.931,-0.305,42009
-0.049,0.344,0.931,-0.244,42014
-0.049,0.344,0.93,-0.183,42019
-0.049,0.344,0.93,-0.122,42024
-0.049,0.345,0.93,-0.061,42029
-0.049,0.345,0.928,-0.305,42035
-0.049,0.345,0.928,-0.244,42040
-0.049,0.344,0.933,-0.244,42045
-0.049,0.344,0.933,-0.305,42050
-0.05,0.345,0.933,-0.366,42055
-0.05,0.345,0.933,-0.183,42060
-0.052,0.344,0.932,-0.244,42065
-0.052,0.344,0.932,-0.244,42070
-0.049,0.344,0.93,-0.244,42076
-0.049,0.344,0.93,-0.244,42081
-0.049,0.346,0.929,-0.122,42086
-0.049,0.346,0.929,0.0,42091
-0.048,0.345,0.931,-0.183,42096
-0.048,0.345,0.931,-0.183,42101
-0.048,0.344,0.931,0.0,42106
-0.048,0.344,0.931,-0.122,42111
-0.048,0.344,0.933,-0.061,42116
-0.048,0.344,0.933,-0.122,42121
-0.049,0.344,0.932,-0.244,42127
-0.049,0.344,0.932,-0.244,42132
-0.049,0.346,0.93,-0.244,42137
-0.049,0.346,0.93,-0.244,42142
-0.05,0.345,0.93,-0.366,42147
-0.05,0.345,0.93,-0.305,42152
-0.049,0.344,0.931,-0.244,42157
-0.049,0.344,0.931,-0.244,42162
-0.049,0.343,0.931,-0.305,42168
-0.049,0.343,0.931,-0.305,42173
-0.051,0.345,0.931,-0.427,42178
-0.051,0.345,0.931,-0.244,42183
-0.052,0.344,0.933,-0.244,42188
-0.052,0.344,0.933,-0.305,42193
-0.05,0.344,0.932,-0.061,42198
-0.05,0.344,0.933,-0.122,42203
-0.05,0.344,0.933,-0.244,42209
-0.051,0.345,0.932,-0.305,42214
-0.051,0.345,0.932,-0.183,42219
-0.051,0.344,0.931,-0.061,42224
-0.051,0.344,0.931,0.0,42229
-0.047,0.345,0.932,-0.122,42234
-0.047,0.345,0.932,-0.305,42239
-0.05,0.345,0.93,-0.122,42244
-0.05,0.345,0.93,-0.061,42249
-0.05,0.345,0.932,-0.183,42255
-0.05,0.345,0.932,-0.366,42260
-0.05,0.344,0.93,-0.244,42265
-0.05,0.344,0.93,-0.244,42270
-0.049,0.344,0.932,-0.122,42275
-0.049,0.344,0.932,-0.244,42280
-0.048,0.346,0.932,-0.366,42285
-0.048,0.346,0.932,-0.244,42290
-0.048,0.343,0.933,-0.183,42295
-0.048,0.343,0.933,-0.244,42301
-0.051,0.344,0.933,-0.305,42306
-0.051,0.344,0.933,-0.122,42311
-0.052,0.344,0.931,-0.305,42316
-0.052,0.344,0.931,-0.122,42321
-0.049,0.345,0.932,-0.183,42326
-0.049,0.345,0.932,-0.244,42331
-0.05,0.344,0.931,-0.061,42336
-0.05,0.344,0.931,-0.122,42342
-0.05,0.343,0.931,-0.183,42347
-0.05,0.343,0.931,-0.122,42352
-0.05,0.345,0.931,-0.366,42357
-0.048,0.347,0.93,-0.183,42362
-0.048,0.347,0.93,-0.183,42367
-0.051,0.345,0.931,-0.183,42372
-0.051,0.345,0.931,-0.305,42377
-0.05,0.345,0.933,-0.366,42383
-0.05,0.345,0.933,-0.305,42388
-0.05,0.344,0.931,-0.305,42393
-0.05,0.344,0.931,-0.183,42398
-0.05,0.343,0.934,-0.244,42403
-0.05,0.343,0.934,-0.244,42408
-0.049,0.343,0.932,-0.244,42413
-0.049,0.343,0.932,-0.183,42418
-0.05,0.344,0.934,-0.183,42423
-0.05,0.344,0.934,-0.061,42429
-0.048,0.344,0.932,-0.244,42434
-0.048,0.344,0.932,-0.366,42439
-0.05,0.344,0.928,-0.061,42444
-0.05,0.344,0.928,-0.183,42449
-0.049,0.346,0.933,-0.244,42454
-0.049,0.346,0.933,-0.305,42459
-0.049,0.345,0.931,-0.366,42464
-0.049,0.345,0.931,-0.183,42470
-0.051,0.344,0.932,-0.122,42475
-0.051,0.344,0.932,-0.305,42480
-0.05,0.344,0.931,-0.305,42485
-0.05,0.344,0.931,-0.305,42490
-0.05,0.346,0.929,-0.305,42495
-0.05,0.346,0.929,-0.305,42500
-0.049,0.344,0.933,-0.366,42505
-0.049,0.344,0.933,-0.549,42511
-0.05,0.344,0.931,-0.244,42516
-0.05,0.344,0.932,0.0,42521
-0.05,0.344,0.932,-0.061,42526
-0.05,0.344,0.932,-0.366,42531
-0.05,0.344,0.932,-0.305,42536
-0.051,0.343,0.932,-0.183,42541
-0.051,0.343,0.932,-0.122,42546
-0.048,0.345,0.934,-0.183,42551
-0.048,0.345,0.934,-0.305,42557
-0.05,0.344,0.93,-0.183,42562
-0.05,0.344,0.93,-0.061,42567
-0.051,0.346,0.93,-0.061,42572
-0.051,0.346,0.93,-0.122,42577
-0.049,0.345,0.931,-0.122,42582
-0.049,0.345,0.931,0.0,42587
-0.049,0.346,0.932,-0.061,42592
-0.049,0.346,0.932,-0.305,42597
-0.047,0.346,0.933,-0.427,42602
-0.047,0.346,0.933,-0.305,42608
-0.049,0.344,0.931,-0.305,42613
-0.049,0.344,0.931,-0.427,42618
-0.051,0.344,0.93,-0.366,42623
-0.051,0.344,0.93,-0.244,42628
-0.051,0.345,0.93,-0.183,42633
-0.051,0.345,0.93,-0.244,42638
-0.049,0.344,0.933,-0.244,42643
-0.049,0.344,0.933,-0.305,42649
-0.048,0.343,0.934,-0.183,42654
-0.048,0.343,0.934,-0.183,42659
-0.05,0.344,0.935,-0.244,42664
-0.05,0.344,0.935,-0.244,42669
-0.052,0.344,0.931,-0.061,42674
-0.049,0.345,0.932,-0.183,42679
-0.049,0.345,0.932,-0.122,42684
-0.048,0.345,0.932,-0.183,42690
-0.048,0.345,0.932,-0.122,42695
-0.05,0.345,0.932,0.183,42700
-0.05,0.345,0.932,-0.061,42705
-0.049,0.345,0.933,-0.244,42710
-0.049,0.345,0.933,-0.305,42715
-0.049,0.345,0.931,-0.244,42720
-0.049,0.345,0.931,-0.305,42725
-0.049,0.346,0.932,-0.244,42730
-0.049,0.346,0.932,-0.244,42736
-0.05,0.347,0.932,-0.244,42741
-0.05,0.347,0.932,-0.366,42746
-0.049,0.344,0.931,-0.366,42751
-0.049,0.344,0.931,-0.549,42756
-0.049,0.344,0.932,-0.427,42761
-0.049,0.344,0.932,-0.305,42766
-0.051,0.344,0.933,-0.122,42771
-0.051,0.344,0.933,-0.366,42777
-0.05,0.344,0.934,-0.244,42782
-0.05,0.344,0.934,-0.183,42787
-0.048,0.343,0.931,-0.122,42792
-0.048,0.343,0.931,-0.183,42797
-0.049,0.343,0.929,-0.122,42802
-0.049,0.343,0.929,-0.122,42807
-0.052,0.345,0.931,-0.061,42812
-0.052,0.345,0.931,-0.122,42818
-0.049,0.344,0.932,-0.122,42823
-0.049,0.344,0.932,-0.183,42828
-0.049,0.346,0.932,-0.244,42833
-0.047,0.344,0.931,-0.244,42838
-0.047,0.344,0.931,-0.122,42843
-0.049,0.343,0.932,-0.183,42848
-0.049,0.343,0.932,-0.244,42853
-0.051,0.346,0.932,-0.183,42858
-0.051,0.346,0.932,-0.305,42864
-0.05,0.345,0.932,-0.366,42869
-0.05,0.345,0.932,-0.305,42874
-0.051,0.345,0.93,-0.305,42879
-0.051,0.345,0.93,-0.183,42884
-0.051,0.344,0.931,-0.183,42889
-0.051,0.344,0.931,-0.122,42894
-0.048,0.342,0.931,-0.122,42899
-0.048,0.342,0.931,-0.122,42905
-0.049,0.344,0.932,-0.183,42910
-0.049,0.344,0.932,-0.061,42915
-0.048,0.346,0.931,-0.061,42920
-0.048,0.346,0.931,-0.122,42925
-0.05,0.343,0.931,-0.183,42930
-0.05,0.343,0.931,-0.244,42935
-0.05,0.344,0.933,-0.366,42940
-0.05,0.344,0.933,-0.244,42946
-0.049,0.344,0.931,-0.244,42951
-0.049,0.344,0.931,-0.244,42956
-0.05,0.345,0.932,-0.244,42961
-0.05,0.345,0.932,-0.244,42966
-0.051,0.345,0.929,-0.122,42971
-0.051,0.345,0.929,-0.061,42976
-0.05,0.346,0.932,-0.183,42981
-0.05,0.346,0.932,-0.244,42987
-0.051,0.344,0.932,-0.244,42992
-0.05,0.344,0.932,-0.183,42997
-0.05,0.344,0.932,-0.183,43002
-0.049,0.344,0.932,-0.366,43007
-0.049,0.344,0.932,-0.183,43012
-0.047,0.344,0.932,-0.122,43017
-0.047,0.344,0.932,-0.305,43022
-0.049,0.345,0.932,-0.366,43027
-0.049,0.345,0.932,-0.122,43033
-0.051,0.345,0.932,-0.122,43038
-0.051,0.345,0.932,0.0,43043
-0.05,0.344,0.931,-0.244,43048
-0.05,0.344,0.931,-0.305,43053
-0.05,0.343,0.93,-0.122,43058
-0.05,0.343,0.93,0.0,43063
-0.049,0.346,0.931,-0.122,43068
-0.049,0.346,0.931,-0.183,43073
-0.05,0.345,0.931,-0.305,43078
-0.05,0.345,0.931,-0.305,43084
-0.05,0.343,0.934,-0.305,43089
-0.05,0.343,0.934,-0.366,43094
-0.05,0.343,0.933,-0.305,43099
-0.05,0.343,0.933,-0.244,43104
-0.051,0.344,0.932,-0.427,43109
-0.051,0.344,0.932,-0.366,43114
-0.051,0.345,0.93,-0.244,43119
-0.051,0.345,0.93,-0.366,43125
-0.051,0.343,0.931,-0.183,43130
-0.051,0.343,0.931,-0.061,43135
-0.049,0.344,0.932,-0.061,43140
-0.049,0.344,0.932,-0.244,43145
-0.049,0.344,0.933,-0.122,43150
-0.049,0.344,0.933,-0.061,43155
-0.049,0.344,0.934,-0.305,43160
-0.052,0.346,0.932,-0.366,43165
-0.052,0.346,0.932,-0.244,43171
-0.05,0.345,0.931,-0.183,43176
-0.05,0.345,0.931,-0.183,43181
-0.049,0.344,0.932,-0.183,43186
-0.049,0.344,0.932,-0.122,43191
-0.047,0.346,0.931,-0.183,43196
-0.047,0.346,0.931,-0.183,43201
-0.048,0.344,0.931,-0.244,43206
-0.048,0.344,0.931,-0.183,43212
-0.049,0.342,0.931,-0.183,43217
-0.049,0.342,0.931,-0.305,43222
-0.049,0.343,0.929,-0.305,43227
-0.049,0.343,0.929,-0.183,43232
-0.05,0.344,0.931,-0.183,43237
-0.05,0.344,0.931,-0.122,43242
-0.051,0.346,0.933,-0.183,43247
-0.051,0.346,0.933,-0.183,43253
-0.049,0.345,0.933,-0.122,43258
-0.049,0.345,0.933,-0.183,43263
-0.05,0.346,0.93,-0.183,43268
-0.05,0.346,0.93,-0.244,43273
-0.05,0.345,0.93,-0.305,43278
-0.05,0.345,0.93,-0.244,43283
-0.049,0.346,0.931,-0.122,43288
-0.049,0.346,0.931,-0.122,43294
-0.049,0.345,0.931,-0.122,43299
-0.049,0.345,0.931,-0.366,43304
-0.05,0.344,0.932,-0.183,43309
-0.05,0.344,0.932,-0.122,43314
-0.049,0.343,0.932,-0.183,43319
-0.05,0.344,0.932,-0.183,43324
-0.05,0.344,0.932,-0.122,43329
-0.05,0.345,0.932,-0.244,43335
-0.05,0.345,0.932,-0.122,43340
-0.05,0.344,0.932,-0.305,43345
-0.05,0.344,0.932,-0.305,43350
-0.051,0.344,0.93,-0.305,43355
-0.051,0.344,0.93,-0.244,43360
-0.049,0.345,0.931,-0.122,43365
-0.049,0.345,0.931,-0.244,43370
-0.049,0.345,0.931,-0.244,43375
-0.049,0.345,0.931,-0.244,43381
-0.051,0.345,0.93,-0.183,43386
-0.051,0.345,0.93,-0.183,43391
-0.05,0.344,0.933,-0.305,43396
-0.05,0.344,0.933,-0.122,43401
-0.049,0.344,0.932,-0.122,43406
-0.049,0.344,0.932,-0.183,43411
-0.051,0.344,0.931,-0.305,43416
-0.051,0.344,0.931,-0.183,43422
-0.049,0.344,0.931,-0.183,43427
-0.049,0.344,0.931,-0.122,43432
-0.049,0.344,0.932,-0.366,43437
-0.049,0.344,0.932,-0.366,43442
-0.05,0.345,0.931,-0.244,43447
-0.05,0.345,0.931,-0.244,43452
-0.048,0.345,0.93,-0.183,43457
-0.048,0.345,0.93,-0.122,43463
-0.049,0.344,0.932,-0.122,43468
-0.049,0.344,0.932,-0.183,43473
-0.048,0.345,0.931,-0.183,43478
-0.051,0.345,0.931,-0.366,43483
-0.051,0.345,0.931,-0.244,43488
-0.05,0.344,0.932,-0.183,43493
-0.05,0.344,0.932,-0.122,43498
-0.05,0.345,0.931,-0.244,43504
-0.05,0.345,0.931,-0.305,43509
-0.051,0.344,0.933,-0.183,43514
-0.051,0.344,0.933,-0.305,43519
-0.051,0.344,0.932,-0.488,43524
-0.051,0.344,0.932,-0.366,43529
-0.05,0.345,0.932,-0.305,43534
-0.05,0.345,0.932,-0.183,43539
-0.049,0.344,0.933,-0.244,43545
-0.049,0.344,0.933,-0.305,43550
-0.05,0.344,0.932,-0.061,43555
-0.05,0.344,0.932,-0.122,43560
-0.049,0.346,0.931,-0.244,43565
-0.049,0.346,0.931,-0.183,43570
-0.049,0.344,0.932,-0.061,43575
-0.049,0.344,0.932,-0.061,43580
-0.049,0.345,0.932,0.061,43585
-0.049,0.345,0.932,-0.183,43591
-0.048,0.346,0.931,-0.305,43596
-0.048,0.346,0.931,-0.366,43601
-0.049,0.346,0.931,-0.305,43606
-0.049,0.346,0.931,-0.244,43611
-0.049,0.345,0.931,-0.244,43616
-0.049,0.345,0.931,-0.122,43621
-0.05,0.343,0.932,-0.244,43626
-0.05,0.343,0.932,-0.366,43631
-0.05,0.343,0.931,-0.305,43637
-0.05,0.344,0.932,-0.305,43642
-0.05,0.344,0.932,-0.244,43647
-0.049,0.345,0.933,-0.366,43652
-0.049,0.345,0.933,-0.366,43657
-0.05,0.345,0.932,-0.305,43662
-0.05,0.345,0.932,-0.244,43667
-0.051,0.345,0.93,-0.122,43672
-0.051,0.345,0.93,-0.183,43678
-0.049,0.344,0.931,-0.244,43683
-0.049,0.344,0.931,-0.183,43688
-0.05,0.345,0.932,-0.122,43693
-0.05,0.345,0.932,0.061,43698
-0.049,0.346,0.932,-0.183,43703
-0.049,0.346,0.932,-0.244,43708
-0.05,0.345,0.932,-0.244,43713
-0.05,0.345,0.932,-0.244,43719
-0.05,0.344,0.932,-0.366,43724
-0.05,0.344,0.932,-0.366,43729
-0.05,0.343,0.93,-0.305,43734
-0.05,0.343,0.93,-0.244,43739
-0.051,0.344,0.933,-0.244,43744
-0.051,0.344,0.933,-0.305,43749
-0.05,0.345,0.931,-0.427,43754
-0.05,0.345,0.931,-0.366,43759
-0.048,0.344,0.932,-0.244,43765
-0.048,0.344,0.932,-0.305,43770
-0.049,0.344,0.933,-0.244,43775
-0.049,0.344,0.933,-0.305,43780
-0.048,0.345,0.931,-0.183,43785
-0.048,0.345,0.931,-0.244,43790
-0.049,0.345,0.931,-0.244,43795
-0.051,0.344,0.932,-0.183,43800
-0.051,0.344,0.932,-0.183,43806
-0.048,0.344,0.931,-0.122,43811
-0.048,0.344,0.931,-0.183,43816
-0.05,0.344,0.931,-0.183,43821
-0.05,0.344,0.931,-0.122,43826
-0.051,0.344,0.931,-0.183,43831
-0.051,0.344,0.931,-0.183,43836
-0.05,0.344,0.934,-0.488,43841
-0.05,0.344,0.934,-0.122,43847
-0.05,0.344,0.933,-0.183,43852
-0.05,0.344,0.933,-0.366,43857
-0.049,0.344,0.932,-0.366,43862
-0.049,0.344,0.932,-0.244,43867
-0.05,0.344,0.932,-0.122,43872
-0.05,0.344,0.932,-0.122,43877
-0.049,0.342,0.93,-0.305,43882
-0.049,0.342,0.93,-0.366,43888
-0.05,0.343,0.931,-0.244,43893
-0.05,0.343,0.931,-0.122,43898
-0.049,0.343,0.933,-0.122,43903
-0.049,0.343,0.933,0.0,43908
-0.049,0.347,0.932,-0.183,43913
-0.049,0.347,0.932,-0.122,43918
-0.05,0.346,0.933,-0.122,43923
-0.05,0.346,0.933,-0.244,43928
-0.049,0.344,0.933,-0.305,43934
-0.049,0.344,0.933,-0.122,43939
-0.05,0.343,0.933,-0.244,43944
-0.05,0.343,0.933,-0.061,43949
-0.049,0.344,0.93,-0.122,43954
-0.05,0.345,0.93,-0.061,43959
-0.05,0.345,0.93,-0.061,43964
-0.05,0.345,0.932,-0.061,43969
-0.05,0.345,0.932,-0.183,43974
-0.051,0.344,0.931,-0.244,43980
-0.051,0.344,0.931,-0.183,43985
-0.05,0.345,0.932,-0.122,43990
-0.05,0.345,0.932,-0.183,43995
-0.049,0.344,0.93,-0.183,44000
-0.049,0.344,0.93,-0.305,44005
-0.051,0.344,0.93,-0.427,44010
-0.051,0.344,0.93,-0.244,44015
-0.05,0.344,0.932,-0.305,44021
-0.05,0.344,0.932,-0.244,44026
-0.051,0.346,0.931,-0.183,44031
-0.051,0.346,0.931,-0.122,44036
-0.049,0.344,0.933,-0.122,44041
-0.049,0.344,0.933,-0.183,44046
-0.051,0.343,0.932,-0.305,44051
-0.051,0.343,0.932,-0.244,44056
-0.051,0.343,0.931,-0.183,44062
-0.051,0.343,0.931,-0.244,44067
-0.051,0.345,0.93,-0.122,44072
-0.051,0.345,0.93,0.061,44077
-0.05,0.345,0.932,0.061,44082
-0.05,0.345,0.932,-0.061,44087
-0.05,0.346,0.932,-0.244,44092
-0.05,0.346,0.932,-0.183,44097
-0.05,0.346,0.932,-0.061,44102
-0.05,0.346,0.932,-0.244,44108
-0.049,0.345,0.931,-0.122,44113
-0.049,0.344,0.931,-0.122,44118
-0.049,0.344,0.931,-0.305,44123
-0.049,0.344,0.929,-0.305,44128
-0.049,0.344,0.929,-0.305,44133
-0.05,0.344,0.932,-0.244,44138
-0.05,0.344,0.932,-0.122,44143
-0.049,0.344,0.932,-0.244,44148
-0.049,0.344,0.932,-0.366,44154
-0.049,0.345,0.933,-0.305,44159
-0.049,0.345,0.933,-0.305,44164
-0.05,0.346,0.933,-0.244,44169
-0.05,0.346,0.933,-0.183,44174
-0.052,0.344,0.932,-0.122,44179
-0.052,0.344,0.932,-0.183,44184
-0.051,0.345,0.932,0.0,44189
-0.051,0.345,0.932,-0.061,44194
-0.049,0.343,0.931,-0.122,44200
-0.049,0.343,0.931,0.0,44205
-0.05,0.345,0.932,0.0,44210
-0.05,0.345,0.932,-0.061,44215
-0.049,0.345,0.933,-0.183,44220
-0.049,0.345,0.933,-0.244,44225
-0.049,0.346,0.93,-0.122,44230
-0.049,0.346,0.93,-0.061,44235
-0.05,0.344,0.931,-0.122,44240
-0.05,0.344,0.931,-0.122,44245
-0.05,0.344,0.929,-0.122,44251
-0.05,0.344,0.929,-0.122,44256
-0.05,0.343,0.932,-0.183,44261
-0.05,0.343,0.932,-0.122,44266
-0.049,0.343,0.934,-0.122,44271
-0.049,0.343,0.934,-0.427,44276
-0.051,0.343,0.933,-0.183,44281
-0.05,0.343,0.933,-0.305,44286
-0.05,0.343,0.933,-0.366,44292
-0.05,0.343,0.931,-0.122,44297
-0.05,0.343,0.931,-0.061,44302
-0.05,0.343,0.931,-0.061,44307
-0.05,0.343,0.931,0.0,44312
-0.048,0.343,0.932,0.122,44317
-0.048,0.343,0.932,-0.122,44322
-0.049,0.344,0.932,-0.061,44327
-0.049,0.344,0.932,0.244,44332
-0.048,0.344,0.934,0.061,44338
-0.048,0.344,0.934,-0.061,44343
-0.048,0.343,0.93,-0.244,44348
-0.048,0.343,0.93,-0.244,44353
-0.047,0.345,0.929,-0.244,44358
-0.047,0.345,0.929,-0.122,44363
-0.049,0.346,0.928,-0.183,44368
-0.049,0.346,0.928,-0.244,44373
-0.046,0.345,0.93,0.061,44378
-0.046,0.345,0.93,-0.061,44384
-0.045,0.344,0.932,-0.122,44389
-0.045,0.344,0.932,-0.305,44394
-0.048,0.344,0.932,-0.183,44399
-0.048,0.344,0.932,-0.061,44404
-0.048,0.345,0.935,-0.244,44409
-0.048,0.345,0.935,-0.366,44414
-0.049,0.343,0.931,-0.366,44419
-0.049,0.343,0.931,-0.122,44425
-0.053,0.345,0.932,-0.061,44430
-0.053,0.345,0.932,-0.122,44435
-0.048,0.346,0.933,-0.244,44440
-0.05,0.346,0.933,0.0,44445
-0.05,0.346,0.933,0.183,44450
-0.049,0.344,0.935,-0.183,44455
-0.049,0.344,0.935,-0.549,44460
-0.048,0.343,0.93,-0.305,44465
-0.048,0.343,0.93,-0.183,44470
-0.049,0.345,0.933,-0.244,44476
-0.049,0.345,0.933,-0.244,44481
-0.049,0.343,0.93,-0.244,44486
-0.049,0.343,0.93,-0.122,44491
-0.049,0.344,0.93,0.0,44496
-0.049,0.344,0.93,-0.183,44501
-0.048,0.344,0.935,-0.366,44506
-0.048,0.344,0.935,-0.427,44511
-0.05,0.342,0.93,-0.305,44516
-0.05,0.342,0.93,-0.183,44522
-0.049,0.344,0.933,-0.183,44527
-0.049,0.344,0.933,-0.305,44532
-0.051,0.343,0.93,-0.366,44537
-0.051,0.343,0.93,-0.305,44542
-0.05,0.342,0.93,-0.305,44547
-0.05,0.342,0.93,-0.427,44552
-0.049,0.343,0.932,-0.183,44557
-0.049,0.343,0.932,-0.305,44563
-0.049,0.343,0.931,-0.122,44568
-0.049,0.343,0.931,-0.122,44573
-0.051,0.343,0.933,-0.183,44578
-0.051,0.343,0.933,-0.122,44583
-0.047,0.343,0.932,-0.183,44588
-0.047,0.343,0.932,-0.183,44593
-0.047,0.343,0.933,-0.122,44598
-0.047,0.343,0.933,-0.122,44604
-0.049,0.345,0.931,-0.122,44609
-0.049,0.344,0.929,-0.122,44614
-0.049,0.344,0.929,-0.122,44619
-0.048,0.346,0.927,-0.183,44624
-0.048,0.346,0.927,-0.061,44629
-0.049,0.347,0.932,-0.122,44634
-0.049,0.347,0.932,-0.244,44639
-0.048,0.346,0.93,-0.244,44645
-0.048,0.346,0.93,-0.183,44650
-0.049,0.344,0.931,-0.305,44655
-0.049,0.344,0.931,-0.488,44660
-0.049,0.342,0.93,-0.549,44665
-0.049,0.342,0.93,-0.427,44670
-0.051,0.345,0.932,-0.183,44675
-0.051,0.345,0.932,0.0,44680
-0.048,0.344,0.934,-0.183,44685
-0.048,0.344,0.934,-0.366,44691
-0.048,0.343,0.931,-0.244,44696
-0.048,0.343,0.931,-0.122,44701
-0.049,0.344,0.933,-0.122,44706
-0.049,0.344,0.933,-0.122,44711
-0.05,0.344,0.935,-0.183,44716
-0.05,0.344,0.935,0.0,44721
-0.048,0.345,0.932,0.061,44726
-0.048,0.345,0.932,-0.244,44731
-0.049,0.344,0.929,-0.305,44736
-0.049,0.344,0.929,-0.244,44742
-0.049,0.343,0.931,-0.183,44747
-0.049,0.343,0.931,-0.122,44752
-0.049,0.345,0.931,-0.183,44757
-0.049,0.345,0.931,-0.305,44762
-0.048,0.344,0.93,-0.244,44767
-0.05,0.342,0.931,-0.366,44772
-0.05,0.342,0.931,-0.305,44777
-0.049,0.344,0.934,-0.305,44783
-0.049,0.344,0.934,-0.366,44788
-0.049,0.344,0.931,-0.244,44793
-0.049,0.344,0.931,-0.183,44798
-0.05,0.343,0.934,-0.366,44803
-0.05,0.343,0.934,-0.305,44808
-0.05,0.343,0.932,-0.244,44813
-0.05,0.343,0.932,-0.061,44818
-0.048,0.342,0.933,0.061,44824
-0.048,0.342,0.933,-0.122,44829
-0.046,0.343,0.933,-0.122,44834
-0.046,0.343,0.933,-0.183,44839
-0.049,0.345,0.93,-0.122,44844
-0.049,0.345,0.93,-0.061,44849
-0.051,0.345,0.932,-0.061,44854
-0.051,0.345,0.932,-0.183,44859
-0.051,0.346,0.929,-0.122,44864
-0.051,0.346,0.929,-0.183,44870
-0.048,0.345,0.93,-0.183,44875
-0.048,0.345,0.93,-0.244,44880
-0.049,0.347,0.931,-0.305,44885
-0.049,0.347,0.931,-0.183,44890
-0.047,0.345,0.931,-0.183,44895
-0.047,0.345,0.931,-0.183,44900
-0.047,0.344,0.932,-0.305,44905
-0.047,0.344,0.932,-0.244,44911
-0.048,0.343,0.932,-0.305,44916
-0.048,0.343,0.932,-0.183,44921
-0.048,0.343,0.934,-0.183,44926
-0.048,0.343,0.932,-0.244,44931
-0.048,0.343,0.932,0.0,44936
-0.048,0.343,0.932,0.0,44941
-0.048,0.343,0.932,-0.183,44946
-0.049,0.342,0.933,-0.244,44951
-0.049,0.342,0.933,-0.061,44956
-0.048,0.342,0.931,-0.061,44962
-0.048,0.342,0.931,-0.366,44967
-0.047,0.344,0.931,-0.427,44972
-0.047,0.344,0.931,-0.244,44977
-0.048,0.344,0.933,-0.244,44982
-0.048,0.344,0.933,-0.488,44987
-0.05,0.344,0.931,-0.427,44992
-0.05,0.344,0.931,-0.244,44997
-0.049,0.344,0.931,-0.244,45003
-0.049,0.344,0.931,-0.366,45008
-0.05,0.344,0.934,-0.305,45013
-0.05,0.344,0.934,-0.305,45018
-0.048,0.344,0.933,-0.183,45023
-0.048,0.344,0.933,-0.305,45028
-0.049,0.344,0.932,-0.183,45033
-0.049,0.344,0.932,-0.183,45038
-0.049,0.345,0.934,-0.183,45044
-0.049,0.345,0.934,-0.183,45049
-0.049,0.345,0.931,0.0,45054
-0.049,0.345,0.931,0.0,45059
-0.049,0.344,0.931,-0.183,45064
-0.049,0.344,0.931,-0.061,45069
-0.05,0.345,0.932,-0.183,45074
-0.05,0.345,0.932,-0.183,45079
-0.048,0.344,0.933,-0.061,45084
-0.048,0.344,0.933,-0.244,45089
-0.049,0.344,0.933,-0.244,45095
-0.048,0.344,0.933,-0.122,45100
-0.048,0.344,0.933,-0.122,45105
-0.048,0.343,0.932,-0.366,45110
-0.048,0.343,0.932,-0.305,45115
-0.05,0.344,0.932,-0.122,45120
-0.05,0.344,0.932,-0.366,45125
-0.048,0.344,0.933,-0.305,45130
-0.048,0.344,0.933,-0.244,45136
-0.049,0.343,0.932,-0.183,45141
-0.049,0.343,0.932,0.0,45146
-0.047,0.344,0.932,-0.183,45151
-0.047,0.344,0.932,-0.183,45156
-0.047,0.344,0.931,0.0,45161
-0.047,0.344,0.931,0.122,45166
-0.046,0.344,0.931,-0.061,45171
-0.046,0.344,0.931,-0.122,45176
-0.048,0.346,0.93,-0.183,45181
-0.048,0.346,0.93,0.0,45186
-0.049,0.345,0.931,-0.122,45192
-0.049,0.345,0.931,-0.366,45197
-0.048,0.344,0.933,-0.366,45202
-0.048,0.344,0.933,-0.427,45207
-0.05,0.345,0.93,-0.305,45212
-0.05,0.345,0.93,-0.366,45217
-0.049,0.344,0.932,-0.488,45222
-0.049,0.344,0.932,-0.732,45227
-0.049,0.343,0.932,-0.488,45233
-0.049,0.343,0.932,-0.244,45238
-0.05,0.342,0.935,-0.183,45243
-0.05,0.342,0.935,-0.427,45248
-0.05,0.343,0.934,-0.366,45253
-0.05,0.343,0.934,-0.183,45258
-0.049,0.344,0.932,0.0,45263
-0.047,0.343,0.931,-0.244,45268
-0.047,0.343,0.931,-0.183,45273
-0.051,0.346,0.934,0.061,45279
-0.051,0.346,0.934,0.244,45284
-0.048,0.344,0.932,0.122,45289
-0.048,0.344,0.932,-0.244,45294
-0.048,0.343,0.929,0.0,45299
-0.048,0.343,0.929,-0.183,45304
-0.049,0.345,0.933,-0.305,45309
-0.049,0.345,0.933,-0.183,45314
-0.049,0.346,0.933,-0.122,45319
-0.049,0.346,0.933,-0.488,45324
-0.049,0.345,0.928,-0.488,45330
-0.049,0.345,0.928,-0.305,45335
-0.048,0.343,0.933,-0.366,45340
-0.048,0.343,0.933,-0.427,45345
-0.049,0.344,0.932,-0.671,45350
-0.049,0.344,0.932,-0.244,45355
-0.05,0.344,0.936,0.183,45360
-0.05,0.344,0.936,-0.122,45365
-0.048,0.343,0.932,-0.671,45370
-0.048,0.343,0.932,-0.305,45376
-0.049,0.342,0.93,0.0,45381
-0.049,0.342,0.93,0.122,45386
-0.048,0.345,0.936,0.0,45391
-0.048,0.345,0.936,-0.244,45396
-0.048,0.343,0.928,-0.183,45401
-0.048,0.343,0.928,0.122,45406
-0.047,0.343,0.93,0.061,45411
-0.047,0.343,0.93,-0.244,45416
-0.049,0.344,0.93,-0.366,45421
-0.049,0.344,0.93,-0.061,45426
-0.049,0.346,0.931,0.122,45432
-0.049,0.346,0.931,-0.061,45437
-0.049,0.345,0.929,-0.366,45442
-0.049,0.345,0.929,-0.427,45447
-0.049,0.345,0.929,-0.549,45452
-0.052,0.346,0.932,-0.549,45457
-0.052,0.346,0.932,-0.488,45462
-0.052,0.343,0.931,-0.427,45467
-0.052,0.343,0.931,-0.305,45472
-0.051,0.341,0.929,-0.305,45478
-0.051,0.341,0.929,-0.427,45483
-0.049,0.342,0.935,-0.305,45488
-0.049,0.342,0.935,-0.183,45493
-0.049,0.344,0.934,-0.244,45498
-0.049,0.344,0.934,-0.061,45503
-0.048,0.344,0.933,-0.061,45508
-0.048,0.344,0.933,-0.061,45513
-0.048,0.342,0.931,0.0,45519
-0.048,0.342,0.931,0.061,45524
-0.05,0.345,0.932,0.061,45529
-0.05,0.345,0.932,-0.061,45534
-0.048,0.345,0.931,-0.122,45539
-0.048,0.345,0.931,-0.061,45544
-0.047,0.344,0.93,-0.122,45549
-0.047,0.344,0.93,-0.061,45554
-0.047,0.345,0.93,-0.305,45559
-0.047,0.345,0.93,-0.366,45564
-0.047,0.345,0.931,-0.183,45570
-0.047,0.345,0.931,-0.183,45575
-0.048,0.342,0.932,-0.305,45580
-0.048,0.342,0.932,-0.366,45585
-0.048,0.344,0.929,-0.366,45590
-0.048,0.344,0.929,-0.305,45595
-0.049,0.345,0.932,-0.305,45600
-0.049,0.345,0.932,-0.244,45605
-0.048,0.345,0.932,-0.305,45611
-0.049,0.343,0.934,-0.122,45616
-0.049,0.343,0.934,0.061,45621
-0.049,0.343,0.933,0.0,45626
-0.049,0.343,0.933,-0.061,45631
-0.049,0.345,0.931,0.061,45636
-0.049,0.345,0.931,0.122,45641
-0.049,0.346,0.933,-0.061,45646
-0.049,0.346,0.933,0.061,45651
-0.049,0.346,0.93,0.0,45656
-0.049,0.346,0.93,-0.244,45661
-0.049,0.344,0.93,-0.244,45667
-0.049,0.344,0.93,-0.366,45672
-0.049,0.345,0.932,-0.427,45677
-0.049,0.345,0.932,-0.366,45682
-0.05,0.344,0.932,-0.305,45687
-0.05,0.344,0.932,-0.488,45692
-0.048,0.343,0.933,-0.549,45697
-0.048,0.343,0.933,-0.61,45702
-0.05,0.343,0.931,-0.549,45707
-0.05,0.343,0.931,-0.366,45713
-0.052,0.343,0.934,-0.122,45718
-0.052,0.343,0.934,-0.366,45723
-0.049,0.343,0.936,-0.305,45728
-0.049,0.343,0.936,-0.061,45733
-0.049,0.344,0.931,-0.061,45738
-0.049,0.344,0.931,-0.183,45743
-0.05,0.343,0.932,-0.061,45748
-0.05,0.343,0.932,-0.061,45754
-0.05,0.344,0.931,0.0,45759
-0.05,0.344,0.931,0.122,45764
-0.048,0.346,0.93,-0.061,45769
-0.048,0.346,0.93,-0.061,45774
-0.048,0.345,0.93,-0.122,45779
-0.048,0.345,0.931,-0.061,45784
-0.048,0.345,0.931,-0.244,45789
-0.049,0.343,0.931,-0.366,45794
-0.049,0.343,0.931,-0.244,45800
-0.048,0.343,0.93,-0.183,45805
-0.048,0.343,0.93,-0.366,45810
-0.047,0.343,0.93,-0.488,45815
-0.047,0.343,0.93,-0.427,45820
-0.05,0.343,0.93,-0.305,45825
-0.05,0.343,0.93,-0.183,45830
-0.049,0.344,0.932,-0.122,45835
-0.049,0.344,0.932,-0.244,45840
-0.049,0.345,0.931,-0.122,45846
-0.049,0.345,0.931,-0.061,45851
-0.047,0.345,0.934,0.0,45856
-0.047,0.345,0.934,-0.183,45861
-0.048,0.345,0.93,-0.183,45866
-0.048,0.345,0.93,-0.061,45871
-0.048,0.345,0.928,0.244,45876
-0.048,0.345,0.928,-0.122,45881
-0.046,0.346,0.929,-0.183,45886
-0.046,0.346,0.929,-0.061,45892
-0.047,0.346,0.929,-0.061,45897
-0.047,0.346,0.929,-0.183,45902
-0.049,0.345,0.931,-0.427,45907
-0.049,0.345,0.931,-0.427,45912
-0.052,0.345,0.931,-0.427,45917
-0.052,0.345,0.931,-0.366,45922
-0.048,0.344,0.933,-0.366,45927
-0.048,0.344,0.933,-0.488,45932
-0.049,0.346,0.932,-0.549,45938
-0.049,0.346,0.932,-0.244,45943
-0.048,0.343,0.934,-0.549,45948
-0.049,0.343,0.934,-0.305,45953
-0.049,0.343,0.934,-0.122,45958
-0.049,0.342,0.934,-0.061,45963
-0.049,0.342,0.934,-0.183,45968
-0.048,0.343,0.933,-0.305,45973
-0.048,0.343,0.933,-0.061,45979
-0.049,0.345,0.932,0.0,45984
-0.049,0.345,0.932,-0.061,45989
-0.048,0.343,0.931,-0.122,45994
-0.048,0.343,0.931,-0.183,45999
-0.05,0.342,0.932,-0.122,46004
-0.05,0.342,0.932,-0.061,46009
-0.048,0.345,0.932,-0.244,46014
-0.048,0.345,0.932,-0.244,46019
-0.052,0.345,0.932,-0.244,46025
-0.052,0.345,0.932,-0.427,46030
-0.052,0.344,0.933,-0.366,46035
-0.052,0.344,0.933,-0.427,46040
-0.052,0.344,0.932,-0.488,46045
-0.052,0.344,0.932,-0.427,46050
-0.051,0.345,0.931,-0.427,46055
-0.051,0.345,0.931,-0.244,46060
-0.049,0.344,0.932,-0.305,46066
-0.049,0.344,0.932,-0.122,46071
-0.051,0.344,0.932,0.061,46076
-0.051,0.344,0.932,0.061,46081
-0.049,0.344,0.932,-0.061,46086
-0.049,0.344,0.932,-0.122,46091
-0.047,0.345,0.933,0.061,46096
-0.047,0.345,0.933,0.122,46101
-0.048,0.345,0.93,-0.061,46106
-0.048,0.345,0.93,-0.122,46111
-0.048,0.346,0.93,-0.061,46117
-0.046,0.344,0.93,-0.183,46122
-0.046,0.344,0.93,-0.305,46127
-0.049,0.346,0.931,-0.244,46132
-0.049,0.346,0.931,-0.366,46137
-0.048,0.343,0.932,-0.366,46142
-0.048,0.343,0.932,-0.305,46147
-0.046,0.344,0.932,-0.366,46152
-0.046,0.344,0.932,-0.366,46158
-0.049,0.344,0.932,-0.366,46163
-0.049,0.344,0.932,-0.366,46168
-0.051,0.344,0.934,-0.366,46173
-0.051,0.344,0.934,-0.366,46178
-0.049,0.344,0.933,-0.305,46183
-0.049,0.344,0.933,-0.244,46188
-0.048,0.344,0.933,-0.122,46193
-0.048,0.344,0.933,-0.183,46199
-0.049,0.343,0.932,-0.305,46204
-0.049,0.343,0.932,-0.183,46209
-0.049,0.344,0.931,-0.122,46214
-0.049,0.344,0.931,-0.122,46219
-0.047,0.346,0.931,-0.122,46224
-0.047,0.346,0.931,-0.122,46229
-0.05,0.346,0.932,-0.244,46234
-0.05,0.346,0.932,-0.305,46240
-0.049,0.347,0.93,-0.366,46245
-0.049,0.347,0.93,-0.427,46250
-0.05,0.346,0.932,-0.305,46255
-0.05,0.346,0.932,-0.244,46260
-0.05,0.344,0.933,-0.244,46265
-0.051,0.344,0.931,-0.366,46270
-0.051,0.344,0.931,-0.183,46275
-0.049,0.344,0.932,-0.183,46280
-0.049,0.344,0.932,-0.122,46286
-0.048,0.345,0.934,-0.427,46291
-0.048,0.345,0.934,-0.244,46296
-0.049,0.344,0.933,0.0,46301
-0.049,0.344,0.933,-0.183,46306
-0.05,0.344,0.933,-0.366,46311
-0.05,0.344,0.933,-0.183,46316
-0.051,0.345,0.932,-0.061,46321
-0.051,0.345,0.932,-0.122,46326
-0.049,0.345,0.932,-0.061,46332
-0.049,0.345,0.932,0.0,46337
-0.049,0.346,0.931,-0.061,46342
-0.049,0.346,0.931,0.0,46347
-0.048,0.345,0.931,-0.183,46352
-0.048,0.345,0.931,-0.427,46357
-0.048,0.345,0.93,-0.244,46362
-0.048,0.345,0.93,-0.122,46367
-0.048,0.345,0.932,-0.244,46372
-0.048,0.345,0.932,-0.305,46377
-0.046,0.344,0.93,-0.366,46383
-0.046,0.344,0.93,-0.427,46388
-0.048,0.343,0.932,-0.427,46393
-0.048,0.343,0.932,-0.427,46398
-0.048,0.344,0.933,-0.488,46403
-0.048,0.344,0.933,-0.427,46408
-0.048,0.343,0.934,-0.244,46413
-0.048,0.343,0.934,-0.122,46418
-0.048,0.343,0.933,-0.244,46424
-0.048,0.343,0.933,-0.305,46429
-0.049,0.344,0.932,-0.183,46434
-0.048,0.344,0.932,0.0,46439
-0.048,0.344,0.932,-0.305,46444
-0.047,0.345,0.931,-0.305,46449
-0.047,0.345,0.931,-0.061,46454
-0.048,0.344,0.932,-0.122,46459
-0.048,0.344,0.932,-0.305,46464
-0.05,0.344,0.932,-0.366,46470
-0.05,0.344,0.932,-0.427,46475
-0.051,0.344,0.931,-0.244,46480
-0.051,0.344,0.931,-0.244,46485
-0.049,0.344,0.931,-0.427,46490
-0.049,0.344,0.931,-0.427,46495
-0.049,0.343,0.931,-0.366,46500
-0.049,0.343,0.931,-0.305,46505
-0.051,0.343,0.932,-0.244,46511
-0.051,0.343,0.932,-0.305,46516
-0.05,0.342,0.932,-0.244,46521
-0.05,0.342,0.932,-0.244,46526
-0.05,0.343,0.934,-0.183,46531
-0.05,0.343,0.934,0.0,46536
-0.049,0.344,0.933,0.0,46541
-0.049,0.344,0.933,-0.061,46546
-0.049,0.345,0.931,-0.061,46551
-0.049,0.345,0.931,0.061,46556
-0.048,0.345,0.932,-0.061,46562
-0.048,0.345,0.932,0.122,46567
-0.047,0.346,0.931,0.0,46572
-0.047,0.346,0.931,0.061,46577
-0.047,0.345,0.931,-0.061,46582
-0.047,0.345,0.931,-0.061,46587
-0.047,0.346,0.929,-0.183,46592
-0.047,0.346,0.929,-0.244,46597
-0.048,0.346,0.931,-0.183,46602
-0.048,0.346,0.931,-0.366,46607
-0.048,0.344,0.934,-0.305,46613
-0.048,0.344,0.931,-0.366,46618
-0.048,0.344,0.931,-0.366,46623
-0.048,0.344,0.932,-0.427,46628
-0.048,0.344,0.932,-0.427,46633
-0.049,0.344,0.932,-0.366,46638
-0.049,0.344,0.932,-0.244,46643
-0.047,0.343,0.932,-0.305,46648
-0.047,0.343,0.932,-0.244,46654
-0.05,0.344,0.93,-0.244,46659
-0.05,0.344,0.93,-0.061,46664
-0.049,0.344,0.931,-0.122,46669
-0.049,0.344,0.931,-0.122,46674
-0.05,0.344,0.932,-0.183,46679
-0.05,0.344,0.932,-0.061,46684
-0.051,0.343,0.931,-0.061,46689
-0.051,0.343,0.931,-0.183,46694
-0.049,0.344,0.931,-0.305,46700
-0.049,0.344,0.931,-0.305,46705
-0.049,0.344,0.932,-0.183,46710
-0.049,0.344,0.932,-0.244,46715
-0.049,0.344,0.931,-0.488,46720
-0.049,0.344,0.931,-0.488,46725
-0.049,0.345,0.931,-0.305,46730
-0.049,0.345,0.931,-0.366,46735
-0.05,0.344,0.932,-0.305,46741
-0.05,0.344,0.932,-0.366,46746
-0.052,0.346,0.932,-0.183,46751
-0.052,0.346,0.932,-0.244,46756
-0.05,0.346,0.935,-0.244,46761
-0.05,0.346,0.935,-0.183,46766
-0.049,0.345,0.933,-0.122,46771
-0.048,0.344,0.932,-0.183,46776
-0.048,0.344,0.932,-0.122,46782
-0.049,0.344,0.932,-0.244,46787
-0.049,0.344,0.932,-0.183,46792
-0.048,0.344,0.932,-0.061,46797
-0.048,0.344,0.932,-0.244,46802
-0.047,0.344,0.931,-0.122,46807
-0.047,0.344,0.931,-0.061,46812
-0.049,0.345,0.931,-0.183,46817
-0.049,0.345,0.931,-0.183,46823
-0.052,0.346,0.933,-0.244,46828
-0.052,0.346,0.933,-0.244,46833
-0.05,0.344,0.928,-0.244,46838
-0.05,0.344,0.928,-0.183,46843
-0.048,0.345,0.93,-0.305,46848
-0.048,0.345,0.93,-0.305,46853
-0.048,0.346,0.933,-0.183,46858
-0.048,0.346,0.933,-0.305,46863
-0.047,0.344,0.933,-0.488,46869
-0.047,0.344,0.933,-0.366,46874
-0.046,0.344,0.932,-0.183,46879
-0.046,0.344,0.932,-0.122,46884
-0.048,0.345,0.933,-0.061,46889
-0.048,0.345,0.933,0.0,46894
-0.046,0.346,0.931,-0.183,46899
-0.046,0.346,0.931,-0.305,46904
-0.048,0.344,0.93,-0.244,46909
-0.048,0.344,0.93,-0.122,46915
-0.049,0.345,0.932,-0.122,46920
-0.049,0.345,0.932,-0.122,46925
-0.051,0.345,0.932,-0.122,46930
-0.047,0.344,0.93,-0.183,46935
-0.047,0.344,0.93,-0.305,46940
-0.049,0.344,0.93,-0.183,46945
-0.049,0.344,0.93,-0.244,46950
-0.049,0.345,0.932,-0.305,46956
-0.049,0.345,0.932,-0.244,46961
-0.05,0.344,0.931,-0.366,46966
-0.05,0.344,0.931,-0.427,46971
-0.049,0.344,0.931,-0.366,46976
-0.049,0.344,0.931,-0.305,46981
-0.048,0.343,0.932,-0.549,46986
-0.048,0.343,0.932,-0.427,46991
-0.05,0.344,0.934,-0.183,46997
-0.05,0.344,0.934,-0.183,47002
-0.049,0.344,0.934,-0.183,47007
-0.049,0.344,0.934,-0.122,47012
-0.051,0.345,0.932,-0.305,47017
-0.051,0.345,0.932,-0.183,47022
-0.051,0.344,0.93,-0.183,47027
-0.051,0.344,0.93,-0.183,47032
-0.049,0.344,0.932,-0.122,47037
-0.049,0.344,0.932,0.0,47043
-0.052,0.345,0.93,0.0,47048
-0.052,0.345,0.93,0.061,47053
-0.048,0.344,0.929,-0.061,47058
-0.048,0.344,0.929,-0.244,47063
-0.05,0.345,0.932,-0.122,47068
-0.05,0.345,0.932,-0.183,47073
-0.048,0.345,0.934,-0.183,47078
-0.048,0.345,0.934,-0.305,47083
-0.049,0.346,0.93,-0.305,47088
-0.047,0.345,0.931,-0.122,47094
-0.047,0.345,0.931,-0.305,47099
-0.049,0.344,0.93,-0.488,47104
-0.049,0.344,0.93,-0.244,47109
-0.051,0.344,0.933,0.0,47114
-0.051,0.344,0.933,-0.305,47119
-0.049,0.344,0.931,-0.61,47124
-0.049,0.344,0.931,-0.305,47129
-0.049,0.344,0.932,-0.061,47134
-0.049,0.344,0.932,0.061,47140
-0.047,0.345,0.934,-0.122,47145
-0.047,0.345,0.934,-0.366,47150
-0.048,0.343,0.929,-0.122,47155
-0.048,0.343,0.929,0.0,47160
-0.047,0.344,0.934,-0.183,47165
-0.047,0.344,0.934,-0.305,47170
-0.047,0.344,0.931,-0.305,47175
-0.047,0.344,0.931,-0.122,47180
-0.048,0.346,0.932,-0.122,47186
-0.048,0.346,0.932,-0.183,47191
-0.049,0.343,0.93,-0.305,47196
-0.049,0.343,0.93,-0.244,47201
-0.051,0.344,0.929,-0.061,47206
-0.051,0.344,0.929,-0.061,47211
-0.049,0.344,0.932,-0.305,47216
-0.049,0.344,0.932,-0.305,47221
-0.049,0.343,0.931,-0.244,47227
-0.049,0.343,0.931,-0.244,47232
-0.049,0.342,0.933,-0.488,47237
-0.049,0.342,0.933,-0.488,47242
-0.049,0.342,0.931,-0.244,47247
-0.049,0.342,0.931,-0.183,47252
-0.049,0.342,0.932,-0.244,47257
-0.051,0.344,0.93,-0.366,47262
-0.051,0.344,0.93,-0.122,47268
-0.05,0.343,0.931,0.122,47273
-0.05,0.343,0.931,0.0,47278
-0.048,0.344,0.933,-0.183,47283
-0.048,0.344,0.933,-0.061,47288
-0.049,0.343,0.931,0.0,47293
-0.049,0.343,0.931,-0.122,47298
-0.049,0.344,0.93,-0.305,47303
-0.049,0.344,0.93,-0.183,47308
-0.048,0.345,0.93,-0.122,47313
-0.048,0.345,0.93,-0.183,47318
-0.049,0.344,0.931,-0.122,47324
-0.049,0.344,0.931,-0.244,47329
-0.05,0.346,0.932,-0.183,47334
-0.05,0.346,0.932,-0.244,47339
-0.05,0.344,0.93,-0.366,47344
-0.05,0.344,0.93,-0.305,47349
-0.049,0.344,0.93,-0.305,47354
-0.049,0.344,0.93,-0.305,47359
-0.049,0.343,0.93,-0.183,47365
-0.049,0.343,0.93,-0.122,47370
-0.048,0.344,0.93,0.0,47375
-0.048,0.344,0.93,-0.305,47380
-0.047,0.344,0.934,-0.244,47385
-0.047,0.344,0.934,-0.183,47390
-0.046,0.344,0.933,-0.061,47395
-0.046,0.344,0.933,-0.122,47400
-0.048,0.345,0.93,-0.122,47405
-0.048,0.345,0.93,-0.244,47411
-0.048,0.345,0.929,-0.305,47416
-0.048,0.345,0.929,-0.305,47421
-0.048,0.344,0.931,-0.244,47426
-0.048,0.344,0.932,-0.305,47431
-0.048,0.344,0.932,-0.244,47436
-0.049,0.343,0.931,-0.366,47441
-0.049,0.343,0.931,-0.366,47446
-0.048,0.345,0.932,-0.244,47452
-0.048,0.345,0.932,-0.244,47457
-0.047,0.344,0.934,-0.244,47462
-0.047,0.344,0.934,-0.427,47467
-0.049,0.344,0.931,-0.366,47472
-0.049,0.344,0.931,-0.305,47477
-0.051,0.345,0.932,-0.305,47482
-0.051,0.345,0.932,-0.305,47487
-0.051,0.344,0.93,-0.244,47492
-0.051,0.344,0.93,-0.122,47498
-0.049,0.344,0.931,-0.122,47503
-0.049,0.344,0.931,-0.122,47508
-0.048,0.345,0.932,-0.366,47513
-0.048,0.345,0.932,-0.305,47518
-0.05,0.345,0.931,-0.122,47523
-0.05,0.345,0.931,-0.183,47528
-0.05,0.345,0.931,-0.305,47533
-0.05,0.345,0.931,-0.427,47539
-0.05,0.343,0.932,-0.183,47544
-0.05,0.343,0.932,-0.122,47549
-0.049,0.345,0.931,-0.183,47554
-0.049,0.345,0.931,-0.305,47559
-0.049,0.345,0.932,-0.183,47564
-0.049,0.345,0.932,-0.122,47569
-0.048,0.343,0.931,-0.244,47574
-0.048,0.343,0.931,-0.183,47580
-0.046,0.344,0.929,-0.122,47585
-0.046,0.344,0.933,-0.061,47590
-0.046,0.344,0.933,-0.183,47595
-0.048,0.343,0.93,-0.183,47600
-0.048,0.343,0.93,-0.061,47605
-0.048,0.344,0.932,-0.122,47610
-0.048,0.344,0.932,-0.183,47615
-0.048,0.342,0.932,-0.244,47621
-0.048,0.342,0.932,-0.305,47626
-0.048,0.345,0.932,0.0,47631
-0.048,0.345,0.932,-0.122,47636
-0.046,0.344,0.931,-0.244,47641
-0.046,0.344,0.931,-0.305,47646
-0.048,0.343,0.931,-0.183,47651
-0.048,0.343,0.931,-0.183,47656
-0.049,0.344,0.931,-0.244,47661
-0.049,0.344,0.931,-0.305,47667
-0.049,0.344,0.933,-0.244,47672
-0.049,0.344,0.933,-0.061,47677
-0.049,0.343,0.934,-0.122,47682
-0.049,0.343,0.934,-0.427,47687
-0.048,0.346,0.931,-0.488,47692
-0.048,0.346,0.931,-0.305,47697
-0.05,0.344,0.931,-0.305,47702
-0.05,0.344,0.931,-0.183,47708
-0.049,0.343,0.931,-0.183,47713
-0.049,0.343,0.931,-0.244,47718
-0.049,0.343,0.931,-0.122,47723
-0.049,0.343,0.931,-0.122,47728
-0.049,0.344,0.932,-0.305,47733
-0.049,0.344,0.932,-0.183,47738
-0.05,0.344,0.931,-0.183,47743
-0.049,0.345,0.932,-0.244,47748
-0.049,0.345,0.932,-0.122,47754
-0.049,0.345,0.932,-0.244,47759
-0.049,0.345,0.932,-0.183,47764
-0.051,0.344,0.931,-0.183,47769
-0.051,0.344,0.931,-0.183,47774
-0.05,0.344,0.932,-0.122,47779
-0.05,0.344,0.932,-0.122,47784
-0.049,0.343,0.933,-0.122,47789
-0.049,0.343,0.933,-0.183,47795
-0.049,0.344,0.933,-0.244,47800
-0.049,0.344,0.933,-0.244,47805
-0.05,0.343,0.932,-0.244,47810
-0.05,0.343,0.932,-0.305,47815
-0.049,0.344,0.933,-0.122,47820
-0.049,0.344,0.933,-0.122,47825
-0.046,0.342,0.932,-0.305,47830
-0.046,0.342,0.932,-0.366,47836
-0.05,0.344,0.93,-0.244,47841
-0.05,0.344,0.93,0.0,47846
-0.048,0.345,0.936,0.122,47851
-0.048,0.345,0.936,-0.549,47856
-0.049,0.345,0.929,-0.488,47861
-0.049,0.345,0.929,0.061,47866
-0.047,0.344,0.929,-0.244,47871
-0.047,0.344,0.929,-0.732,47876
-0.051,0.347,0.934,-0.183,47881
-0.051,0.347,0.934,0.244,47887
-0.048,0.345,0.933,0.061,47892
-0.048,0.345,0.933,-0.366,47897
-0.046,0.344,0.927,-0.427,47902
-0.046,0.344,0.927,-0.305,47907
-0.049,0.343,0.932,-0.122,47912
-0.048,0.345,0.933,-0.244,47917
-0.048,0.345,0.933,-0.366,47922
-0.049,0.345,0.928,-0.122,47927
-0.049,0.345,0.928,-0.122,47933
-0.047,0.343,0.931,-0.488,47938
-0.047,0.343,0.931,-0.671,47943
-0.052,0.344,0.933,-0.427,47948
-0.052,0.344,0.933,-0.122,47953
-0.051,0.343,0.934,-0.122,47958
-0.051,0.343,0.934,-0.305,47963
-0.049,0.341,0.931,-0.366,47968
-0.049,0.341,0.931,-0.061,47974
-0.049,0.343,0.935,-0.122,47979
-0.049,0.343,0.935,-0.183,47984
-0.048,0.345,0.935,-0.305,47989
-0.048,0.345,0.935,-0.061,47994
-0.05,0.344,0.931,0.0,47999
-0.05,0.344,0.931,0.0,48004
-0.047,0.344,0.931,-0.183,48009
-0.047,0.344,0.931,-0.244,48014
-0.048,0.344,0.933,-0.061,48019
-0.048,0.344,0.933,-0.061,48025
-0.047,0.345,0.934,0.0,48030
-0.047,0.345,0.934,-0.122,48035
-0.047,0.343,0.928,-0.061,48040
-0.047,0.343,0.928,-0.122,48045
-0.049,0.343,0.93,-0.366,48050
-0.049,0.343,0.93,-0.305,48055
-0.048,0.345,0.932,-0.183,48060
-0.048,0.345,0.932,-0.061,48065
-0.049,0.344,0.931,-0.061,48071
-0.048,0.344,0.931,-0.305,48076
-0.048,0.344,0.931,-0.366,48081
-0.048,0.344,0.932,-0.244,48086
-0.048,0.344,0.932,-0.183,48091
-0.047,0.343,0.933,-0.305,48096
-0.047,0.343,0.933,-0.305,48101
-0.048,0.343,0.932,0.061,48106
-0.048,0.343,0.932,-0.122,48112
-0.048,0.344,0.933,-0.183,48117
-0.048,0.344,0.933,0.061,48122
-0.048,0.344,0.934,-0.061,48127
-0.048,0.344,0.934,0.0,48132
-0.047,0.344,0.93,-0.061,48137
-0.047,0.344,0.93,-0.305,48142
-0.047,0.345,0.931,-0.244,48147
-0.047,0.345,0.931,-0.183,48152
-0.048,0.346,0.932,-0.183,48157
-0.048,0.346,0.932,-0.244,48163
-0.05,0.345,0.931,-0.183,48168
-0.05,0.345,0.931,-0.366,48173
-0.049,0.345,0.931,-0.244,48178
-0.049,0.345,0.931,-0.244,48183
-0.048,0.344,0.933,-0.305,48188
-0.048,0.344,0.933,-0.244,48193
-0.049,0.343,0.933,-0.305,48198
-0.049,0.343,0.933,-0.366,48204
-0.049,0.344,0.934,-0.305,48209
-0.049,0.344,0.934,-0.244,48214
-0.049,0.344,0.931,-0.305,48219
-0.049,0.344,0.931,-0.122,48224
-0.048,0.344,0.93,-0.122,48229
-0.048,0.344,0.93,-0.183,48234
-0.048,0.345,0.931,-0.061,48239
-0.048,0.345,0.931,-0.061,48245
-0.048,0.345,0.931,-0.183,48250
-0.047,0.344,0.932,-0.183,48255
-0.047,0.344,0.932,-0.122,48260
-0.048,0.345,0.931,-0.122,48265
-0.048,0.345,0.931,-0.305,48270
-0.05,0.345,0.931,-0.244,48275
-0.05,0.345,0.931,-0.244,48280
-0.05,0.345,0.931,-0.366,48286
-0.05,0.345,0.931,-0.305,48291
-0.051,0.345,0.932,-0.366,48296
-0.051,0.345,0.932,-0.366,48301
-0.048,0.343,0.932,-0.488,48306
-0.048,0.343,0.932,-0.244,48311
-0.048,0.343,0.932,-0.061,48316
-0.048,0.343,0.932,-0.244,48321
-0.048,0.343,0.931,-0.305,48326
-0.048,0.343,0.931,-0.244,48332
-0.048,0.345,0.932,-0.061,48337
-0.048,0.345,0.932,-0.061,48342
-0.048,0.345,0.933,-0.061,48347
-0.048,0.345,0.933,-0.122,48352
-0.049,0.345,0.932,0.0,48357
-0.049,0.345,0.932,0.0,48362
-0.047,0.346,0.931,-0.061,48367
-0.047,0.346,0.931,-0.122,48372
-0.05,0.344,0.93,-0.305,48378
-0.05,0.344,0.93,-0.244,48383
-0.049,0.344,0.932,-0.061,48388
-0.049,0.344,0.932,-0.244,48393
-0.047,0.345,0.929,-0.427,48398
-0.05,0.345,0.931,-0.305,48403
-0.05,0.345,0.931,-0.366,48408
-0.049,0.345,0.933,-0.427,48413
-0.049,0.345,0.933,-0.305,48418
-0.049,0.344,0.93,-0.122,48424
-0.049,0.344,0.93,-0.244,48429
-0.048,0.344,0.93,-0.366,48434
-0.048,0.344,0.93,-0.183,48439
-0.05,0.344,0.932,-0.183,48444
-0.05,0.344,0.932,-0.122,48449
-0.049,0.345,0.934,0.061,48454
-0.049,0.345,0.934,-0.183,48459
-0.048,0.344,0.931,-0.183,48465
-0.048,0.344,0.931,-0.122,48470
-0.05,0.344,0.931,-0.122,48475
-0.05,0.344,0.931,-0.183,48480
-0.049,0.344,0.932,-0.122,48485
-0.049,0.344,0.932,-0.183,48490
-0.05,0.344,0.93,-0.244,48495
-0.05,0.344,0.93,-0.244,48500
-0.049,0.344,0.929,-0.244,48505
-0.049,0.344,0.929,-0.305,48511
-0.049,0.343,0.93,-0.244,48516
-0.049,0.343,0.93,-0.122,48521
-0.049,0.344,0.933,-0.122,48526
-0.049,0.344,0.933,-0.366,48531
-0.05,0.344,0.929,-0.488,48536
-0.05,0.344,0.929,-0.427,48541
-0.05,0.344,0.933,-0.366,48546
-0.05,0.344,0.933,-0.244,48552
-0.051,0.344,0.931,-0.244,48557
-0.05,0.343,0.931,0.0,48562
-0.05,0.343,0.931,-0.122,48567
-0.048,0.345,0.933,-0.122,48572
-0.048,0.345,0.933,-0.122,48577
-0.049,0.343,0.933,-0.122,48582
-0.049,0.343,0.933,-0.122,48587
-0.049,0.343,0.932,-0.122,48592
-0.049,0.343,0.932,-0.305,48598
-0.049,0.343,0.93,-0.244,48603
-0.049,0.343,0.93,-0.061,48608
-0.046,0.344,0.929,-0.122,48613
-0.046,0.344,0.929,-0.061,48618
-0.05,0.346,0.931,-0.122,48623
-0.05,0.346,0.931,-0.183,48628
-0.049,0.344,0.932,-0.305,48633
-0.049,0.344,0.932,-0.305,48638
-0.047,0.342,0.932,-0.366,48644
-0.047,0.342,0.932,-0.305,48649
-0.05,0.344,0.933,-0.183,48654
-0.05,0.344,0.933,-0.183,48659
-0.048,0.346,0.932,-0.244,48664
-0.048,0.346,0.932,-0.305,48669
-0.049,0.344,0.931,-0.305,48674
-0.049,0.344,0.931,-0.244,48679
-0.051,0.344,0.931,-0.244,48685
-0.051,0.344,0.931,-0.122,48690
-0.05,0.345,0.932,0.0,48695
-0.05,0.345,0.932,-0.122,48700
-0.05,0.344,0.932,-0.122,48705
-0.05,0.344,0.932,-0.183,48710
-0.048,0.342,0.93,-0.366,48715
-0.048,0.342,0.93,-0.366,48720
-0.049,0.344,0.93,-0.183,48725
-0.051,0.344,0.931,-0.122,48731
-0.051,0.344,0.931,-0.244,48736
-0.049,0.344,0.931,-0.183,48741
-0.049,0.344,0.931,-0.366,48746
-0.05,0.344,0.932,-0.427,48751
-0.05,0.344,0.932,-0.244,48756
-0.05,0.346,0.934,-0.244,48761
-0.05,0.346,0.934,-0.244,48766
-0.048,0.343,0.932,-0.244,48772
-0.048,0.343,0.932,-0.183,48777
-0.049,0.343,0.93,-0.244,48782
-0.049,0.343,0.93,-0.183,48787
-0.049,0.346,0.932,-0.122,48792
-0.049,0.346,0.932,0.122,48797
-0.047,0.347,0.935,0.061,48802
-0.047,0.347,0.935,-0.122,48807
-0.048,0.343,0.928,-0.427,48812
-0.048,0.343,0.928,-0.366,48818
-0.048,0.343,0.929,-0.122,48823
-0.048,0.343,0.929,-0.366,48828
-0.047,0.347,0.935,-0.305,48833
-0.047,0.347,0.935,0.061,48838
-0.047,0.344,0.928,-0.122,48843
-0.047,0.344,0.928,-0.488,48848
-0.049,0.344,0.929,-0.549,48853
-0.049,0.344,0.929,-0.305,48858
-0.05,0.345,0.934,-0.305,48864
-0.05,0.345,0.934,-0.183,48869
-0.049,0.343,0.934,-0.122,48874
-0.049,0.343,0.934,-0.122,48879
-0.048,0.342,0.93,-0.122,48884
-0.048,0.344,0.93,-0.305,48889
-0.048,0.344,0.93,-0.183,48894
-0.05,0.346,0.933,-0.061,48899
-0.05,0.346,0.933,0.244,48905
-0.048,0.343,0.931,0.0,48910
-0.048,0.343,0.931,-0.122,48915
-0.047,0.344,0.928,-0.122,48920
-0.047,0.344,0.928,-0.244,48925
-0.05,0.345,0.933,-0.305,48930
-0.05,0.345,0.933,-0.244,48935
-0.051,0.344,0.932,-0.122,48940
-0.051,0.344,0.932,-0.061,48945
-0.049,0.344,0.931,-0.244,48950
-0.049,0.344,0.931,-0.366,48956
-0.052,0.342,0.929,-0.488,48961
-0.052,0.342,0.929,-0.366,48966
-0.052,0.344,0.934,-0.244,48971
-0.052,0.344,0.934,-0.122,48976
-0.049,0.343,0.934,-0.183,48981
-0.049,0.343,0.934,-0.244,48986
-0.049,0.343,0.931,-0.122,48991
-0.049,0.343,0.931,-0.244,48997
-0.048,0.343,0.933,-0.244,49002
-0.048,0.343,0.933,-0.183,49007
-0.048,0.346,0.934,-0.061,49012
-0.048,0.346,0.934,0.061,49017
-0.048,0.345,0.931,0.0,49022
-0.048,0.345,0.931,-0.244,49027
-0.049,0.344,0.931,-0.244,49032
-0.049,0.344,0.931,-0.183,49037
-0.048,0.344,0.931,0.0,49042
-0.048,0.344,0.931,-0.122,49048
-0.047,0.345,0.93,-0.244,49053
-0.049,0.345,0.932,-0.122,49058
-0.049,0.345,0.932,-0.244,49063
-0.048,0.342,0.932,-0.305,49068
-0.048,0.342,0.932,-0.305,49073
-0.049,0.343,0.931,-0.061,49078
-0.049,0.343,0.931,-0.183,49083
-0.047,0.344,0.933,-0.366,49089
-0.047,0.344,0.933,-0.427,49094
-0.049,0.344,0.929,-0.244,49099
-0.049,0.344,0.929,-0.183,49104
-0.047,0.344,0.933,-0.244,49109
-0.047,0.344,0.933,-0.305,49114
-0.048,0.344,0.933,-0.122,49119
-0.048,0.344,0.933,0.061,49124
-0.048,0.345,0.933,0.0,49129
-0.048,0.345,0.933,-0.122,49134
-0.047,0.344,0.93,-0.244,49140
-0.047,0.344,0.93,-0.122,49145
-0.049,0.344,0.928,-0.122,49150
-0.049,0.344,0.928,-0.122,49155
-0.047,0.346,0.932,-0.305,49160
-0.047,0.346,0.932,-0.244,49165
-0.05,0.345,0.931,-0.122,49170
-0.05,0.345,0.931,-0.061,49175
-0.048,0.344,0.933,-0.305,49181
-0.048,0.344,0.933,-0.427,49186
-0.048,0.344,0.93,-0.488,49191
-0.048,0.344,0.93,-0.427,49196
-0.051,0.343,0.933,-0.244,49201
-0.051,0.343,0.933,-0.183,49206
-0.049,0.343,0.931,-0.427,49211
-0.049,0.343,0.931,-0.488,49216
-0.05,0.344,0.93,0.061,49222
-0.047,0.342,0.933,-0.244,49227
-0.047,0.342,0.933,-0.488,49232
-0.052,0.344,0.928,-0.183,49237
-0.052,0.344,0.928,0.366,49242
-0.049,0.345,0.935,0.183,49247
-0.049,0.345,0.935,-0.122,49252
-0.048,0.344,0.93,-0.244,49257
-0.048,0.344,0.93,0.0,49262
-0.048,0.344,0.93,-0.061,49267
-0.048,0.344,0.93,-0.305,49273
-0.047,0.343,0.931,-0.427,49278
-0.047,0.343,0.931,-0.183,49283
-0.048,0.345,0.932,-0.061,49288
-0.048,0.345,0.932,-0.244,49293
-0.049,0.345,0.933,-0.427,49298
-0.049,0.345,0.933,-0.427,49303
-0.05,0.343,0.931,-0.244,49308
-0.05,0.343,0.931,-0.122,49314
-0.049,0.343,0.934,-0.305,49319
-0.049,0.343,0.934,-0.305,49324
-0.049,0.343,0.932,-0.244,49329
-0.049,0.343,0.932,-0.122,49334
-0.051,0.344,0.933,-0.366,49339
-0.051,0.344,0.933,-0.183,49344
-0.047,0.344,0.93,-0.244,49349
-0.047,0.344,0.93,-0.122,49354
-0.049,0.345,0.93,0.0,49360
-0.049,0.345,0.93,0.061,49365
-0.049,0.346,0.93,-0.122,49370
-0.049,0.346,0.93,-0.183,49375
-0.048,0.345,0.928,-0.122,49380
-0.048,0.345,0.928,-0.061,49385
-0.048,0.347,0.931,-0.183,49390
-0.049,0.346,0.93,-0.244,49395
-0.049,0.346,0.93,-0.305,49400
-0.049,0.346,0.93,-0.427,49406
-0.049,0.346,0.93,-0.366,49411
-0.049,0.343,0.931,-0.244,49416
-0.049,0.343,0.931,-0.244,49421
-0.05,0.343,0.934,-0.183,49426
-0.05,0.343,0.934,-0.305,49431
-0.048,0.343,0.934,-0.366,49436
-0.048,0.343,0.934,-0.305,49441
-0.05,0.342,0.933,-0.305,49447
-0.05,0.342,0.933,-0.244,49452
-0.05,0.344,0.934,-0.183,49457
-0.05,0.344,0.934,-0.122,49462
-0.049,0.344,0.933,0.0,49467
-0.049,0.344,0.933,-0.061,49472
-0.048,0.343,0.931,-0.183,49477
-0.048,0.343,0.931,-0.122,49482
-0.049,0.344,0.931,-0.183,49487
-0.049,0.344,0.931,-0.122,49493
-0.048,0.346,0.93,-0.061,49498
-0.048,0.346,0.93,0.0,49503
-0.048,0.344,0.93,-0.122,49508
-0.048,0.344,0.93,-0.183,49513
-0.049,0.345,0.931,-0.305,49518
-0.049,0.345,0.931,-0.244,49523
-0.049,0.344,0.931,-0.244,49528
-0.049,0.344,0.931,-0.366,49533
-0.049,0.345,0.929,-0.244,49539
-0.049,0.345,0.929,-0.244,49544
-0.048,0.344,0.932,-0.305,49549
-0.05,0.343,0.933,-0.305,49554
-0.05,0.343,0.933,-0.122,49559
-0.05,0.342,0.934,-0.183,49564
-0.05,0.342,0.934,-0.061,49569
-0.049,0.343,0.934,-0.061,49574
-0.049,0.343,0.934,0.0,49579
-0.047,0.344,0.934,-0.061,49585
-0.047,0.344,0.934,0.0,49590
-0.046,0.343,0.934,-0.061,49595
-0.046,0.343,0.934,-0.122,49600
-0.048,0.343,0.932,0.061,49605
-0.048,0.343,0.932,0.061,49610
-0.049,0.345,0.931,-0.122,49615
-0.049,0.345,0.931,-0.061,49620
-0.049,0.344,0.929,0.0,49625
-0.049,0.344,0.929,-0.061,49630
-0.048,0.345,0.931,-0.061,49635
-0.048,0.345,0.931,-0.183,49641
-0.047,0.344,0.931,-0.244,49646
-0.047,0.344,0.931,-0.244,49651
-0.048,0.343,0.93,-0.366,49656
-0.048,0.343,0.93,-0.61,49661
-0.049,0.344,0.932,-0.427,49666
-0.049,0.344,0.932,-0.244,49671
-0.05,0.344,0.935,-0.366,49676
-0.05,0.344,0.935,-0.366,49682
-0.048,0.344,0.932,-0.366,49687
-0.048,0.344,0.932,-0.244,49692
-0.047,0.343,0.931,-0.061,49697
-0.047,0.343,0.931,-0.061,49702
-0.049,0.344,0.932,-0.183,49707
-0.049,0.344,0.932,-0.305,49712
-0.049,0.344,0.932,-0.183,49717
-0.047,0.344,0.932,-0.122,49722
-0.047,0.344,0.932,-0.244,49728
-0.047,0.344,0.93,-0.061,49733
-0.047,0.344,0.93,-0.122,49738
-0.049,0.346,0.934,-0.122,49743
-0.049,0.346,0.934,-0.244,49748
-0.05,0.343,0.93,-0.305,49753
-0.05,0.343,0.93,-0.122,49758
-0.049,0.343,0.932,-0.122,49763
-0.049,0.343,0.932,-0.366,49769
-0.049,0.343,0.932,-0.427,49774
-0.049,0.343,0.932,-0.366,49779
-0.051,0.344,0.93,-0.244,49784
-0.051,0.344,0.93,0.0,49789
-0.048,0.345,0.932,-0.244,49794
-0.048,0.345,0.932,-0.366,49799
-0.049,0.344,0.932,-0.244,49804
-0.049,0.344,0.932,-0.061,49809
-0.049,0.343,0.934,-0.122,49815
-0.049,0.343,0.934,-0.244,49820
-0.049,0.344,0.933,-0.183,49825
-0.049,0.344,0.933,0.0,49830
-0.05,0.343,0.931,-0.122,49835
-0.05,0.343,0.931,-0.183,49840
-0.049,0.343,0.932,-0.122,49845
-0.049,0.343,0.932,-0.061,49850
-0.05,0.344,0.93,0.0,49855
-0.05,0.344,0.93,-0.183,49860
-0.049,0.344,0.931,-0.305,49866
-0.049,0.344,0.931,-0.305,49871
-0.05,0.343,0.93,-0.183,49876
-0.05,0.343,0.93,-0.122,49881
-0.049,0.343,0.932,-0.244,49886
-0.049,0.345,0.93,-0.244,49891
-0.049,0.345,0.93,-0.366,49896
-0.046,0.346,0.932,-0.183,49901
-0.046,0.346,0.932,-0.244,49907
-0.047,0.344,0.932,-0.366,49912
-0.047,0.344,0.932,-0.183,49917
-0.048,0.344,0.933,-0.061,49922
-0.048,0.344,0.933,-0.244,49927
-0.048,0.345,0.932,-0.244,49932
-0.048,0.345,0.932,-0.183,49937
-0.049,0.345,0.93,-0.122,49942
-0.049,0.345,0.93,-0.183,49948
-0.048,0.345,0.931,-0.244,49953
-0.048,0.345,0.931,-0.305,49958
-0.049,0.345,0.931,-0.122,49963
-0.049,0.345,0.931,-0.244,49968
-0.048,0.345,0.933,-0.244,49973
-0.048,0.345,0.933,-0.244,49978
-0.05,0.344,0.931,-0.305,49983
-0.05,0.344,0.931,-0.183,49989
-0.049,0.345,0.931,-0.061,49994
-0.049,0.345,0.931,-0.122,49999
-0.05,0.344,0.933,-0.366,50004
-0.05,0.344,0.933,-0.244,50009
-0.05,0.344,0.933,-0.244,50014
-0.05,0.344,0.933,-0.183,50019
-0.05,0.343,0.932,-0.183,50024
-0.05,0.343,0.932,-0.244,50029
-0.05,0.343,0.933,-0.061,50035
-0.05,0.343,0.933,-0.061,50040
-0.049,0.344,0.932,-0.122,50045
-0.049,0.345,0.931,-0.061,50050
-0.049,0.345,0.931,0.0,50055
-0.049,0.346,0.93,-0.244,50060
-0.049,0.346,0.93,-0.305,50065
-0.048,0.345,0.93,-0.061,50070
-0.048,0.345,0.93,-0.061,50075
-0.049,0.344,0.932,-0.061,50081
-0.049,0.344,0.932,-0.183,50086
-0.048,0.344,0.93,-0.244,50091
-0.048,0.344,0.93,-0.183,50096
-0.049,0.344,0.931,-0.244,50101
-0.049,0.344,0.931,-0.305,50106
-0.048,0.343,0.934,-0.183,50111
-0.048,0.343,0.934,-0.244,50116
-0.048,0.343,0.931,-0.183,50122
-0.048,0.343,0.931,-0.244,50127
-0.049,0.345,0.933,-0.366,50132
-0.049,0.345,0.933,-0.244,50137
-0.05,0.345,0.933,-0.183,50142
-0.05,0.345,0.933,-0.061,50147
-0.046,0.345,0.933,-0.122,50152
-0.046,0.345,0.933,-0.122,50157
-0.048,0.343,0.932,-0.122,50163
-0.048,0.343,0.932,-0.183,50168
-0.049,0.344,0.933,-0.305,50173
-0.049,0.344,0.933,-0.183,50178
-0.05,0.345,0.931,-0.122,50183
-0.05,0.345,0.931,-0.244,50188
-0.049,0.345,0.931,-0.244,50193
-0.049,0.345,0.931,-0.305,50198
-0.048,0.344,0.931,-0.305,50203
-0.049,0.343,0.932,-0.427,50209
-0.049,0.343,0.932,-0.244,50214
-0.049,0.345,0.933,-0.183,50219
-0.049,0.345,0.933,-0.305,50224
-0.048,0.342,0.931,-0.244,50229
-0.048,0.342,0.931,-0.305,50234
-0.048,0.344,0.931,-0.305,50239
-0.048,0.344,0.931,-0.183,50244
-0.049,0.345,0.933,-0.183,50250
-0.049,0.345,0.933,-0.122,50255
-0.049,0.344,0.931,0.0,50260
-0.049,0.344,0.931,0.0,50265
-0.049,0.344,0.931,-0.122,50270
-0.049,0.344,0.931,-0.183,50275
-0.05,0.344,0.932,-0.183,50280
-0.05,0.344,0.932,-0.183,50285
-0.05,0.345,0.932,-0.122,50290
-0.05,0.345,0.932,-0.366,50295
-0.048,0.344,0.932,-0.305,50301
-0.048,0.344,0.932,-0.244,50306
-0.048,0.343,0.93,-0.244,50311
-0.048,0.343,0.93,-0.305,50316
-0.048,0.345,0.932,-0.366,50321
-0.048,0.345,0.932,-0.122,50326
-0.049,0.344,0.933,-0.244,50331
-0.049,0.344,0.933,-0.305,50336
-0.048,0.344,0.934,-0.183,50342
-0.048,0.344,0.934,-0.305,50347
-0.047,0.343,0.932,-0.244,50352
-0.047,0.343,0.932,-0.122,50357
-0.049,0.343,0.933,-0.061,50362
-0.049,0.344,0.931,-0.122,50367
-0.049,0.344,0.931,-0.061,50372
-0.047,0.345,0.931,-0.244,50377
-0.047,0.345,0.931,-0.305,50383
-0.048,0.344,0.931,-0.305,50388
-0.048,0.344,0.931,-0.183,50393
-0.048,0.344,0.931,-0.122,50398
-0.048,0.344,0.931,-0.183,50403
-0.047,0.345,0.929,-0.305,50408
-0.047,0.345,0.929,-0.244,50413
-0.048,0.345,0.93,-0.183,50418
-0.048,0.345,0.93,-0.366,50424
-0.047,0.344,0.93,-0.366,50429
-0.047,0.344,0.93,-0.244,50434
-0.049,0.344,0.932,-0.244,50439
-0.049,0.344,0.932,-0.183,50444
-0.05,0.344,0.935,-0.244,50449
-0.05,0.344,0.935,-0.366,50454
-0.049,0.342,0.931,-0.122,50459
-0.049,0.342,0.931,-0.244,50465
-0.052,0.344,0.934,-0.244,50470
-0.052,0.344,0.934,-0.244,50475
-0.051,0.343,0.932,-0.305,50480
-0.051,0.343,0.932,-0.061,50485
-0.05,0.344,0.933,0.0,50490
-0.05,0.344,0.933,-0.244,50495
-0.05,0.345,0.93,-0.244,50500
-0.05,0.345,0.93,-0.061,50505
-0.05,0.344,0.931,-0.061,50510
-0.05,0.344,0.931,-0.061,50516
-0.049,0.345,0.933,-0.183,50521
-0.049,0.344,0.932,-0.183,50526
-0.049,0.344,0.932,-0.122,50531
-0.049,0.345,0.931,-0.183,50536
-0.049,0.345,0.931,-0.244,50541
-0.049,0.344,0.931,-0.305,50546
-0.049,0.344,0.931,-0.122,50551
-0.049,0.343,0.933,0.0,50557
-0.049,0.343,0.933,-0.366,50562
-0.049,0.343,0.932,-0.427,50567
-0.049,0.343,0.932,-0.305,50572
-0.048,0.344,0.933,-0.061,50577
-0.048,0.344,0.933,-0.122,50582
-0.048,0.344,0.933,-0.183,50587
-0.048,0.344,0.933,-0.122,50592
-0.048,0.344,0.933,-0.122,50597
-0.048,0.344,0.933,-0.061,50603
-0.048,0.344,0.931,-0.244,50608
-0.048,0.344,0.931,-0.305,50613
-0.048,0.346,0.931,-0.183,50618
-0.048,0.346,0.931,-0.122,50623
-0.047,0.347,0.933,-0.244,50628
-0.047,0.347,0.933,-0.244,50633
-0.048,0.345,0.93,-0.183,50638
-0.048,0.345,0.93,-0.122,50644
-0.049,0.344,0.931,-0.183,50649
-0.049,0.344,0.931,-0.366,50654
-0.048,0.344,0.932,-0.488,50659
-0.048,0.344,0.932,-0.427,50664
-0.049,0.344,0.933,-0.122,50669
-0.049,0.344,0.933,-0.122,50674
-0.05,0.343,0.934,-0.366,50679
-0.052,0.344,0.933,-0.244,50685
-0.052,0.344,0.933,-0.122,50690
-0.05,0.343,0.932,-0.183,50695
-0.05,0.343,0.932,-0.122,50700
-0.048,0.344,0.931,-0.061,50705
-0.048,0.344,0.931,0.0,50710
-0.049,0.345,0.932,-0.122,50715
-0.049,0.345,0.932,-0.122,50720
-0.05,0.343,0.932,-0.061,50725
-0.05,0.343,0.932,-0.183,50730
-0.049,0.343,0.931,-0.061,50736
-0.049,0.343,0.931,-0.183,50741
-0.048,0.344,0.933,-0.244,50746
-0.048,0.344,0.933,-0.183,50751
-0.047,0.345,0.931,-0.305,50756
-0.047,0.345,0.931,-0.305,50761
-0.048,0.344,0.932,-0.427,50766
-0.048,0.344,0.932,-0.427,50771
-0.051,0.343,0.93,-0.244,50777
-0.051,0.343,0.93,-0.183,50782
-0.051,0.343,0.932,-0.305,50787
-0.051,0.343,0.932,-0.366,50792
-0.048,0.344,0.933,-0.488,50797
-0.048,0.344,0.933,-0.122,50802
-0.05,0.344,0.933,-0.061,50807
-0.05,0.344,0.933,-0.305,50812
-0.048,0.343,0.934,-0.305,50818
-0.048,0.343,0.934,-0.122,50823
-0.05,0.345,0.933,-0.122,50828
-0.05,0.345,0.933,-0.122,50833
-0.05,0.345,0.933,-0.061,50838
-0.05,0.345,0.933,-0.122,50843
-0.05,0.344,0.929,-0.122,50848
-0.048,0.344,0.931,-0.183,50853
-0.048,0.344,0.931,-0.244,50859
-0.048,0.344,0.931,-0.244,50864
-0.048,0.344,0.931,-0.061,50869
-0.047,0.345,0.932,-0.122,50874
-0.047,0.345,0.932,-0.244,50879
-0.046,0.344,0.931,-0.244,50884
-0.046,0.344,0.931,-0.244,50889
-0.048,0.344,0.932,-0.244,50894
-0.048,0.344,0.932,-0.244,50899
-0.048,0.344,0.933,-0.366,50905
-0.048,0.344,0.933,-0.305,50910
-0.05,0.344,0.931,-0.244,50915
-0.05,0.344,0.931,-0.305,50920
-0.048,0.345,0.934,-0.244,50925
-0.048,0.345,0.934,-0.183,50930
-0.049,0.343,0.932,-0.122,50935
-0.049,0.343,0.932,-0.122,50940
-0.05,0.343,0.933,-0.183,50946
-0.05,0.343,0.933,-0.244,50951
-0.048,0.344,0.933,-0.183,50956
-0.048,0.344,0.933,-0.244,50961
-0.049,0.344,0.931,-0.305,50966
-0.049,0.344,0.931,-0.061,50971
-0.049,0.344,0.931,-0.244,50976
-0.049,0.344,0.931,-0.244,50981
-0.05,0.345,0.933,-0.183,50987
-0.05,0.345,0.933,-0.183,50992
-0.049,0.344,0.932,-0.305,50997
-0.048,0.345,0.932,-0.183,51002
-0.048,0.345,0.932,-0.183,51007
-0.049,0.343,0.929,-0.122,51012
-0.049,0.343,0.929,-0.244,51017
-0.049,0.344,0.932,-0.061,51022
-0.049,0.344,0.932,-0.244,51028
-0.049,0.343,0.934,-0.305,51033
-0.049,0.343,0.934,-0.366,51038
-0.05,0.344,0.931,-0.183,51043
-0.05,0.344,0.931,-0.244,51048
-0.049,0.344,0.932,-0.305,51053
-0.049,0.344,0.932,-0.183,51058
-0.05,0.344,0.931,-0.183,51063
-0.05,0.344,0.931,-0.061,51069
-0.048,0.344,0.932,-0.183,51074
-0.048,0.344,0.932,-0.244,51079
-0.049,0.344,0.931,-0.305,51084
-0.049,0.344,0.931,-0.183,51089
-0.049,0.345,0.932,-0.122,51094
-0.049,0.345,0.932,-0.183,51099
-0.05,0.344,0.934,-0.122,51104
-0.05,0.344,0.934,-0.244,51110
-0.048,0.344,0.93,-0.366,51115
-0.048,0.344,0.93,-0.305,51120
-0.048,0.345,0.934,-0.244,51125
-0.048,0.345,0.934,-0.366,51130
-0.049,0.344,0.933,-0.488,51135
-0.049,0.344,0.933,-0.183,51140
-0.048,0.344,0.932,-0.061,51145
-0.048,0.344,0.932,-0.183,51151
-0.048,0.345,0.932,-0.244,51156
-0.049,0.343,0.931,-0.122,51161
-0.049,0.343,0.931,-0.122,51166
-0.049,0.345,0.934,-0.183,51171
-0.049,0.345,0.934,-0.244,51176
-0.048,0.343,0.931,-0.366,51181
-0.048,0.343,0.931,-0.183,51186
-0.049,0.344,0.933,-0.183,51191
-0.049,0.344,0.933,-0.305,51197
-0.05,0.345,0.93,-0.366,51202
-0.05,0.345,0.93,-0.305,51207
-0.05,0.344,0.931,-0.183,51212
-0.05,0.344,0.931,-0.183,51217
-0.049,0.344,0.932,-0.305,51222
-0.049,0.344,0.932,-0.183,51227
-0.049,0.344,0.932,0.0,51232
-0.049,0.344,0.932,-0.183,51237
-0.048,0.345,0.934,-0.366,51243
-0.048,0.345,0.934,-0.305,51248
-0.048,0.344,0.932,-0.244,51253
-0.048,0.344,0.932,-0.183,51258
-0.048,0.344,0.933,-0.183,51263
-0.048,0.344,0.933,-0.305,51268
-0.048,0.344,0.93,-0.244,51273
-0.048,0.344,0.93,-0.061,51278
-0.049,0.345,0.933,-0.183,51284
-0.049,0.345,0.933,-0.122,51289
