Acc_X,Acc_Y,Acc_Z,Rot_Z,Millis
0.312,-0.019,-0.956,-0.244,16860.0
0.309,-0.015,-0.955,-0.122,16880.0
0.31,-0.015,-0.956,-0.244,16902.0
0.311,-0.018,-0.954,-0.244,16921.0
0.313,-0.018,-0.958,-0.366,16940.0
0.311,-0.017,-0.955,-0.244,16958.0
0.313,-0.018,-0.96,-0.366,16977.0
0.31,-0.013,-0.954,-0.183,16997.0
0.311,-0.016,-0.955,-0.244,17018.0
0.312,-0.019,-0.957,-0.061,17040.0
0.311,-0.011,-0.956,-0.183,17062.0
0.314,-0.014,-0.955,-0.244,17084.0
0.312,-0.013,-0.958,-0.366,17106.0
0.312,-0.015,-0.955,0.0,17126.0
0.311,-0.016,-0.957,-0.122,17144.0
0.314,-0.016,-0.956,-0.305,17163.0
0.315,-0.013,-0.954,-0.061,17185.0
0.312,-0.014,-0.955,-0.305,17205.0
0.312,-0.015,-0.955,-0.183,17224.0
0.313,-0.013,-0.955,-0.122,17242.0
0.312,-0.018,-0.954,-0.183,17261.0
0.312,-0.015,-0.958,-0.183,17281.0
0.313,-0.016,-0.956,-0.061,17301.0
0.31,-0.017,-0.957,-0.244,17320.0
0.31,-0.017,-0.954,-0.183,17342.0
0.315,-0.017,-0.956,-0.305,17360.0
0.313,-0.017,-0.958,-0.122,17378.0
0.313,-0.016,-0.956,-0.244,17399.0
0.313,-0.017,-0.956,-0.244,17418.0
0.31,-0.015,-0.958,-0.122,17438.0
0.313,-0.014,-0.958,-0.122,17459.0
0.311,-0.017,-0.957,-0.305,17480.0
0.31,-0.013,-0.957,-0.061,17499.0
0.309,-0.014,-0.955,-0.183,17518.0
0.311,-0.013,-0.955,-0.244,17543.0
0.313,-0.016,-0.957,-0.244,17563.0
0.315,-0.016,-0.957,-0.183,17584.0
0.315,-0.013,-0.955,-0.061,17604.0
0.314,-0.015,-0.957,-0.061,17625.0
0.314,-0.014,-0.955,-0.305,17643.0
0.315,-0.016,-0.957,-0.305,17663.0
0.31,-0.015,-0.958,-0.244,17686.0
0.311,-0.016,-0.957,-0.183,17705.0
0.312,-0.016,-0.956,-0.305,17724.0
0.313,-0.016,-0.958,0.0,17745.0
0.313,-0.016,-0.957,-0.061,17765.0
0.312,-0.015,-0.955,-0.244,17786.0
0.309,-0.013,-0.957,-0.305,17807.0
0.312,-0.018,-0.954,-0.061,17825.0
0.312,-0.016,-0.955,-0.061,17843.0
0.31,-0.015,-0.957,-0.244,17862.0
0.315,-0.014,-0.957,-0.061,17880.0
0.312,-0.017,-0.957,-0.183,17900.0
0.311,-0.015,-0.955,-0.305,17919.0
0.312,-0.013,-0.955,0.0,17937.0
0.313,-0.015,-0.956,-0.183,17957.0
0.313,-0.018,-0.958,-0.061,17978.0
0.316,-0.015,-0.957,-0.244,17997.0
0.311,-0.016,-0.957,-0.427,18018.0
0.309,-0.017,-0.958,-0.305,18036.0
0.313,-0.016,-0.956,-0.122,18058.0
0.315,-0.015,-0.954,0.0,18077.0
0.31,-0.014,-0.954,-0.122,18097.0
0.313,-0.014,-0.957,-0.183,18117.0
0.313,-0.016,-0.958,-0.305,18138.0
0.312,-0.015,-0.955,-0.122,18157.0
0.311,-0.016,-0.955,-0.183,18176.0
0.312,-0.017,-0.958,-0.122,18194.0
0.312,-0.016,-0.958,-0.488,18213.0
0.312,-0.016,-0.957,-0.366,18232.0
0.312,-0.015,-0.956,-0.122,18253.0
0.315,-0.018,-0.956,-0.061,18275.0
0.315,-0.018,-0.954,-0.183,18295.0
0.311,-0.015,-0.956,-0.183,18313.0
0.312,-0.016,-0.958,-0.183,18332.0
0.312,-0.014,-0.956,-0.122,18350.0
0.312,-0.018,-0.957,-0.122,18370.0
0.312,-0.019,-0.957,-0.183,18390.0
0.313,-0.012,-0.956,-0.122,18413.0
0.31,-0.017,-0.957,-0.122,18431.0
0.312,-0.015,-0.951,-0.061,18450.0
0.312,-0.017,-0.956,-0.244,18470.0
0.316,-0.016,-0.957,-0.061,18490.0
0.312,-0.013,-0.957,-0.244,18508.0
0.314,-0.015,-0.955,-0.305,18528.0
0.315,-0.015,-0.957,-0.244,18547.0
0.312,-0.018,-0.955,-0.488,18569.0
0.309,-0.018,-0.957,-0.122,18587.0
0.316,-0.015,-0.957,-0.122,18606.0
0.312,-0.017,-0.958,-0.183,18627.0
0.313,-0.017,-0.96,-0.122,18647.0
0.313,-0.016,-0.957,-0.183,18666.0
0.311,-0.015,-0.957,-0.244,18685.0
0.313,-0.012,-0.955,-0.122,18707.0
0.31,-0.015,-0.956,-0.244,18725.0
0.307,-0.016,-0.959,-0.244,18747.0
0.315,-0.016,-0.957,-0.305,18767.0
0.312,-0.012,-0.955,-0.122,18785.0
0.313,-0.017,-0.957,0.0,18804.0
0.311,-0.013,-0.955,-0.183,18823.0
0.313,-0.018,-0.954,-0.244,18842.0
0.312,-0.012,-0.955,-0.427,18860.0
0.314,-0.015,-0.959,-0.305,18883.0
0.312,-0.018,-0.958,-0.244,18903.0
0.312,-0.018,-0.957,-0.183,18924.0
0.312,-0.018,-0.955,-0.244,18943.0
0.313,-0.014,-0.954,-0.122,18964.0
0.313,-0.015,-0.956,-0.122,18984.0
0.312,-0.017,-0.955,-0.183,19003.0
0.312,-0.018,-0.956,-0.244,19021.0
0.314,-0.017,-0.956,-0.122,19041.0
0.314,-0.016,-0.957,-0.183,19061.0
0.314,-0.011,-0.956,-0.122,19083.0
0.312,-0.017,-0.956,-0.183,19102.0
0.308,-0.015,-0.956,-0.122,19120.0
0.313,-0.017,-0.953,-0.122,19141.0
0.311,-0.015,-0.951,-0.427,19160.0
0.311,-0.013,-0.956,-0.183,19179.0
0.311,-0.015,-0.957,-0.183,19197.0
0.313,-0.018,-0.955,-0.244,19218.0
0.312,-0.015,-0.956,0.183,19240.0
0.313,-0.015,-0.956,-0.244,19260.0
0.31,-0.011,-0.954,-0.183,19281.0
0.31,-0.012,-0.956,-0.122,19300.0
0.314,-0.014,-0.958,-0.183,19322.0
0.316,-0.017,-0.956,-0.244,19346.0
0.311,-0.016,-0.958,-0.183,19365.0
0.313,-0.016,-0.958,-0.183,19383.0
0.311,-0.016,-0.952,-0.122,19406.0
0.315,-0.016,-0.955,-0.061,19424.0
0.312,-0.019,-0.959,-0.122,19442.0
0.311,-0.014,-0.957,-0.183,19461.0
0.313,-0.017,-0.956,-0.122,19479.0
0.312,-0.014,-0.955,-0.305,19498.0
0.309,-0.016,-0.958,-0.244,19517.0
0.311,-0.014,-0.958,-0.061,19538.0
0.31,-0.016,-0.956,-0.183,19557.0
0.309,-0.015,-0.957,-0.305,19577.0
0.313,-0.014,-0.956,-0.183,19597.0
0.313,-0.017,-0.956,-0.305,19615.0
0.314,-0.017,-0.955,-0.366,19634.0
0.313,-0.014,-0.956,-0.122,19656.0
0.312,-0.015,-0.955,-0.122,19674.0
0.312,-0.014,-0.958,-0.244,19696.0
0.31,-0.016,-0.955,-0.244,19714.0
0.31,-0.015,-0.955,-0.244,19732.0
0.312,-0.016,-0.958,-0.244,19751.0
0.311,-0.016,-0.957,0.0,19772.0
0.31,-0.015,-0.956,-0.183,19794.0
0.312,-0.015,-0.957,-0.427,19813.0
0.316,-0.016,-0.956,-0.061,19832.0
0.311,-0.014,-0.957,-0.244,19856.0
0.312,-0.017,-0.956,-0.427,19874.0
0.315,-0.013,-0.955,-0.488,19894.0
0.316,-0.016,-0.958,-0.183,19914.0
0.315,-0.018,-0.959,-0.122,19933.0
0.311,-0.021,-0.956,-0.244,19953.0
0.31,-0.013,-0.955,-0.183,19973.0
0.317,-0.018,-0.959,-0.122,19993.0
0.312,-0.021,-0.956,-0.183,20014.0
0.316,-0.019,-0.958,-0.305,20034.0
0.315,-0.011,-0.958,-0.244,20055.0
0.309,-0.013,-0.952,-0.244,20074.0
0.313,-0.015,-0.953,-0.183,20092.0
0.312,-0.011,-0.958,-0.122,20111.0
0.314,-0.017,-0.958,-0.183,20131.0
0.313,-0.016,-0.956,0.0,20151.0
0.314,-0.014,-0.954,-0.305,20170.0
0.314,-0.017,-0.958,0.0,20189.0
0.314,-0.021,-0.961,-0.122,20210.0
0.314,-0.023,-0.957,-0.366,20229.0
0.312,-0.018,-0.958,-0.305,20250.0
0.312,-0.011,-0.952,-0.366,20271.0
0.311,-0.011,-0.957,-0.366,20289.0
0.312,-0.013,-0.956,-0.122,20308.0
0.312,-0.02,-0.953,-0.061,20328.0
0.311,-0.018,-0.954,-0.366,20348.0
0.312,-0.014,-0.955,-0.122,20367.0
0.311,-0.017,-0.955,-0.305,20389.0
0.308,-0.017,-0.957,-0.122,20409.0
0.312,-0.019,-0.957,-0.305,20427.0
0.314,-0.016,-0.958,-0.122,20446.0
0.312,-0.013,-0.956,-0.183,20466.0
0.313,-0.014,-0.957,-0.183,20486.0
0.312,-0.019,-0.955,-0.122,20505.0
0.31,-0.016,-0.953,-0.122,20524.0
0.312,-0.019,-0.959,-0.244,20542.0
0.312,-0.014,-0.957,-0.061,20563.0
0.312,-0.016,-0.956,-0.183,20581.0
0.318,-0.017,-0.954,-0.244,20602.0
0.315,-0.013,-0.957,-0.122,20624.0
0.316,-0.014,-0.955,-0.183,20642.0
0.311,-0.016,-0.956,-0.122,20663.0
0.309,-0.017,-0.954,-0.305,20682.0
0.312,-0.017,-0.953,-0.244,20702.0
0.313,-0.019,-0.957,-0.061,20720.0
0.313,-0.018,-0.957,0.0,20738.0
0.314,-0.017,-0.958,-0.183,20756.0
0.314,-0.017,-0.957,-0.183,20777.0
0.31,-0.017,-0.958,-0.183,20795.0
0.31,-0.013,-0.955,-0.122,20816.0
0.314,-0.014,-0.956,-0.244,20835.0
0.313,-0.015,-0.957,-0.122,20854.0
0.311,-0.016,-0.955,-0.122,20877.0
0.314,-0.016,-0.957,-0.122,20897.0
0.311,-0.017,-0.958,-0.183,20916.0
0.313,-0.016,-0.959,-0.122,20935.0
0.313,-0.016,-0.956,-0.122,20955.0
0.311,-0.011,-0.955,-0.061,20977.0
0.316,-0.015,-0.955,-0.183,20995.0
0.315,-0.014,-0.956,-0.305,21017.0
0.316,-0.016,-0.957,-0.122,21037.0
0.31,-0.016,-0.956,-0.244,21057.0
0.312,-0.014,-0.957,-0.061,21080.0
0.312,-0.017,-0.958,-0.183,21099.0
0.31,-0.015,-0.957,-0.244,21121.0
0.315,-0.017,-0.955,-0.122,21140.0
0.315,-0.016,-0.955,-0.122,21158.0
0.315,-0.017,-0.956,-0.183,21178.0
0.312,-0.014,-0.956,-0.244,21200.0
0.313,-0.016,-0.958,-0.244,21218.0
0.311,-0.014,-0.957,-0.427,21237.0
0.312,-0.016,-0.956,-0.305,21257.0
0.314,-0.015,-0.958,0.061,21276.0
0.313,-0.015,-0.955,-0.244,21295.0
0.312,-0.015,-0.955,0.0,21317.0
0.31,-0.018,-0.957,-0.122,21337.0
0.314,-0.013,-0.955,-0.122,21357.0
0.31,-0.015,-0.958,-0.122,21380.0
0.311,-0.01,-0.958,-0.305,21401.0
0.314,-0.018,-0.954,-0.244,21421.0
0.311,-0.016,-0.955,-0.305,21440.0
0.312,-0.014,-0.957,0.0,21460.0
0.311,-0.014,-0.958,-0.305,21483.0
0.311,-0.015,-0.955,-0.305,21505.0
0.312,-0.017,-0.958,-0.183,21525.0
0.314,-0.015,-0.956,-0.244,21547.0
0.313,-0.014,-0.956,-0.122,21568.0
0.313,-0.015,-0.957,-0.183,21589.0
0.314,-0.014,-0.957,-0.183,21608.0
0.312,-0.018,-0.959,-0.244,21630.0
0.313,-0.016,-0.954,-0.061,21651.0
0.314,-0.017,-0.958,0.0,21671.0
0.311,-0.017,-0.957,-0.183,21692.0
0.312,-0.016,-0.956,-0.183,21711.0
0.31,-0.016,-0.955,-0.244,21732.0
0.313,-0.018,-0.952,-0.305,21752.0
0.312,-0.013,-0.958,-0.061,21772.0
0.311,-0.016,-0.958,-0.122,21794.0
0.31,-0.014,-0.954,0.061,21813.0
0.31,-0.015,-0.958,-0.183,21831.0
0.312,-0.013,-0.951,-0.244,21851.0
0.311,-0.016,-0.956,-0.366,21871.0
0.315,-0.014,-0.956,-0.122,21893.0
0.309,-0.015,-0.955,-0.122,21914.0
0.312,-0.017,-0.956,-0.061,21939.0
0.312,-0.016,-0.958,-0.122,21959.0
0.313,-0.015,-0.958,-0.122,21978.0
0.315,-0.015,-0.957,-0.122,21996.0
0.315,-0.016,-0.957,-0.122,22016.0
0.315,-0.016,-0.957,-0.244,22038.0
0.315,-0.015,-0.954,-0.061,22060.0
0.314,-0.015,-0.956,-0.305,22081.0
0.312,-0.013,-0.956,-0.244,22100.0
0.309,-0.017,-0.955,-0.183,22118.0
0.315,-0.014,-0.956,-0.061,22140.0
0.314,-0.016,-0.953,-0.244,22160.0
0.313,-0.018,-0.956,-0.061,22178.0
0.313,-0.016,-0.952,-0.061,22202.0
0.312,-0.018,-0.96,-0.305,22222.0
0.312,-0.015,-0.958,-0.305,22241.0
0.314,-0.017,-0.956,-0.122,22261.0
0.312,-0.014,-0.954,-0.183,22283.0
0.313,-0.014,-0.955,-0.061,22304.0
0.312,-0.016,-0.959,-0.305,22325.0
0.315,-0.013,-0.955,-0.183,22345.0
0.312,-0.012,-0.958,-0.122,22366.0
0.313,-0.015,-0.957,0.061,22386.0
0.313,-0.015,-0.956,-0.061,22407.0
0.31,-0.011,-0.959,-0.122,22425.0
0.311,-0.014,-0.954,-0.183,22444.0
0.31,-0.014,-0.955,-0.305,22462.0
0.313,-0.012,-0.958,-0.305,22480.0
0.322,-0.151,-0.94,-1.16,22500.0
0.347,-0.112,-1.074,5.737,22523.0
0.273,0.011,-0.954,-64.331,22542.0
0.415,-0.044,-1.055,-0.122,22564.0
0.367,-0.079,-0.823,53.711,22583.0
0.308,-0.009,-0.944,59.387,22603.0
0.27,-0.039,-0.958,-12.39,22624.0
0.286,-0.043,-0.865,-34.607,22642.0
0.325,0.004,-0.969,-21.484,22662.0
0.332,0.044,-1.008,2.014,22683.0
0.315,0.015,-0.936,15.137,22701.0
0.316,-0.018,-0.975,11.169,22721.0
0.304,-0.053,-0.877,0.427,22742.0
0.316,-0.037,-0.972,-6.104,22762.0
0.328,-0.033,-0.979,2.563,22784.0
0.312,-0.048,-0.927,-1.648,22802.0
0.562,0.105,0.175,-35.889,22824.0
0.312,0.168,-0.82,65.857,22842.0
0.391,-0.116,-0.881,40.527,22861.0
0.142,-0.012,-1.063,68.42,22881.0
0.531,-0.01,-0.662,30.884,22900.0
0.135,-0.221,-1.114,202.454,22919.0
0.103,-0.233,-1.188,191.65,22937.0
-0.042,-0.136,-1.087,167.419,22956.0
-0.098,-0.03,-0.907,134.888,22977.0
-0.034,-0.095,-0.981,-15.747,23000.0
0.084,-0.087,-1.203,-22.461,23021.0
0.141,-0.055,-0.908,-64.636,23040.0
0.285,-0.093,-0.879,-49.377,23061.0
0.222,-0.057,-1.045,8.362,23083.0
0.311,-0.033,-0.929,24.475,23104.0
0.36,-0.06,-0.925,96.13,23125.0
0.149,-0.022,-1.03,152.466,23146.0
-0.066,0.049,-1.084,86.67,23165.0
0.195,-0.049,-1.019,-8.911,23185.0
0.518,-0.043,-0.924,-20.325,23203.0
0.479,-0.097,-0.955,36.621,23224.0
0.598,-0.149,-1.457,35.95,23243.0
0.512,-0.137,-1.196,32.41,23261.0
0.736,-0.178,-1.158,7.263,23279.0
0.94,-0.208,-1.013,45.959,23298.0
1.227,-0.318,-1.229,75.745,23319.0
1.133,-0.094,-1.074,151.062,23338.0
0.912,-0.156,-0.86,185.852,23357.0
0.815,-0.187,-0.823,155.945,23377.0
0.947,-0.267,-0.764,167.419,23398.0
1.047,-0.523,-0.699,167.847,23416.0
1.223,-0.418,-0.48,244.141,23440.0
0.851,-0.304,-0.199,323.486,23459.0
0.416,-0.399,-0.041,292.664,23481.0
0.436,-0.425,0.271,227.783,23501.0
0.102,-0.425,0.299,233.826,23521.0
0.066,-0.565,0.452,147.461,23542.0
0.234,-0.614,0.561,143.25,23561.0
-0.099,-0.519,0.767,186.218,23580.0
-0.406,-0.504,0.634,131.287,23602.0
-0.17,-0.534,0.63,35.4,23620.0
-0.327,-0.388,0.704,74.524,23642.0
-0.248,-0.562,0.587,46.387,23662.0
0.038,-0.765,0.388,-26.123,23681.0
0.283,-0.748,0.556,-35.706,23701.0
0.067,-0.687,0.414,62.744,23719.0
-0.275,-0.624,0.236,14.587,23742.0
-0.217,-0.634,0.096,-72.693,23760.0
0.252,-0.73,-0.097,-87.769,23780.0
0.107,-0.721,-0.582,-20.569,23801.0
-0.08,-0.813,-0.862,-43.518,23820.0
0.106,-0.956,-0.745,-97.9,23841.0
0.536,-1.17,-0.709,-105.164,23861.0
0.615,-1.143,-0.601,-52.002,23879.0
0.411,-0.986,-0.678,3.906,23899.0
0.265,-0.876,-0.795,-3.601,23921.0
0.253,-0.869,-0.757,-18.433,23942.0
0.325,-0.909,-0.662,-21.79,23964.0
0.3,-0.884,-0.513,-16.846,23985.0
0.417,-0.967,-0.449,-30.579,24005.0
0.484,-0.973,-0.388,-4.15,24024.0
0.341,-0.92,-0.454,21.484,24044.0
0.261,-0.944,-0.507,6.775,24062.0
0.385,-0.934,-0.508,2.014,24080.0
0.29,-0.868,-0.322,21.362,24100.0
0.198,-0.868,-0.205,8.728,24118.0
0.285,-0.845,-0.249,-2.502,24139.0
0.228,-0.832,-0.255,4.578,24159.0
0.221,-0.734,-0.14,-19.47,24179.0
0.204,-0.657,0.012,-15.747,24198.0
0.178,-0.612,0.167,-23.132,24218.0
0.228,-0.592,0.483,-51.636,24239.0
0.366,-0.634,0.519,-49.622,24258.0
0.286,-0.59,0.584,-30.212,24276.0
0.253,-0.538,0.903,-47.119,24296.0
0.359,-0.582,1.112,-67.444,24316.0
0.408,-0.606,1.176,-36.804,24335.0
0.448,-0.656,1.13,-39.978,24354.0
0.394,-0.625,0.965,-12.146,24374.0
0.292,-0.591,0.995,-11.963,24393.0
0.358,-0.605,1.108,-36.438,24413.0
0.385,-0.621,1.079,-12.085,24435.0
0.466,-0.617,1.195,-14.099,24459.0
0.299,-0.573,1.33,13.855,24481.0
0.231,-0.511,1.355,11.23,24500.0
0.356,-0.565,1.332,4.272,24520.0
0.342,-0.619,0.934,23.682,24538.0
0.272,-0.679,0.534,17.456,24560.0
0.203,-0.621,0.822,18.86,24578.0
0.143,-0.592,0.837,15.869,24597.0
0.187,-0.63,0.743,-8.484,24619.0
0.273,-0.683,0.211,-2.38,24639.0
0.281,-0.783,-0.467,21.057,24660.0
0.156,-0.892,-0.344,-1.526,24680.0
0.242,-0.893,-0.057,-12.207,24702.0
0.253,-0.94,-0.065,-5.859,24723.0
0.211,-0.919,0.024,-2.747,24742.0
0.171,-0.958,0.042,-11.047,24761.0
0.3,-1.001,-0.191,-18.86,24782.0
0.367,-1.038,-0.185,-12.268,24800.0
0.257,-0.99,0.052,-0.732,24818.0
0.221,-0.971,0.126,-8.606,24835.0
0.223,-0.978,0.181,-28.442,24856.0
0.219,-0.926,0.179,-37.476,24875.0
0.187,-0.948,0.075,-50.659,24893.0
0.273,-0.932,0.084,-88.989,24914.0
0.312,-0.892,0.116,-84.473,24934.0
0.263,-0.864,0.213,-87.402,24959.0
0.342,-0.854,0.129,-105.652,24978.0
0.279,-0.761,0.212,-101.624,24997.0
0.393,-0.857,0.182,-132.751,25014.0
0.545,-0.814,0.002,-145.508,25032.0
0.631,-0.788,0.112,-120.911,25052.0
0.523,-0.779,0.441,-68.359,25076.0
0.478,-0.731,0.191,-96.13,25095.0
0.554,-0.585,0.133,-142.761,25115.0
0.706,-0.67,0.255,-144.592,25135.0
0.81,-0.588,0.538,-120.3,25155.0
0.518,-0.767,0.432,-90.21,25178.0
0.598,-0.397,0.312,-219.482,25198.0
0.733,-0.367,-0.172,-297.913,25217.0
1.049,-0.252,0.135,-362.488,25239.0
1.306,0.005,0.413,-275.452,25257.0
1.269,0.035,0.708,-105.957,25281.0
1.189,0.019,0.61,7.385,25302.0
0.923,-0.053,0.384,39.795,25322.0
0.886,-0.09,0.138,-7.812,25341.0
0.908,-0.023,0.228,-61.462,25360.0
1.051,0.055,0.416,-53.528,25383.0
0.952,0.047,0.409,-33.081,25402.0
0.934,0.083,0.295,-65.552,25423.0
0.997,0.065,0.369,27.832,25443.0
0.905,0.127,0.412,1.099,25461.0
0.948,0.062,0.325,-35.4,25484.0
1.04,0.087,0.174,-15.869,25505.0
0.997,0.089,0.19,-18.127,25527.0
1.044,0.079,0.328,-30.518,25547.0
0.954,0.012,0.223,-22.278,25567.0
1.129,0.216,0.128,-65.918,25590.0
0.93,0.057,0.201,-31.433,25609.0
0.966,0.106,0.33,-29.358,25630.0
0.938,0.07,0.395,-25.879,25648.0
0.889,0.082,0.275,-45.654,25670.0
1.073,0.219,0.124,-56.396,25692.0
1.048,0.054,0.018,-35.217,25711.0
1.119,0.203,0.054,-13.794,25731.0
0.997,0.164,0.23,-2.93,25751.0
0.886,0.112,0.355,-15.869,25769.0
0.931,0.096,0.387,-52.734,25790.0
0.698,0.05,0.411,-97.9,25808.0
0.965,0.312,0.226,-93.933,25827.0
1.17,0.495,-0.005,-97.961,25847.0
0.964,0.244,-0.188,-24.719,25866.0
0.769,0.041,-0.412,-15.259,25886.0
1.062,0.215,-0.244,-1.77,25906.0
0.929,0.431,0.483,6.592,25926.0
0.794,0.355,0.612,-11.841,25944.0
0.912,0.237,0.396,-31.128,25962.0
0.926,0.383,0.466,-30.09,25981.0
0.828,0.23,0.521,-16.724,26003.0
0.904,0.26,0.553,-29.602,26022.0
0.834,0.363,0.666,-15.991,26042.0
0.952,0.389,0.624,-8.728,26062.0
0.917,0.401,0.885,7.202,26084.0
0.881,0.286,0.449,2.136,26106.0
0.821,0.142,0.373,9.46,26124.0
0.812,0.24,0.47,13.611,26142.0
0.857,0.108,0.481,3.601,26160.0
0.731,0.111,0.623,-8.484,26178.0
0.824,0.147,0.578,-24.597,26202.0
0.823,-0.363,0.261,-0.671,26222.0
0.833,-0.031,0.642,-31.738,26241.0
0.771,0.039,0.704,-38.33,26261.0
0.823,0.007,0.845,-64.209,26279.0
0.905,-0.017,0.846,-79.468,26299.0
0.818,-0.145,0.706,-38.086,26319.0
0.794,-0.27,1.201,-2.563,26339.0
0.601,-0.324,1.211,-3.784,26359.0
0.638,-0.294,1.114,28.015,26379.0
0.875,-0.492,1.096,8.972,26398.0
0.638,-0.291,0.834,120.117,26418.0
0.525,-0.182,0.351,5.737,26439.0
0.738,-0.154,0.064,-116.333,26460.0
0.628,-0.17,0.09,-99.67,26478.0
0.627,-0.107,-0.167,-117.676,26500.0
0.604,0.009,-0.219,-99.182,26519.0
0.528,0.094,-0.266,-110.107,26539.0
0.674,0.272,-0.363,-121.399,26560.0
0.805,0.421,-0.621,-123.108,26578.0
0.856,0.529,-0.892,-110.291,26600.0
0.997,0.629,-0.98,-54.81,26619.0
1.211,0.53,-0.954,4.15,26641.0
1.115,0.49,-0.666,77.637,26663.0
1.069,0.303,-0.673,89.844,26681.0
0.892,0.236,-0.56,41.382,26704.0
0.915,0.115,-0.425,59.753,26721.0
0.907,0.03,-0.51,60.852,26741.0
0.835,-0.014,-0.208,69.153,26764.0
0.722,-0.217,-0.191,71.106,26785.0
0.719,-0.314,0.01,115.356,26804.0
0.845,-0.391,0.044,142.761,26823.0
0.693,-0.488,0.184,195.496,26845.0
0.766,-0.603,0.122,88.257,26864.0
0.937,-0.807,0.146,49.683,26885.0
0.862,-0.599,0.078,-6.287,26904.0
1.086,-0.541,0.041,22.705,26925.0
0.893,-0.476,0.303,-5.371,26943.0
1.025,-0.683,0.124,7.935,26963.0
1.194,-0.556,0.103,0.427,26983.0
1.042,-0.67,-0.04,13.977,27003.0
1.025,-0.674,0.162,32.898,27024.0
1.071,-0.682,0.131,28.381,27044.0
1.191,-0.738,0.32,84.412,27064.0
0.965,-0.667,0.465,109.863,27086.0
0.686,-0.59,0.152,87.036,27106.0
0.711,-0.38,-0.169,61.218,27128.0
0.887,-0.452,-0.341,53.284,27148.0
0.705,-0.322,-0.503,76.904,27169.0
0.589,-0.231,-0.596,29.053,27191.0
0.569,-0.109,-0.777,-10.803,27211.0
0.695,-0.165,-0.62,-20.752,27232.0
0.665,-0.174,-0.597,-3.052,27253.0
0.732,-0.22,-0.69,-22.766,27273.0
0.673,-0.119,-0.575,-45.776,27291.0
0.811,-0.07,-0.751,-34.18,27310.0
0.858,-0.095,-0.727,-34.729,27332.0
0.857,-0.091,-0.837,-35.95,27352.0
0.879,-0.054,-0.662,-29.968,27372.0
0.759,-0.128,-0.724,-28.687,27392.0
0.898,-0.132,-0.701,-28.198,27413.0
0.851,-0.1,-0.618,-33.081,27432.0
1.025,-0.132,-0.918,-68.176,27450.0
0.882,-0.172,-0.641,-12.207,27469.0
0.83,-0.245,-0.66,-11.658,27489.0
0.966,-0.287,-0.516,-58.96,27507.0
0.8,-0.28,-0.466,-24.353,27525.0
0.896,-0.246,-0.566,-29.358,27543.0
0.918,-0.333,-0.35,-15.381,27565.0
0.721,-0.348,-0.34,4.517,27587.0
0.748,-0.387,-0.343,-17.761,27607.0
0.812,-0.357,-0.398,-26.733,27628.0
0.854,-0.356,-0.274,0.671,27646.0
0.921,-0.448,-0.251,4.639,27664.0
0.848,-0.524,-0.099,21.606,27687.0
0.844,-0.516,0.074,39.795,27706.0
0.849,-0.667,0.039,55.115,27726.0
0.821,-0.692,0.046,52.917,27745.0
0.906,-0.686,0.034,36.56,27766.0
0.991,-0.745,-0.016,22.827,27784.0
0.969,-0.765,0.126,19.47,27806.0
1.013,-0.888,0.257,39.062,27825.0
0.905,-0.926,0.35,61.035,27844.0
0.726,-0.862,0.241,51.147,27862.0
0.685,-0.698,0.257,25.94,27884.0
0.597,-0.538,0.046,0.61,27903.0
0.718,-0.505,-0.169,-21.423,27921.0
0.814,-0.464,-0.184,-28.503,27942.0
0.706,-0.38,-0.257,-31.921,27961.0
0.64,-0.274,-0.391,-47.791,27980.0
0.717,-0.204,-0.548,-58.35,27999.0
0.703,-0.122,-0.481,-73.181,28018.0
0.917,-0.034,-0.639,-61.707,28039.0
0.846,-0.005,-0.706,-43.701,28057.0
0.875,0.093,-0.815,-34.058,28077.0
0.948,0.151,-0.81,-26.611,28098.0
0.937,0.193,-0.788,-14.954,28118.0
0.955,0.107,-0.788,-4.333,28138.0
0.935,0.082,-0.646,4.7,28156.0
0.926,0.037,-0.674,8.118,28175.0
0.879,0.008,-0.685,13.977,28195.0
0.838,-0.028,-0.688,16.235,28214.0
0.782,-0.019,-0.71,14.343,28235.0
0.736,-0.016,-0.685,8.179,28254.0
0.743,-0.001,-0.652,-0.549,28272.0
0.806,-0.095,-0.625,5.737,28294.0
0.896,-0.302,-0.26,22.339,28313.0
0.927,-0.432,-0.258,42.786,28335.0
0.691,-0.398,-0.273,43.884,28357.0
0.673,-0.439,-0.305,31.86,28376.0
0.733,-0.57,-0.092,26.733,28397.0
0.763,-0.691,-0.032,27.222,28417.0
0.874,-0.764,0.031,26.855,28435.0
0.809,-0.788,0.056,29.358,28458.0
0.762,-0.797,-0.004,18.311,28477.0
0.791,-0.806,0.071,9.46,28497.0
0.831,-0.85,0.09,0.0,28520.0
0.964,-0.918,0.194,12.817,28541.0
0.838,-0.874,0.109,17.395,28559.0
0.677,-0.802,0.112,4.883,28579.0
0.656,-0.729,0.099,-14.404,28599.0
0.694,-0.649,0.002,-29.48,28618.0
0.919,-0.618,0.073,-14.404,28640.0
0.799,-0.481,-0.16,7.935,28662.0
0.682,-0.337,-0.231,6.958,28680.0
0.602,-0.15,-0.378,-12.512,28698.0
0.657,0.1,-0.467,-25.146,28718.0
0.897,0.177,-0.771,-32.349,28736.0
0.848,0.306,-0.939,-3.662,28756.0
1.033,0.229,-0.869,7.751,28775.0
0.983,0.121,-0.722,14.404,28793.0
0.945,0.176,-0.682,10.071,28813.0
0.95,0.236,-0.8,7.935,28832.0
0.968,0.265,-0.858,5.92,28854.0
0.906,0.253,-0.87,3.662,28872.0
0.833,0.216,-0.785,-3.967,28891.0
0.839,0.096,-0.628,-9.766,28912.0
0.926,-0.058,-0.538,-0.488,28932.0
1.019,-0.118,-0.52,17.517,28951.0
0.86,-0.012,-0.659,25.513,28972.0
0.825,-0.121,-0.551,34.424,28991.0
0.82,-0.168,-0.358,31.86,29010.0
0.817,-0.314,-0.176,47.18,29030.0
0.812,-0.532,-0.055,54.626,29053.0
0.663,-0.659,0.186,58.899,29078.0
0.647,-0.76,0.257,60.242,29096.0
0.594,-0.831,0.318,55.359,29116.0
0.532,-0.919,0.442,43.945,29137.0
0.609,-0.985,0.511,25.513,29157.0
0.712,-0.99,0.444,13.794,29178.0
0.673,-1.003,0.437,6.714,29197.0
0.651,-0.98,0.45,-5.371,29218.0
0.662,-0.962,0.425,-11.292,29238.0
0.644,-0.883,0.348,-20.203,29257.0
0.772,-0.907,0.308,-14.16,29277.0
0.604,-0.769,0.235,-16.418,29295.0
0.583,-0.726,0.148,-36.682,29313.0
0.639,-0.655,0.132,-58.533,29333.0
0.607,-0.523,-0.067,-80.078,29351.0
0.832,-0.438,-0.109,-93.567,29371.0
0.81,-0.289,-0.396,-89.417,29389.0
0.825,-0.157,-0.616,-72.266,29410.0
0.816,-0.093,-0.616,-51.941,29430.0
0.785,0.009,-0.694,-39.062,29449.0
0.843,0.099,-0.801,-34.058,29469.0
0.813,0.157,-0.839,-31.799,29490.0
0.833,0.159,-0.884,-27.771,29510.0
0.908,0.155,-0.907,-19.47,29534.0
0.929,0.138,-0.924,-2.686,29553.0
0.897,0.122,-0.869,7.568,29576.0
0.85,0.115,-0.892,4.15,29596.0
0.817,0.085,-0.847,3.418,29614.0
0.812,0.025,-0.553,1.038,29634.0
0.804,-0.126,-0.46,7.629,29654.0
0.759,-0.211,-0.433,18.738,29675.0
0.702,-0.311,-0.222,27.893,29693.0
0.745,-0.4,-0.181,22.766,29714.0
0.839,-0.53,0.067,29.663,29733.0
0.799,-0.633,0.086,29.419,29751.0
0.774,-0.728,0.227,29.297,29772.0
0.783,-0.825,0.358,31.433,29792.0
0.74,-0.837,0.311,36.011,29811.0
0.689,-0.85,0.346,30.579,29831.0
0.712,-0.861,0.357,22.217,29849.0
0.727,-0.902,0.415,13.916,29870.0
0.763,-0.93,0.469,11.108,29890.0
0.962,-1.036,0.556,23.682,29910.0
0.77,-0.961,0.528,37.415,29929.0
0.63,-0.905,0.49,22.644,29949.0
0.589,-0.782,0.283,0.305,29973.0
0.672,-0.697,0.114,-8.85,29993.0
0.688,-0.605,-0.043,-9.277,30011.0
0.718,-0.571,-0.159,-11.902,30032.0
0.765,-0.521,-0.305,-11.475,30053.0
0.589,-0.364,-0.355,-18.921,30072.0
0.581,-0.267,-0.531,-34.607,30091.0
0.539,-0.149,-0.67,-42.847,30109.0
0.586,-0.062,-0.798,-45.044,30129.0
0.67,-0.031,-0.924,-32.349,30149.0
0.594,0.019,-0.956,-20.935,30167.0
0.583,0.089,-1.078,-23.315,30188.0
0.705,0.095,-1.192,-26.123,30208.0
0.696,0.07,-1.176,-19.165,30227.0
0.74,-0.027,-1.088,-12.39,30248.0
0.716,-0.075,-0.989,-8.484,30267.0
0.687,-0.084,-0.956,-13.428,30289.0
0.664,-0.117,-0.907,-18.799,30308.0
0.66,-0.162,-0.871,-20.874,30329.0
0.707,-0.208,-0.806,-19.043,30350.0
0.678,-0.226,-0.764,-14.404,30370.0
0.736,-0.344,-0.498,-1.038,30388.0
0.626,-0.435,-0.333,16.052,30406.0
0.568,-0.514,-0.209,15.381,30426.0
0.649,-0.603,-0.118,27.1,30446.0
0.521,-0.594,-0.078,24.719,30464.0
0.583,-0.71,0.065,20.264,30482.0
0.586,-0.811,0.219,20.691,30503.0
0.606,-0.913,0.328,14.404,30523.0
0.701,-0.944,0.335,5.737,30541.0
0.771,-0.967,0.333,2.93,30560.0
0.756,-1.007,0.429,-5.737,30580.0
0.755,-1.065,0.507,-13.977,30599.0
0.779,-1.048,0.47,-22.278,30619.0
0.799,-0.977,0.359,-18.25,30639.0
0.76,-0.919,0.273,-12.268,30658.0
0.575,-0.776,0.163,-16.846,30679.0
0.546,-0.661,0.005,-29.236,30698.0
0.66,-0.562,-0.226,-29.907,30718.0
0.595,-0.427,-0.436,-19.165,30737.0
0.62,-0.277,-0.611,-15.625,30756.0
0.563,-0.161,-0.768,-6.958,30775.0
0.593,-0.068,-0.837,-1.038,30795.0
0.567,0.0,-0.975,5.127,30814.0
0.528,0.097,-0.995,12.817,30832.0
0.425,0.186,-1.08,10.254,30851.0
0.532,0.157,-1.044,4.089,30871.0
0.531,0.181,-1.149,4.333,30890.0
0.464,0.167,-1.02,3.296,30913.0
0.507,0.184,-1.182,-7.935,30931.0
0.558,0.16,-1.195,-10.071,30951.0
0.639,0.133,-1.155,-5.127,30970.0
0.578,0.109,-1.199,4.15,30990.0
0.512,0.116,-1.195,4.7,31009.0
0.607,0.047,-1.068,-1.343,31029.0
0.689,-0.082,-0.837,6.226,31047.0
0.661,-0.221,-0.613,16.968,31065.0
0.608,-0.287,-0.501,15.259,31083.0
0.657,-0.425,-0.345,20.386,31106.0
0.648,-0.583,-0.217,32.898,31126.0
0.678,-0.624,-0.126,34.546,31147.0
0.615,-0.684,-0.034,45.044,31170.0
0.49,-0.748,0.122,50.171,31191.0
0.472,-0.825,0.224,35.217,31213.0
0.505,-0.877,0.302,20.691,31234.0
0.592,-0.914,0.539,17.395,31253.0
0.492,-0.955,0.547,5.737,31275.0
0.537,-0.978,0.552,-10.559,31293.0
0.604,-0.956,0.516,-20.569,31313.0
0.84,-0.975,0.456,-17.212,31331.0
0.739,-0.99,0.501,3.479,31350.0
0.601,-0.945,0.467,1.465,31370.0
0.608,-0.875,0.401,-9.094,31388.0
0.685,-0.787,0.225,-5.859,31412.0
0.678,-0.683,0.073,-7.446,31431.0
0.566,-0.591,-0.122,-6.897,31451.0
0.55,-0.496,-0.212,-24.231,31471.0
0.555,-0.452,-0.327,-34.18,31492.0
0.579,-0.372,-0.402,-38.513,31511.0
0.547,-0.228,-0.563,-42.297,31529.0
0.547,-0.121,-0.823,-46.326,31547.0
0.519,-0.025,-0.936,-45.41,31565.0
0.554,0.001,-1.048,-44.861,31585.0
0.667,0.008,-1.105,-36.499,31603.0
0.677,0.047,-1.162,-21.301,31622.0
0.637,0.092,-1.204,-16.479,31642.0
0.666,0.1,-1.211,-14.954,31663.0
0.707,0.049,-1.206,-7.324,31684.0
0.712,0.024,-1.14,-2.319,31703.0
0.622,0.043,-1.229,-3.906,31726.0
0.638,0.034,-1.165,-5.432,31745.0
0.642,-0.025,-0.962,-2.319,31765.0
0.583,-0.084,-0.787,-5.92,31785.0
0.647,-0.206,-0.581,-11.292,31804.0
0.567,-0.265,-0.457,-15.198,31826.0
0.493,-0.335,-0.273,-18.494,31844.0
0.529,-0.461,-0.262,-19.653,31865.0
0.595,-0.554,0.074,-16.968,31887.0
0.632,-0.644,0.115,-17.09,31909.0
0.66,-0.664,0.213,-15.32,31928.0
0.803,-0.754,0.187,-3.479,31947.0
0.743,-0.74,0.221,7.202,31965.0
0.669,-0.77,0.294,11.536,31985.0
0.664,-0.819,0.386,6.592,32005.0
0.668,-0.809,0.369,-6.592,32028.0
0.829,-0.839,0.372,-15.564,32048.0
0.886,-0.789,0.281,-17.273,32067.0
0.871,-0.78,0.315,-10.742,32089.0
0.886,-0.785,0.324,-6.836,32111.0
0.953,-0.81,0.323,2.686,32133.0
0.899,-0.787,0.325,9.155,32153.0
0.894,-0.8,0.339,16.052,32175.0
0.805,-0.74,0.271,17.395,32194.0
0.861,-0.699,0.134,11.047,32214.0
0.79,-0.666,0.099,10.559,32234.0
0.856,-0.647,0.008,8.789,32253.0
0.851,-0.689,0.022,7.568,32271.0
0.907,-0.714,0.083,18.433,32289.0
0.832,-0.654,-0.077,32.349,32307.0
0.742,-0.663,-0.112,32.349,32325.0
0.73,-0.61,-0.082,37.048,32345.0
0.712,-0.507,-0.225,40.405,32363.0
0.759,-0.509,-0.278,44.312,32383.0
0.514,-0.342,-0.539,45.227,32404.0
0.641,-0.378,-0.501,38.025,32422.0
0.378,-0.275,-0.778,49.927,32441.0
0.205,-0.097,-0.935,15.808,32459.0
0.354,-0.115,-0.935,-6.042,32479.0
0.445,-0.092,-1.093,-8.789,32500.0
0.554,-0.107,-1.154,-2.869,32520.0
0.406,-0.044,-1.058,-11.78,32543.0
0.425,-0.062,-0.989,-36.377,32563.0
0.5,-0.104,-0.947,-55.664,32584.0
0.624,-0.163,-0.908,-59.021,32603.0
0.677,-0.204,-0.836,-49.133,32621.0
0.426,-0.087,-0.885,-58.716,32642.0
0.351,-0.053,-0.665,-80.566,32664.0
0.413,-0.254,-0.227,-75.989,32685.0
0.654,-0.449,0.007,-56.274,32706.0
0.954,-0.613,0.142,-46.631,32725.0
0.698,-0.482,0.012,-38.025,32748.0
0.643,-0.738,0.457,-74.829,32766.0
0.624,-0.976,0.786,-101.746,32787.0
0.73,-0.823,0.574,-119.202,32807.0
1.552,-0.784,0.243,-136.475,32826.0
1.46,-0.603,-0.256,-75.684,32845.0
1.325,-0.786,0.201,-49.988,32866.0
1.216,-0.811,0.315,-33.386,32884.0
1.256,-0.833,0.34,-3.357,32906.0
1.424,-0.799,0.24,33.875,32925.0
1.42,-0.633,0.028,86.06,32947.0
1.114,-0.507,-0.094,89.233,32965.0
0.925,-0.4,-0.238,78.186,32984.0
1.476,-0.349,-0.475,91.858,33002.0
0.754,-0.119,-0.501,128.418,33020.0
0.239,-0.009,-0.692,102.417,33038.0
-0.117,0.196,-0.855,66.345,33060.0
-0.226,0.315,-1.189,4.7,33081.0
-0.113,0.204,-1.031,-15.137,33101.0
-0.519,0.387,-1.039,-65.186,33120.0
-0.412,0.302,-0.585,-129.456,33140.0
0.174,-0.01,-0.144,-162.415,33163.0
1.054,-0.248,-0.159,-168.64,33181.0
1.548,-0.491,-0.153,-126.038,33201.0
1.863,-0.721,-0.15,-89.783,33223.0
2.12,-0.751,-0.213,-46.204,33241.0
2.387,-0.839,-0.065,3.845,33261.0
2.783,-0.95,-0.106,121.765,33280.0
2.037,-0.8,0.2,207.52,33300.0
1.163,-0.542,0.118,233.887,33318.0
0.355,-0.254,-0.153,204.041,33340.0
-0.099,-0.09,-0.521,145.325,33362.0
-0.141,-0.031,-0.643,96.436,33382.0
-0.224,0.014,-0.792,53.223,33402.0
-0.471,0.013,-0.663,2.441,33421.0
-0.615,0.135,-0.728,-72.937,33442.0
-0.002,0.079,-0.573,-157.593,33462.0
0.475,0.038,-0.676,-181.946,33481.0
1.023,-0.239,-0.354,-166.992,33499.0
1.118,-0.406,-0.111,-126.953,33519.0
1.961,-0.76,0.156,-99.67,33538.0
2.599,-1.027,0.065,-21.912,33558.0
2.321,-1.041,0.252,89.905,33582.0
2.287,-1.072,0.485,171.326,33601.0
1.366,-0.69,0.199,224.854,33619.0
0.459,-0.477,0.201,194.031,33639.0
0.134,-0.335,-0.295,134.277,33659.0
0.154,-0.218,-0.61,101.318,33680.0
0.172,-0.153,-0.826,91.003,33699.0
-0.075,-0.04,-0.959,69.153,33719.0
-0.507,0.11,-1.003,16.418,33738.0
-0.505,0.095,-0.717,-52.124,33757.0
-0.179,-0.02,-0.508,-117.126,33776.0
0.481,-0.169,-0.361,-149.048,33794.0
1.073,-0.348,-0.333,-140.869,33812.0
1.573,-0.781,0.134,-63.538,33836.0
1.603,-0.988,0.52,-10.864,33855.0
1.492,-1.027,0.709,37.109,33873.0
1.507,-1.076,0.839,65.186,33894.0
1.708,-1.198,0.993,105.53,33914.0
1.42,-1.128,0.956,172.607,33934.0
0.767,-0.861,0.746,174.011,33952.0
0.474,-0.634,0.397,133.362,33973.0
0.334,-0.577,-0.013,91.492,33993.0
0.238,-0.451,-0.312,85.144,34011.0
-0.015,-0.335,-0.552,54.382,34034.0
-0.106,-0.262,-0.681,24.048,34052.0
-0.523,-0.061,-0.824,-13.367,34072.0
-0.58,0.115,-1.021,-112.732,34091.0
0.0,-0.002,-0.673,-173.584,34110.0
0.501,-0.184,-0.351,-185.547,34129.0
1.132,-0.542,0.005,-166.748,34149.0
1.479,-0.858,0.484,-124.084,34170.0
1.782,-1.107,0.991,-73.425,34190.0
1.943,-1.407,1.198,-20.142,34210.0
2.336,-1.52,1.256,56.58,34230.0
1.49,-1.029,0.724,155.396,34252.0
0.748,-0.75,0.536,146.362,34272.0
0.249,-0.49,0.22,104.065,34292.0
0.238,-0.389,-0.252,59.692,34310.0
0.477,-0.504,-0.36,45.166,34331.0
0.249,-0.406,-0.492,52.612,34349.0
-0.013,-0.287,-0.608,38.879,34368.0
-0.204,-0.162,-0.738,9.46,34386.0
-0.322,-0.025,-0.902,-27.344,34404.0
-0.348,0.147,-1.047,-96.802,34424.0
0.303,-0.0,-0.857,-153.381,34444.0
0.707,-0.293,-0.47,-145.142,34465.0
1.013,-0.518,-0.252,-137.207,34486.0
1.406,-0.707,-0.147,-108.459,34507.0
2.006,-0.943,-0.076,-49.133,34527.0
2.141,-1.083,0.18,19.897,34545.0
2.018,-1.233,0.565,112.061,34565.0
1.222,-1.027,0.375,172.546,34585.0
0.574,-0.827,0.565,142.883,34603.0
0.281,-0.655,0.186,95.52,34625.0
0.233,-0.599,-0.07,55.786,34644.0
0.193,-0.564,-0.242,31.25,34664.0
0.108,-0.532,-0.371,14.221,34684.0
0.037,-0.499,-0.39,-3.235,34704.0
-0.056,-0.437,-0.415,-41.87,34723.0
0.088,-0.467,-0.264,-74.28,34742.0
0.255,-0.521,-0.119,-92.529,34761.0
0.729,-0.68,-0.031,-100.769,34781.0
1.079,-0.824,0.094,-85.449,34802.0
1.289,-0.942,0.262,-60.547,34821.0
1.323,-1.082,0.526,-14.954,34842.0
1.423,-1.213,0.794,36.438,34864.0
1.117,-1.02,0.578,64.88,34883.0
0.813,-0.768,0.276,65.43,34904.0
0.548,-0.535,-0.132,36.865,34924.0
0.663,-0.464,-0.451,26.184,34945.0
0.605,-0.391,-0.735,33.813,34966.0
0.466,-0.31,-0.774,25.879,34985.0
0.31,-0.252,-0.854,12.573,35004.0
0.207,-0.208,-0.676,-9.094,35023.0
0.245,-0.164,-0.701,-41.321,35043.0
0.555,-0.243,-0.669,-73.12,35063.0
0.769,-0.342,-0.549,-89.294,35082.0
0.89,-0.446,-0.43,-87.036,35102.0
1.006,-0.528,-0.442,-79.285,35122.0
1.12,-0.557,-0.444,-64.941,35140.0
1.214,-0.597,-0.426,-38.086,35160.0
1.099,-0.554,-0.438,-15.259,35178.0
0.975,-0.516,-0.441,-2.136,35197.0
0.728,-0.361,-0.535,-1.343,35216.0
0.885,-0.357,-0.522,-13.062,35234.0
0.938,-0.427,-0.258,10.437,35252.0
0.839,-0.522,0.017,32.043,35273.0
0.762,-0.628,0.277,47.974,35293.0
0.694,-0.708,0.402,58.533,35312.0
0.625,-0.753,0.539,60.791,35330.0
0.51,-0.803,0.701,57.556,35352.0
0.469,-0.95,0.977,37.903,35374.0
0.485,-1.084,1.158,30.273,35392.0
0.554,-1.131,1.248,20.935,35414.0
0.498,-1.032,1.121,10.986,35433.0
0.355,-0.802,0.738,-14.465,35452.0
0.477,-0.567,0.191,-63.904,35474.0
0.72,-0.497,-0.061,-80.811,35492.0
0.833,-0.456,-0.294,-62.256,35516.0
0.89,-0.414,-0.399,-40.466,35535.0
0.856,-0.36,-0.512,-29.236,35555.0
0.852,-0.279,-0.558,-30.64,35574.0
1.1,-0.234,-0.739,-31.799,35593.0
1.106,-0.099,-1.005,-14.16,35614.0
0.997,-0.071,-0.895,-2.869,35634.0
0.925,-0.116,-0.679,5.188,35654.0
0.946,-0.213,-0.484,11.353,35672.0
0.98,-0.307,-0.299,21.362,35690.0
0.906,-0.387,-0.102,32.776,35709.0
0.847,-0.535,0.152,42.725,35732.0
0.775,-0.632,0.464,49.316,35751.0
0.666,-0.726,0.601,54.016,35771.0
0.603,-0.827,0.725,50.659,35789.0
0.552,-0.899,0.831,49.011,35807.0
0.447,-0.923,0.882,41.809,35828.0
0.425,-0.93,0.876,30.334,35849.0
0.405,-0.91,0.828,20.508,35867.0
0.395,-0.893,0.786,8.362,35885.0
0.415,-0.928,0.878,-3.845,35903.0
0.489,-1.064,1.13,6.409,35922.0
0.247,-0.867,0.797,-15.564,35943.0
0.357,-0.77,0.635,-50.842,35961.0
0.531,-0.633,0.3,-73.975,35983.0
0.778,-0.627,0.158,-70.007,36002.0
0.814,-0.622,0.12,-51.147,36022.0
0.762,-0.539,-0.022,-47.791,36043.0
0.82,-0.54,0.092,-40.466,36063.0
0.603,-0.416,-0.048,-52.002,36082.0
0.563,-0.287,-0.192,-93.933,36103.0
0.742,-0.172,-0.526,-113.77,36123.0
1.043,-0.173,-0.67,-108.276,36142.0
1.242,-0.184,-0.828,-76.233,36161.0
1.325,-0.208,-0.927,-22.339,36182.0
1.132,-0.189,-0.893,6.836,36200.0
0.97,-0.186,-0.751,14.343,36220.0
0.929,-0.204,-0.619,13.0,36240.0
0.965,-0.24,-0.499,16.541,36258.0
1.015,-0.306,-0.34,30.029,36276.0
0.941,-0.406,-0.046,53.467,36296.0
0.83,-0.5,0.148,64.026,36314.0
0.713,-0.596,0.296,61.34,36337.0
0.707,-0.679,0.495,65.186,36356.0
0.711,-0.727,0.415,68.115,36377.0
0.615,-0.708,0.346,64.636,36395.0
0.602,-0.71,0.335,62.439,36414.0
0.523,-0.689,0.336,53.101,36437.0
0.551,-0.727,0.431,48.096,36457.0
0.582,-0.784,0.549,51.025,36477.0
0.569,-0.807,0.609,56.58,36498.0
0.561,-0.864,0.723,65.186,36520.0
0.544,-0.943,0.996,56.641,36540.0
0.485,-1.039,1.235,62.378,36563.0
0.48,-1.127,1.354,59.57,36581.0
0.27,-0.924,1.077,26.123,36604.0
0.178,-0.712,0.707,-20.264,36622.0
0.268,-0.691,0.643,-36.865,36643.0
0.416,-0.63,0.546,-58.472,36664.0
0.22,-0.332,0.216,-79.468,36684.0
0.271,-0.084,-0.34,-142.151,36706.0
0.849,-0.219,-0.546,-152.161,36726.0
0.762,-0.036,-0.98,-121.155,36745.0
1.306,-0.477,-0.567,-67.505,36766.0
0.821,-0.218,-0.82,-32.471,36785.0
0.988,-0.297,-0.92,-25.208,36804.0
1.006,-0.235,-0.861,-5.859,36823.0
0.86,-0.2,-0.831,4.761,36843.0
0.853,-0.289,-0.737,-1.343,36862.0
0.746,-0.274,-0.685,-4.333,36881.0
0.698,-0.279,-0.709,-19.226,36905.0
0.773,-0.387,-0.555,-27.222,36925.0
0.837,-0.482,-0.48,-16.846,36945.0
0.823,-0.552,-0.394,2.625,36966.0
0.683,-0.612,-0.158,13.977,36986.0
0.539,-0.767,0.031,8.484,37010.0
0.627,-1.506,1.158,17.578,37030.0
0.202,-1.543,1.147,16.602,37052.0
0.152,-0.967,0.382,-27.954,37071.0
0.142,-0.636,-0.166,-110.901,37091.0
0.646,-0.83,-0.143,-125.488,37113.0
0.525,-0.468,-0.534,-106.567,37133.0
0.692,-0.343,-0.622,-101.501,37155.0
0.896,-0.345,-0.731,-79.407,37177.0
0.699,-0.068,-0.874,-58.838,37195.0
0.823,0.044,-0.941,-60.303,37216.0
0.809,0.141,-1.088,-50.11,37235.0
0.932,0.122,-0.979,-56.152,37256.0
0.747,0.238,-0.843,-40.222,37277.0
0.855,0.063,-0.693,-38.147,37295.0
0.848,0.055,-0.641,-10.498,37314.0
0.737,0.09,-0.884,-5.249,37332.0
0.71,-0.074,-0.581,-7.568,37353.0
0.702,-0.149,-0.424,-4.456,37372.0
0.689,-0.147,-0.699,-19.409,37390.0
0.733,-0.193,-0.654,-25.024,37411.0
0.682,-0.162,-0.691,-26.123,37430.0
0.74,-0.193,-0.764,-22.827,37449.0
0.652,-0.175,-0.656,-20.081,37472.0
0.643,-0.144,-0.791,-24.902,37492.0
0.7,-0.097,-0.76,-24.78,37510.0
0.603,-0.059,-0.7,-26.978,37529.0
0.583,-0.059,-0.671,-43.823,37549.0
0.655,-0.034,-0.735,-54.81,37571.0
0.675,-0.028,-0.709,-56.641,37592.0
0.929,-0.214,-0.679,-55.42,37616.0
1.005,-0.293,-0.62,-29.602,37638.0
0.906,-0.361,-0.448,-7.874,37660.0
0.763,-0.281,-0.309,-6.47,37678.0
0.651,-0.115,-0.479,-23.926,37697.0
0.782,-0.046,-0.675,-50.171,37716.0
1.047,-0.075,-0.674,-46.997,37735.0
1.083,-0.042,-0.723,-17.09,37754.0
0.864,0.101,-0.751,8.85,37775.0
0.675,0.174,-0.723,9.216,37795.0
0.598,0.177,-0.664,-10.864,37815.0
0.668,0.149,-0.716,-28.442,37835.0
0.758,0.122,-0.702,-28.503,37853.0
0.814,0.078,-0.669,-14.771,37875.0
0.77,0.116,-0.677,3.54,37896.0
0.671,0.168,-0.747,7.629,37914.0
0.672,0.13,-0.695,-6.287,37935.0
0.812,0.02,-0.699,-17.334,37954.0
0.953,-0.081,-0.699,-6.836,37974.0
0.848,-0.124,-0.635,8.362,37995.0
0.774,-0.164,-0.625,9.705,38014.0
0.778,-0.251,-0.528,2.197,38038.0
0.782,-0.284,-0.476,2.136,38058.0
0.754,-0.238,-0.498,3.54,38076.0
0.692,-0.101,-0.596,3.235,38095.0
0.694,0.024,-0.701,1.831,38113.0
0.781,0.162,-0.918,2.686,38133.0
0.795,0.253,-0.955,18.127,38152.0
0.697,0.283,-0.896,18.127,38172.0
0.738,0.242,-0.867,6.287,38193.0
0.791,0.226,-0.877,3.052,38215.0
0.844,0.18,-0.863,8.667,38234.0
0.764,0.115,-0.763,22.583,38257.0
0.667,0.073,-0.673,25.085,38276.0
0.605,-0.001,-0.605,13.306,38295.0
0.621,-0.069,-0.611,-0.244,38313.0
0.712,-0.15,-0.612,-5.188,38334.0
0.785,-0.178,-0.563,11.353,38353.0
0.585,-0.19,-0.695,52.185,38375.0
0.472,-0.278,-0.519,38.33,38399.0
0.77,-0.424,-0.248,18.311,38417.0
0.96,-0.566,-0.153,38.94,38437.0
0.819,-0.607,-0.099,60.669,38456.0
0.667,-0.592,-0.072,68.848,38474.0
0.587,-0.58,0.026,62.134,38493.0
0.553,-0.617,0.131,42.48,38514.0
0.714,-0.704,0.242,19.47,38533.0
0.838,-0.718,0.227,14.404,38553.0
0.877,-0.696,0.186,12.756,38576.0
0.842,-0.668,0.174,13.55,38597.0
0.791,-0.617,0.104,4.028,38616.0
0.911,-0.622,0.063,2.014,38636.0
0.922,-0.629,0.082,5.493,38657.0
0.872,-0.635,0.111,10.62,38675.0
0.842,-0.622,0.1,12.024,38697.0
0.847,-0.632,0.134,13.062,38715.0
0.813,-0.644,0.186,11.597,38735.0
0.802,-0.65,0.231,10.01,38756.0
0.754,-0.63,0.205,5.798,38778.0
0.79,-0.626,0.159,-3.296,38801.0
0.816,-0.646,0.151,-2.93,38822.0
0.822,-0.653,0.155,1.221,38842.0
0.772,-0.639,0.165,3.174,38867.0
0.768,-0.637,0.168,1.16,38886.0
0.781,-0.636,0.157,-1.038,38907.0
0.761,-0.62,0.134,-3.235,38927.0
0.781,-0.619,0.131,-6.226,38947.0
0.782,-0.613,0.122,-4.944,38966.0
0.794,-0.633,0.148,-4.761,38985.0
0.813,-0.64,0.143,-2.808,39005.0
0.778,-0.62,0.139,-2.136,39027.0
0.784,-0.608,0.12,-5.249,39047.0
0.801,-0.618,0.125,-3.723,39069.0
0.784,-0.618,0.131,-2.93,39088.0
0.797,-0.627,0.151,-2.747,39106.0
0.812,-0.607,0.113,-3.723,39124.0
0.834,-0.612,0.111,-2.014,39144.0
0.801,-0.624,0.143,0.549,39163.0
0.778,-0.632,0.166,-0.061,39181.0
0.779,-0.622,0.142,-1.831,39204.0
0.775,-0.612,0.124,-3.296,39222.0
0.783,-0.61,0.113,-4.395,39242.0
0.79,-0.61,0.109,-5.188,39261.0
0.781,-0.599,0.105,-5.92,39281.0
0.806,-0.598,0.097,-6.348,39304.0
0.838,-0.6,0.091,-4.333,39323.0
0.818,-0.607,0.119,-2.502,39343.0
0.804,-0.604,0.121,-2.014,39365.0
0.806,-0.613,0.144,-2.625,39384.0
0.809,-0.611,0.13,-2.014,39404.0
0.81,-0.605,0.121,-2.625,39424.0
0.819,-0.606,0.115,-2.563,39442.0
0.812,-0.601,0.119,-1.343,39462.0
0.807,-0.602,0.129,-1.282,39483.0
0.811,-0.606,0.126,-0.854,39505.0
0.796,-0.607,0.135,-1.404,39528.0
0.796,-0.599,0.125,-3.357,39551.0
0.822,-0.599,0.116,-3.906,39570.0
0.869,-0.613,0.112,-0.671,39592.0
0.798,-0.604,0.142,2.38,39612.0
0.786,-0.6,0.137,-0.244,39631.0
0.797,-0.604,0.132,-0.427,39649.0
0.806,-0.601,0.124,-1.404,39669.0
0.818,-0.602,0.116,-1.648,39688.0
0.817,-0.597,0.114,-0.977,39708.0
0.811,-0.599,0.12,0.0,39726.0
0.805,-0.595,0.117,-0.061,39745.0
0.798,-0.596,0.128,-0.977,39764.0
0.817,-0.603,0.123,-1.038,39782.0
0.815,-0.594,0.096,-1.404,39801.0
0.828,-0.604,0.126,-1.038,39822.0
0.796,-0.603,0.153,0.122,39841.0
0.791,-0.601,0.154,-1.282,39859.0
0.793,-0.6,0.145,-1.953,39879.0
0.81,-0.606,0.144,-1.526,39897.0
0.813,-0.604,0.148,-1.221,39918.0
0.837,-0.612,0.144,-0.366,39938.0
0.798,-0.598,0.136,0.061,39958.0
0.804,-0.599,0.139,-0.732,39977.0
0.831,-0.603,0.138,-0.61,39996.0
1.034,-0.654,0.174,6.348,40014.0
1.285,-0.729,0.257,27.588,40032.0
1.066,-0.763,0.393,54.626,40052.0
0.81,-0.867,0.657,39.856,40072.0
0.788,-0.807,0.59,20.752,40090.0
1.039,-0.781,0.335,18.372,40110.0
1.068,-0.749,0.226,41.565,40130.0
0.956,-0.76,0.226,86.609,40150.0
0.505,-0.621,0.108,81.726,40172.0
0.362,-0.542,-0.041,49.805,40192.0
0.401,-0.394,-0.269,7.751,40213.0
0.33,-0.364,-0.47,-2.808,40232.0
0.561,-0.36,-0.768,-12.878,40253.0
0.51,-0.383,-0.802,-7.69,40273.0
0.429,-0.37,-0.796,-3.235,40293.0
0.461,-0.333,-0.768,-0.671,40313.0
0.443,-0.309,-0.749,-6.348,40333.0
0.476,-0.32,-0.69,-17.761,40351.0
0.523,-0.359,-0.645,-38.269,40373.0
0.575,-0.356,-0.675,-60.608,40392.0
0.756,-0.446,-0.551,-61.584,40412.0
0.707,-0.463,-0.492,-59.937,40429.0
0.802,-0.544,-0.296,-55.542,40447.0
0.912,-0.645,-0.121,-43.091,40466.0
0.942,-0.725,0.038,-30.273,40486.0
1.062,-0.84,0.243,-22.278,40508.0
1.023,-0.901,0.249,-10.925,40526.0
1.006,-0.888,0.273,-6.714,40544.0
0.9,-0.82,0.17,-0.793,40564.0
0.866,-0.799,0.144,0.61,40582.0
0.852,-0.753,0.067,4.822,40600.0
0.793,-0.724,0.017,10.254,40619.0
0.76,-0.683,-0.071,10.376,40637.0
0.86,-0.661,-0.114,10.925,40656.0
0.856,-0.639,-0.155,26.306,40676.0
0.661,-0.569,-0.176,31.799,40698.0
0.534,-0.469,-0.277,23.804,40719.0
0.386,-0.308,-0.458,1.77,40743.0
0.418,-0.222,-0.61,-22.522,40761.0
0.62,-0.197,-0.801,-32.776,40781.0
0.754,-0.152,-1.027,-28.442,40802.0
0.851,-0.156,-1.103,-17.029,40821.0
0.869,-0.189,-1.036,-3.418,40842.0
0.831,-0.265,-0.829,3.235,40861.0
0.797,-0.332,-0.655,4.517,40882.0
0.746,-0.343,-0.622,1.709,40899.0
0.755,-0.375,-0.577,-1.282,40918.0
0.728,-0.384,-0.567,-9.033,40940.0
0.778,-0.424,-0.49,-11.047,40957.0
0.779,-0.441,-0.431,-7.141,40976.0
0.783,-0.488,-0.308,-2.258,40994.0
0.787,-0.552,-0.149,4.578,41012.0
0.768,-0.607,-0.033,9.827,41031.0
0.785,-0.664,0.04,10.437,41052.0
0.792,-0.696,0.069,9.521,41073.0
0.787,-0.731,0.077,7.507,41095.0
0.741,-0.698,0.051,3.54,41113.0
0.776,-0.718,0.113,1.404,41132.0
0.776,-0.715,0.104,-1.465,41152.0
0.808,-0.697,0.065,-3.052,41174.0
0.811,-0.684,0.028,-3.784,41191.0
0.768,-0.652,-0.002,-4.7,41211.0
0.796,-0.659,0.011,-7.996,41231.0
0.801,-0.633,-0.045,-6.47,41251.0
0.799,-0.62,-0.048,-5.981,41274.0
0.807,-0.6,-0.079,-4.517,41293.0
0.812,-0.602,-0.092,-3.601,41312.0
0.805,-0.606,-0.081,-3.296,41331.0
0.795,-0.594,-0.08,-2.197,41349.0
0.807,-0.594,-0.085,-3.906,41369.0
0.827,-0.603,-0.067,-5.005,41389.0
0.837,-0.613,-0.065,-0.854,41412.0
0.825,-0.631,-0.024,0.61,41430.0
0.796,-0.636,0.01,2.136,41452.0
0.792,-0.628,0.001,1.587,41471.0
0.798,-0.613,-0.029,-1.404,41489.0
0.813,-0.617,-0.04,-1.038,41509.0
0.808,-0.619,-0.02,-0.671,41529.0
0.793,-0.607,-0.044,-0.854,41548.0
0.782,-0.598,-0.051,-3.723,41567.0
0.808,-0.597,-0.044,-6.287,41588.0
0.804,-0.6,-0.05,-5.31,41608.0
0.818,-0.6,-0.042,-5.127,41628.0
0.844,-0.603,-0.055,-2.625,41649.0
0.832,-0.611,-0.031,-1.099,41669.0
0.83,-0.623,-0.005,-0.244,41687.0
0.813,-0.62,0.006,1.16,41705.0
0.778,-0.599,-0.012,-1.77,41723.0
0.811,-0.602,-0.016,-4.7,41741.0
0.815,-0.611,0.007,-3.845,41763.0
0.823,-0.619,0.01,-2.808,41783.0
0.831,-0.618,0.005,-2.38,41804.0
0.833,-0.609,-0.004,-1.099,41822.0
0.808,-0.606,-0.012,-1.16,41841.0
0.796,-0.594,-0.026,-2.93,41861.0
0.822,-0.591,-0.044,-2.319,41881.0
0.816,-0.595,-0.029,-1.038,41901.0
0.799,-0.598,-0.018,-1.648,41923.0
0.802,-0.599,-0.01,-3.357,41941.0
0.792,-0.598,-0.005,-4.15,41960.0
0.777,-0.598,0.003,-5.676,41980.0
0.826,-0.607,-0.004,-6.897,42001.0
0.831,-0.61,0.014,-6.165,42020.0
0.825,-0.6,0.0,-5.554,42040.0
0.823,-0.601,0.002,-6.226,42058.0
0.83,-0.588,-0.02,-6.042,42080.0
0.841,-0.589,-0.029,-4.944,42098.0
0.835,-0.585,-0.011,-5.493,42118.0
0.83,-0.575,-0.031,-4.333,42137.0
0.833,-0.576,-0.026,-4.761,42156.0
0.831,-0.572,-0.021,-5.127,42176.0
0.839,-0.572,-0.03,-5.188,42194.0
0.843,-0.576,-0.026,-4.272,42214.0
0.83,-0.575,-0.011,-3.601,42232.0
0.849,-0.584,-0.001,-5.31,42252.0
0.836,-0.579,-0.032,-3.479,42274.0
0.832,-0.575,-0.023,-3.845,42296.0
0.828,-0.57,-0.023,-3.662,42316.0
0.835,-0.573,-0.017,-3.54,42334.0
0.849,-0.577,-0.021,-4.456,42352.0
0.864,-0.58,-0.016,-3.235,42372.0
0.849,-0.571,-0.02,-2.075,42391.0
0.847,-0.572,-0.018,-2.258,42410.0
0.842,-0.57,-0.014,-1.892,42429.0
0.838,-0.57,-0.019,-2.869,42450.0
0.855,-0.569,-0.028,-3.418,42471.0
0.848,-0.562,-0.026,-1.526,42490.0
0.849,-0.573,-0.009,-0.732,42510.0
0.866,-0.572,-0.011,-1.038,42530.0
0.853,-0.571,-0.008,0.244,42549.0
0.844,-0.577,0.009,-0.122,42573.0
0.849,-0.578,0.003,0.0,42592.0
0.868,-0.581,-0.007,0.122,42610.0
0.834,-0.567,-0.024,0.488,42631.0
0.815,-0.557,-0.037,-1.404,42650.0
0.811,-0.546,-0.053,-1.038,42670.0
0.812,-0.551,-0.045,-3.601,42690.0
0.863,-0.559,-0.054,-3.113,42710.0
0.863,-0.562,-0.037,-1.526,42728.0
0.831,-0.55,-0.041,-3.113,42747.0
0.774,-0.499,-0.108,-9.766,42767.0
0.806,-0.504,-0.101,-18.066,42789.0
0.863,-0.535,-0.061,-18.494,42808.0
0.903,-0.563,0.002,-12.085,42828.0
0.914,-0.578,0.023,-5.493,42846.0
0.872,-0.567,0.035,-1.953,42865.0
0.878,-0.562,0.028,-2.014,42886.0
0.857,-0.557,0.027,-0.122,42905.0
0.89,-0.566,0.034,0.793,42926.0
0.864,-0.567,0.038,3.174,42946.0
0.854,-0.565,0.044,3.113,42970.0
0.84,-0.551,0.012,2.319,42991.0
0.834,-0.541,0.003,1.465,43009.0
0.843,-0.544,-0.006,1.038,43030.0
0.832,-0.548,-0.004,0.488,43050.0
0.832,-0.535,-0.02,-0.671,43073.0
0.866,-0.542,-0.014,-1.404,43095.0
0.839,-0.536,-0.015,-1.343,43116.0
0.875,-0.547,-0.006,-2.197,43136.0
0.867,-0.544,0.004,-0.671,43157.0
0.849,-0.55,0.019,-0.854,43175.0
0.831,-0.542,0.0,-2.625,43197.0
0.841,-0.536,-0.019,-4.028,43215.0
0.884,-0.549,0.001,-2.563,43235.0
0.879,-0.553,0.01,-0.61,43257.0
0.85,-0.545,0.016,0.305,43275.0
0.858,-0.546,0.019,-0.916,43296.0
0.848,-0.541,0.017,-0.183,43316.0
0.856,-0.541,0.014,-0.671,43337.0
0.851,-0.549,0.024,-0.732,43357.0
0.869,-0.556,0.034,-0.244,43378.0
0.845,-0.545,0.018,-0.671,43397.0
0.86,-0.532,-0.003,-2.38,43416.0
0.871,-0.538,0.003,-1.404,43434.0
0.859,-0.545,0.023,0.122,43454.0
0.872,-0.553,0.027,1.038,43472.0
0.867,-0.554,0.034,1.465,43490.0
0.912,-0.556,0.014,6.47,43514.0
0.885,-0.549,0.01,8.545,43532.0
0.872,-0.55,0.024,8.24,43554.0
0.855,-0.553,0.005,10.803,43574.0
0.869,-0.565,0.029,8.667,43594.0
0.904,-0.578,0.009,12.146,43614.0
0.989,-0.608,0.034,18.799,43632.0
0.925,-0.606,0.069,26.184,43653.0
1.163,-0.745,0.193,45.227,43673.0
1.232,-0.796,0.299,72.51,43694.0
1.562,-0.967,0.374,140.625,43715.0
0.628,-0.663,0.271,156.799,43737.0
0.659,-0.647,0.096,116.943,43756.0
1.041,-0.784,0.234,138.672,43776.0
0.294,-0.506,-0.14,142.578,43797.0
0.249,-0.504,-0.217,112.061,43818.0
0.212,-0.515,-0.316,82.947,43836.0
0.296,-0.453,-0.53,45.532,43858.0
0.306,-0.563,-0.609,43.701,43879.0
0.282,-0.518,-0.666,23.682,43899.0
0.36,-0.547,-0.611,5.981,43917.0
0.207,-0.503,-0.61,-7.935,43937.0
0.037,-0.344,-0.748,-45.166,43957.0
-0.05,-0.189,-0.911,-90.271,43976.0
-0.247,0.052,-1.09,-153.015,43994.0
0.241,0.06,-0.768,-207.275,44016.0
0.867,-0.156,-0.426,-206.909,44035.0
1.22,-0.474,-0.105,-176.27,44057.0
1.243,-0.71,0.27,-137.268,44077.0
2.064,-1.042,0.376,-99.365,44097.0
1.788,-1.04,0.421,-22.156,44119.0
1.71,-1.045,0.598,24.475,44139.0
1.582,-0.969,0.4,75.928,44159.0
1.524,-0.977,0.617,134.094,44178.0
1.227,-0.905,0.653,179.077,44196.0
0.669,-0.683,0.475,176.025,44217.0
0.445,-0.495,0.17,146.362,44236.0
0.364,-0.477,-0.13,126.77,44255.0
-0.049,-0.253,-0.462,83.862,44276.0
0.246,-0.358,-0.558,44.678,44296.0
0.277,-0.309,-0.828,40.161,44318.0
0.232,-0.295,-0.935,15.625,44339.0
0.222,-0.235,-0.952,4.333,44360.0
-0.006,-0.082,-1.065,-23.926,44380.0
0.003,0.005,-1.025,-80.139,44401.0
0.169,0.027,-0.97,-119.019,44420.0
0.65,-0.178,-0.833,-140.686,44440.0
0.929,-0.375,-0.575,-111.145,44460.0
0.946,-0.464,-0.425,-87.524,44479.0
1.01,-0.513,-0.31,-77.393,44499.0
1.174,-0.639,-0.213,-54.749,44519.0
1.083,-0.671,-0.179,-36.682,44537.0
1.069,-0.695,-0.177,-25.146,44555.0
0.974,-0.667,-0.191,-13.916,44573.0
0.925,-0.644,-0.207,-15.259,44591.0
1.045,-0.681,-0.105,-11.108,44611.0
1.047,-0.716,-0.011,-0.061,44629.0
1.049,-0.775,0.09,19.592,44649.0
0.969,-0.779,0.174,25.208,44669.0
1.004,-0.79,0.211,30.701,44688.0
0.931,-0.817,0.283,40.405,44706.0
0.744,-0.775,0.257,32.532,44729.0
0.739,-0.714,0.079,36.133,44753.0
0.8,-0.631,-0.194,47.974,44776.0
0.887,-0.665,-0.242,68.054,44795.0
0.46,-0.543,-0.316,65.735,44817.0
0.378,-0.505,-0.351,46.631,44838.0
0.188,-0.349,-0.571,23.804,44858.0
0.285,-0.284,-0.741,-7.629,44878.0
0.503,-0.335,-0.762,-9.766,44897.0
0.442,-0.312,-0.773,-14.038,44918.0
0.466,-0.254,-0.82,-21.79,44938.0
0.507,-0.175,-0.948,-30.701,44957.0
0.599,-0.157,-0.994,-39.612,44976.0
0.575,-0.132,-1.011,-41.626,44999.0
0.565,-0.111,-0.983,-49.561,45018.0
0.632,-0.132,-0.93,-58.35,45041.0
0.744,-0.133,-0.969,-64.758,45061.0
0.816,-0.175,-0.852,-55.542,45079.0
0.862,-0.263,-0.668,-39.734,45099.0
0.778,-0.297,-0.567,-30.579,45119.0
0.77,-0.376,-0.361,-28.442,45138.0
0.768,-0.392,-0.368,-28.076,45156.0
0.914,-0.517,-0.197,-19.836,45178.0
0.872,-0.608,0.032,-4.883,45198.0
0.86,-0.717,0.247,8.484,45217.0
0.804,-0.751,0.311,12.085,45237.0
0.688,-0.707,0.239,7.202,45258.0
0.664,-0.697,0.242,-10.681,45282.0
0.788,-0.719,0.236,-25.33,45304.0
0.807,-0.683,0.124,-20.569,45322.0
0.825,-0.686,0.164,-21.423,45343.0
0.82,-0.677,0.179,-17.639,45361.0
0.783,-0.654,0.202,-20.691,45383.0
0.931,-0.654,0.151,-20.874,45404.0
0.901,-0.58,0.051,-17.7,45424.0
0.931,-0.565,-0.001,-16.724,45443.0
0.898,-0.528,-0.058,-17.212,45463.0
0.953,-0.531,-0.062,-16.174,45484.0
0.956,-0.527,-0.067,-11.719,45504.0
1.024,-0.527,-0.103,-1.892,45522.0
0.987,-0.526,-0.084,6.958,45541.0
0.965,-0.542,-0.027,10.925,45561.0
0.991,-0.585,0.052,14.832,45581.0
0.972,-0.607,0.093,20.386,45601.0
1.106,-0.759,0.493,42.664,45621.0
1.002,-0.763,0.507,57.861,45640.0
1.034,-0.688,0.46,74.036,45658.0
1.034,-0.582,0.535,94.055,45676.0
0.674,-0.334,0.074,98.328,45694.0
0.439,-0.146,-0.438,74.829,45712.0
0.448,-0.093,-0.72,54.81,45730.0
0.496,-0.038,-1.08,40.833,45749.0
0.534,-0.066,-1.26,27.405,45767.0
0.594,-0.051,-1.257,14.038,45788.0
0.635,-0.062,-1.098,12.085,45809.0
0.486,0.042,-1.176,-7.019,45829.0
0.557,0.106,-1.215,-44.067,45852.0
0.627,0.126,-1.162,-61.401,45870.0
0.705,0.086,-0.993,-67.017,45888.0
0.876,-0.037,-0.746,-59.753,45908.0
0.94,-0.205,-0.354,-20.996,45926.0
0.782,-0.308,-0.108,-2.075,45945.0
0.63,-0.463,0.211,-6.592,45966.0
0.722,-0.625,0.387,-14.343,45984.0
0.793,-0.746,0.464,-8.24,46005.0
0.893,-0.872,0.566,-3.784,46023.0
0.888,-0.933,0.658,12.39,46041.0
0.722,-0.96,0.733,20.569,46062.0
0.712,-0.991,0.881,10.071,46080.0
0.683,-1.015,0.935,11.719,46099.0
0.791,-1.082,1.108,8.179,46117.0
0.702,-1.034,0.987,21.301,46137.0
0.581,-0.968,1.039,11.78,46156.0
0.524,-0.763,0.817,-12.085,46175.0
0.572,-0.598,0.51,-17.822,46195.0
0.676,-0.416,0.165,-32.471,46216.0
0.585,-0.186,-0.204,-45.349,46235.0
0.745,-0.118,-0.49,-56.213,46253.0
0.796,0.025,-0.844,-40.405,46273.0
0.898,0.083,-1.227,-16.968,46293.0
0.774,0.196,-1.234,7.08,46311.0
0.665,0.323,-1.455,10.437,46332.0
0.671,0.331,-1.388,5.127,46350.0
0.64,0.313,-1.22,-6.104,46374.0
0.651,0.254,-1.171,-14.526,46397.0
0.675,0.172,-1.109,-19.287,46416.0
0.602,0.134,-1.079,-24.475,46436.0
0.727,-0.003,-0.866,-33.447,46457.0
0.792,-0.168,-0.602,-20.325,46477.0
0.791,-0.342,-0.344,-4.395,46497.0
0.85,-0.51,-0.116,6.165,46519.0
0.823,-0.614,0.094,15.32,46538.0
0.719,-0.723,0.238,19.775,46558.0
0.728,-0.837,0.365,16.296,46579.0
0.667,-0.865,0.401,17.151,46599.0
0.62,-0.865,0.41,10.681,46617.0
0.668,-0.87,0.33,-0.793,46637.0
0.603,-0.813,0.234,-10.742,46657.0
0.645,-0.816,0.181,-20.63,46675.0
0.653,-0.781,0.151,-21.606,46696.0
0.61,-0.739,0.12,-25.696,46715.0
0.749,-0.749,0.071,-25.574,46735.0
0.74,-0.725,0.056,-20.447,46754.0
0.744,-0.703,0.043,-21.24,46773.0
0.772,-0.664,-0.04,-24.17,46792.0
0.803,-0.636,-0.11,-24.963,46813.0
0.8,-0.602,-0.174,-27.344,46833.0
0.853,-0.591,-0.222,-26.611,46853.0
0.859,-0.577,-0.246,-22.034,46872.0
0.85,-0.567,-0.246,-17.639,46892.0
0.847,-0.561,-0.254,-14.648,46912.0
0.857,-0.552,-0.281,-12.207,46931.0
0.849,-0.541,-0.302,-9.277,46951.0
0.85,-0.557,-0.282,-5.371,46971.0
0.84,-0.565,-0.264,-2.014,46992.0
0.815,-0.571,-0.235,2.869,47011.0
0.815,-0.569,-0.242,2.747,47031.0
0.814,-0.577,-0.229,1.099,47049.0
0.802,-0.596,-0.177,1.526,47070.0
0.805,-0.61,-0.151,2.38,47089.0
0.807,-0.613,-0.147,3.601,47108.0
0.803,-0.611,-0.144,2.136,47126.0
0.785,-0.593,-0.172,0.427,47146.0
0.784,-0.594,-0.167,-2.197,47165.0
0.752,-0.575,-0.179,-4.028,47184.0
0.813,-0.582,-0.186,-7.263,47204.0
0.817,-0.584,-0.182,-5.371,47223.0
0.809,-0.593,-0.148,-4.272,47241.0
0.819,-0.606,-0.132,-2.502,47261.0
0.781,-0.585,-0.151,-3.601,47281.0
0.833,-0.596,-0.138,-4.883,47302.0
0.855,-0.605,-0.125,-1.221,47320.0
0.828,-0.618,-0.104,0.061,47340.0
0.83,-0.626,-0.075,0.549,47358.0
0.815,-0.635,-0.071,2.014,47379.0
0.831,-0.62,-0.095,2.258,47399.0
0.836,-0.609,-0.115,2.991,47417.0
0.811,-0.606,-0.127,4.639,47439.0
0.793,-0.607,-0.127,1.404,47459.0
0.794,-0.604,-0.135,1.465,47478.0
0.795,-0.601,-0.156,2.319,47499.0
0.841,-0.6,-0.205,4.272,47517.0
0.831,-0.605,-0.179,7.812,47538.0
0.808,-0.622,-0.154,9.766,47557.0
0.873,-0.634,-0.153,7.751,47577.0
1.114,-0.704,-0.118,16.846,47598.0
1.28,-0.853,0.028,47.424,47616.0
1.218,-0.896,0.164,74.951,47634.0
0.893,-0.761,0.12,99.243,47655.0
0.836,-0.733,0.157,91.003,47673.0
0.746,-0.711,0.149,79.285,47692.0
0.361,-0.6,0.073,67.078,47712.0
0.091,-0.358,-0.335,37.842,47731.0
-0.175,-0.079,-0.944,13.611,47751.0
-0.042,0.125,-1.639,-6.287,47770.0
-0.178,0.251,-1.768,-13.306,47790.0
-0.369,0.329,-1.426,-58.655,47813.0
-0.169,0.222,-1.034,-105.286,47832.0
0.085,0.031,-0.539,-143.555,47852.0
0.556,-0.187,-0.204,-163.452,47869.0
0.83,-0.418,-0.083,-148.499,47892.0
1.475,-0.729,0.125,-132.202,47913.0
1.867,-0.959,0.173,-87.158,47933.0
2.103,-1.105,0.217,-26.794,47954.0
1.704,-1.032,0.176,36.682,47973.0
1.243,-0.891,0.226,65.857,47993.0
0.845,-0.718,0.108,74.646,48013.0
0.615,-0.61,0.005,64.941,48031.0
0.606,-0.561,-0.157,48.279,48052.0
0.543,-0.476,-0.329,35.339,48072.0
0.504,-0.353,-0.487,24.719,48090.0
0.338,-0.1,-0.851,10.986,48112.0
0.013,0.186,-1.168,-12.207,48133.0
-0.208,0.46,-1.587,-77.087,48155.0
0.197,0.368,-1.357,-116.272,48174.0
0.423,0.208,-0.968,-105.957,48193.0
0.813,0.101,-0.885,-94.788,48215.0
0.817,0.081,-0.774,-82.336,48235.0
1.017,-0.056,-0.565,-83.801,48255.0
1.199,-0.246,-0.373,-68.97,48275.0
1.211,-0.36,-0.226,-54.138,48293.0
1.148,-0.451,-0.096,-56.641,48315.0
1.133,-0.563,0.03,-54.443,48334.0
1.3,-0.683,0.096,-39.673,48354.0
1.135,-0.615,0.012,-5.188,48376.0
0.796,-0.484,-0.063,-7.69,48396.0
0.77,-0.452,-0.184,-29.297,48416.0
0.828,-0.44,-0.229,-36.194,48435.0
0.959,-0.395,-0.378,-31.555,48454.0
1.031,-0.301,-0.608,-10.254,48473.0
1.05,-0.199,-0.772,3.418,48492.0
1.267,-0.16,-0.905,25.513,48514.0
1.269,-0.086,-0.951,67.871,48536.0
1.448,-0.082,-0.937,108.154,48554.0
1.263,0.001,-0.898,162.903,48574.0
0.672,0.096,-0.668,180.115,48592.0
0.422,0.117,-0.754,163.025,48612.0
0.197,0.187,-0.924,150.146,48632.0
-0.009,0.16,-0.91,121.338,48651.0
-0.079,0.092,-0.839,77.759,48671.0
-0.191,-0.001,-0.69,28.137,48689.0
-0.303,-0.153,-0.379,-29.907,48708.0
-0.37,-0.204,-0.214,-98.45,48730.0
-0.263,-0.194,-0.115,-151.123,48749.0
0.68,-0.226,-0.233,-208.618,48769.0
1.755,-0.56,-0.538,-164.551,48789.0
1.628,-0.575,-0.501,-88.501,48809.0
1.571,-0.483,-0.588,-35.461,48831.0
1.823,-0.437,-0.886,0.061,48850.0
1.974,-0.463,-0.921,72.937,48869.0
1.725,-0.443,-0.685,129.761,48887.0
1.382,-0.418,-0.414,175.537,48905.0
0.806,-0.399,-0.139,179.565,48929.0
0.771,-0.4,-0.224,173.218,48947.0
0.49,-0.236,-0.558,172.852,48970.0
0.152,-0.063,-0.97,143.86,48989.0
0.004,-0.005,-1.098,101.99,49009.0
-0.258,-0.051,-0.794,59.814,49030.0
-0.332,-0.115,-0.603,0.183,49048.0
-0.277,-0.173,-0.32,-61.707,49067.0
0.065,-0.263,-0.075,-124.695,49085.0
0.553,-0.374,-0.163,-160.889,49104.0
1.145,-0.576,-0.138,-157.837,49123.0
1.679,-0.772,-0.145,-118.164,49143.0
1.665,-0.814,-0.188,-41.992,49165.0
1.568,-0.738,-0.144,-3.479,49183.0
1.534,-0.744,-0.073,39.795,49204.0
1.703,-0.833,0.008,70.312,49223.0
1.705,-0.852,0.119,139.099,49242.0
1.296,-0.732,0.095,191.406,49260.0
0.45,-0.517,0.111,171.997,49281.0
0.161,-0.446,-0.143,116.882,49302.0
-0.01,-0.372,-0.429,65.796,49322.0
-0.141,-0.28,-0.705,16.541,49340.0
-0.461,-0.176,-0.859,-36.865,49358.0
-0.457,-0.16,-0.688,-97.961,49377.0
-0.444,-0.166,-0.362,-151.489,49398.0
-0.113,-0.131,-0.137,-209.106,49417.0
0.94,-0.284,-0.243,-241.455,49438.0
1.839,-0.568,-0.533,-196.533,49456.0
2.178,-0.767,-0.637,-107.727,49475.0
2.049,-0.737,-0.586,-19.836,49496.0
2.011,-0.739,-0.443,48.035,49515.0
2.085,-0.667,-0.481,143.005,49536.0
1.443,-0.519,-0.305,201.66,49557.0
0.982,-0.414,-0.278,192.871,49578.0
0.354,-0.298,-0.433,168.701,49597.0
0.022,-0.2,-0.65,120.422,49617.0
-0.218,-0.162,-0.797,78.735,49639.0
-0.235,-0.181,-0.781,43.274,49658.0
-0.766,-0.011,-0.797,8.362,49678.0
-0.96,0.121,-0.802,-77.637,49698.0
-0.756,0.176,-0.604,-163.513,49718.0
0.377,-0.031,-0.35,-233.948,49740.0
1.275,-0.333,-0.522,-218.445,49761.0
1.82,-0.66,-0.434,-156.555,49780.0
1.85,-0.689,-0.504,-85.571,49800.0
2.026,-0.712,-0.772,-27.832,49821.0
1.994,-0.69,-0.664,58.716,49842.0
1.839,-0.692,-0.417,137.817,49862.0
1.304,-0.593,-0.271,186.951,49881.0
0.418,-0.393,-0.305,183.044,49904.0
-0.026,-0.261,-0.592,151.55,49922.0
-0.281,-0.144,-0.937,104.919,49942.0
-0.494,-0.022,-1.134,57.312,49960.0
-0.755,0.044,-0.854,-10.62,49978.0
-0.778,0.049,-0.423,-71.106,49997.0
-0.537,-0.016,-0.019,-144.287,50016.0
0.408,-0.202,0.133,-219.727,50036.0
2.25,-0.817,-0.24,-197.144,50057.0
2.473,-0.95,-0.348,-71.472,50078.0
2.519,-1.045,-0.354,54.382,50102.0
2.046,-0.8,-0.549,132.202,50122.0
1.19,-0.533,-0.394,174.927,50142.0
0.226,-0.326,-0.3,163.818,50163.0
-0.17,-0.25,-0.563,117.126,50182.0
-0.342,-0.182,-0.728,70.801,50205.0
-0.676,0.028,-0.841,29.541,50225.0
-0.841,0.226,-0.868,-55.908,50244.0
-0.326,0.198,-0.556,-155.457,50268.0
0.6,-0.014,-0.396,-205.75,50287.0
1.597,-0.476,-0.262,-192.078,50309.0
2.319,-0.876,0.101,-135.437,50327.0
2.211,-0.823,-0.461,-36.743,50350.0
1.904,-0.688,-0.611,37.354,50370.0
1.457,-0.542,-0.591,69.275,50388.0
1.055,-0.476,-0.355,73.73,50409.0
0.786,-0.432,-0.165,70.679,50429.0
0.465,-0.328,-0.239,67.932,50449.0
0.178,-0.213,-0.418,52.002,50469.0
0.033,-0.151,-0.535,22.156,50488.0
0.111,-0.153,-0.583,-16.907,50506.0
0.442,-0.255,-0.51,-47.791,50524.0
0.625,-0.326,-0.454,-57.861,50543.0
0.892,-0.471,-0.351,-59.875,50563.0
0.994,-0.516,-0.332,-48.645,50582.0
1.059,-0.5,-0.42,-32.104,50602.0
1.018,-0.446,-0.491,-15.015,50620.0
0.993,-0.437,-0.514,-5.981,50638.0
0.925,-0.429,-0.455,1.77,50656.0
0.81,-0.408,-0.402,7.446,50678.0
0.777,-0.399,-0.314,6.714,50698.0
0.75,-0.387,-0.301,4.089,50719.0
0.793,-0.394,-0.345,2.319,50737.0
0.804,-0.403,-0.309,-3.052,50756.0
0.869,-0.427,-0.291,-8.911,50774.0
1.046,-0.466,-0.301,-12.39,50795.0
1.079,-0.478,-0.286,1.831,50814.0
0.996,-0.465,-0.268,9.155,50835.0
0.945,-0.446,-0.25,13.55,50854.0
0.858,-0.429,-0.204,11.841,50877.0
0.828,-0.437,-0.148,7.935,50896.0
0.855,-0.449,-0.128,2.991,50915.0
0.982,-0.492,-0.182,1.526,50934.0
1.026,-0.52,-0.142,5.92,50952.0
0.942,-0.499,-0.113,13.123,50973.0
0.805,-0.456,-0.135,13.855,50991.0
0.776,-0.439,-0.153,6.653,51009.0
0.864,-0.475,-0.138,-1.16,51031.0
0.925,-0.5,-0.132,-1.77,51051.0
0.923,-0.496,-0.108,3.174,51075.0
0.882,-0.475,-0.089,3.479,51096.0
0.827,-0.452,-0.149,0.366,51115.0
0.885,-0.474,-0.15,-2.625,51134.0
0.899,-0.474,-0.145,-0.549,51154.0
0.925,-0.479,-0.157,0.427,51173.0
0.914,-0.469,-0.191,0.916,51193.0
0.905,-0.465,-0.191,2.625,51212.0
0.877,-0.473,-0.153,4.578,51232.0
0.861,-0.481,-0.114,3.967,51252.0
0.858,-0.489,-0.107,0.427,51273.0
0.889,-0.489,-0.116,-3.113,51292.0
0.924,-0.47,-0.154,-4.028,51310.0
0.967,-0.469,-0.196,-0.854,51331.0
0.966,-0.483,-0.165,5.981,51350.0
0.929,-0.483,-0.141,13.062,51369.0
0.814,-0.471,-0.113,15.93,51389.0
0.769,-0.467,-0.111,10.864,51408.0
0.812,-0.486,-0.112,4.456,51427.0
0.859,-0.502,-0.135,3.113,51448.0
0.908,-0.508,-0.138,0.549,51468.0
0.929,-0.504,-0.147,3.235,51489.0
0.861,-0.481,-0.182,7.874,51510.0
0.859,-0.488,-0.161,5.493,51530.0
0.895,-0.501,-0.175,6.042,51548.0
0.896,-0.507,-0.159,9.338,51566.0
0.876,-0.521,-0.125,10.681,51587.0
0.856,-0.522,-0.109,11.475,51605.0
0.906,-0.548,-0.113,9.949,51627.0
0.923,-0.559,-0.081,9.827,51650.0
0.916,-0.562,-0.091,11.78,51670.0
0.904,-0.56,-0.086,12.146,51690.0
0.95,-0.572,-0.102,13.611,51708.0
0.938,-0.559,-0.138,19.348,51728.0
0.913,-0.541,-0.15,21.912,51749.0
0.929,-0.542,-0.134,22.705,51770.0
1.571,-0.723,-0.017,39.001,51789.0
1.424,-0.798,0.125,105.896,51809.0
1.108,-0.745,0.226,137.634,51830.0
1.013,-0.731,0.381,139.893,51851.0
0.575,-0.636,0.263,144.897,51869.0
0.556,-0.521,0.053,105.347,51891.0
0.842,-0.606,-0.072,117.004,51911.0
0.557,-0.535,-0.298,158.936,51930.0
0.075,-0.329,-0.77,140.259,51950.0
0.32,-0.393,-0.94,77.576,51970.0
0.249,-0.482,-0.801,65.857,51992.0
0.495,-0.757,-0.304,29.114,52013.0
0.499,-0.691,-0.525,36.987,52033.0
0.564,-0.76,-0.369,40.039,52052.0
0.563,-0.833,-0.347,40.771,52071.0
0.552,-0.834,-0.304,40.466,52094.0
0.412,-0.748,-0.444,41.748,52114.0
0.313,-0.681,-0.458,32.715,52132.0
0.042,-0.568,-0.614,17.883,52151.0
-0.086,-0.502,-0.59,-34.058,52172.0
0.179,-0.565,-0.366,-93.262,52190.0
0.4,-0.627,-0.236,-127.38,52211.0
0.644,-0.643,-0.109,-139.282,52229.0
0.704,-0.603,-0.167,-136.414,52247.0
0.561,-0.432,-0.269,-144.226,52268.0
0.782,-0.514,-0.194,-144.226,52286.0
0.836,-0.532,0.074,-159.973,52309.0
0.96,-0.654,0.262,-151.672,52327.0
0.829,-0.734,0.521,-149.414,52347.0
0.768,-0.792,0.851,-178.284,52366.0
2.831,-1.595,1.628,-151.794,52384.0
3.113,-1.422,0.998,22.766,52404.0
2.217,-1.048,0.834,131.714,52422.0
0.729,-0.154,0.331,164.001,52442.0
0.184,0.288,-0.771,113.647,52464.0
0.199,0.288,-1.177,78.796,52482.0
0.479,0.047,-1.282,74.524,52501.0
0.358,-0.084,-1.094,63.843,52521.0
0.414,-0.327,-0.682,58.838,52541.0
0.175,-0.255,-0.634,60.242,52566.0
0.259,-0.309,-0.574,43.396,52584.0
0.152,-0.308,-0.618,32.776,52605.0
-0.013,-0.273,-0.647,15.381,52625.0
-0.12,-0.27,-0.579,-20.935,52645.0
-0.308,-0.146,-0.672,-71.899,52663.0
-0.3,0.016,-0.75,-142.883,52681.0
0.019,0.043,-0.562,-218.262,52699.0
0.93,-0.18,-0.345,-245.361,52722.0
1.414,-0.384,-0.177,-230.53,52740.0
1.963,-0.691,-0.047,-185.303,52758.0
1.876,-0.722,-0.03,-99.426,52778.0
2.228,-0.821,-0.026,-34.058,52798.0
2.05,-0.724,-0.213,77.271,52822.0
2.382,-0.868,0.008,156.128,52842.0
1.282,-0.453,-0.219,218.567,52861.0
0.682,-0.302,-0.351,197.388,52880.0
0.175,-0.062,-0.754,170.654,52898.0
-0.076,0.122,-1.096,122.681,52922.0
-0.12,0.097,-0.875,101.624,52941.0
-0.473,0.146,-0.751,107.178,52960.0
-1.129,0.156,-0.683,-17.883,52980.0
-0.706,-0.037,-0.367,-137.024,53001.0
0.551,-0.275,-0.271,-222.229,53023.0
1.622,-0.647,-0.256,-211.304,53043.0
2.739,-1.269,0.12,-102.051,53064.0
2.765,-1.308,0.147,68.665,53084.0
1.828,-0.891,-0.088,153.564,53102.0
1.026,-0.645,-0.081,146.851,53122.0
0.85,-0.632,-0.002,113.77,53142.0
0.447,-0.435,-0.335,76.965,53162.0
0.443,-0.372,-0.515,47.058,53182.0
0.24,-0.291,-0.647,36.682,53200.0
0.074,-0.292,-0.652,2.991,53221.0
0.13,-0.142,-0.714,-25.452,53245.0
-0.114,0.066,-0.869,-56.03,53264.0
-0.104,0.208,-0.928,-107.239,53284.0
0.236,0.114,-0.584,-157.654,53303.0
1.338,-0.484,0.063,-189.209,53326.0
2.398,-1.06,0.309,-141.907,53344.0
2.747,-1.245,0.042,14.16,53364.0
2.047,-1.027,-0.004,140.198,53386.0
1.081,-0.685,-0.021,148.01,53406.0
0.857,-0.672,-0.189,95.581,53427.0
0.805,-0.499,-0.395,89.417,53446.0
0.465,-0.341,-0.719,93.201,53469.0
0.277,-0.327,-0.61,87.097,53490.0
0.055,-0.305,-0.538,75.073,53508.0
-0.166,-0.257,-0.552,32.654,53531.0
-0.31,-0.119,-0.648,-25.696,53551.0
-0.177,-0.139,-0.406,-80.994,53571.0
0.523,-0.355,-0.187,-146.24,53592.0
1.058,-0.594,-0.051,-157.715,53610.0
1.65,-0.979,0.376,-99.365,53635.0
1.508,-0.942,0.189,-34.912,53654.0
1.551,-0.906,0.091,12.634,53675.0
1.502,-0.862,-0.026,55.725,53695.0
1.689,-0.874,-0.058,80.627,53713.0
1.084,-0.785,0.02,137.146,53737.0
0.479,-0.599,-0.093,120.544,53758.0
0.139,-0.41,-0.298,86.792,53778.0
-0.097,-0.311,-0.478,44.495,53799.0
-0.082,-0.315,-0.552,-7.996,53820.0
-0.105,-0.288,-0.507,-44.006,53838.0
0.16,-0.337,-0.44,-84.412,53856.0
0.833,-0.566,-0.364,-106.445,53875.0
1.216,-0.788,-0.147,-82.031,53896.0
1.221,-0.858,-0.019,-35.339,53915.0
0.96,-0.759,-0.039,2.625,53939.0
0.871,-0.724,-0.079,5.188,53960.0
0.881,-0.706,-0.084,0.854,53979.0
0.867,-0.703,-0.109,-0.793,53998.0
0.852,-0.708,-0.082,-4.456,54018.0
0.825,-0.701,-0.077,-5.554,54037.0
0.835,-0.698,-0.095,-7.935,54054.0
0.825,-0.657,-0.156,-4.639,54076.0
0.694,-0.577,-0.239,1.221,54094.0
0.519,-0.433,-0.437,-16.357,54114.0
0.466,-0.389,-0.43,-32.959,54135.0
0.687,-0.475,-0.361,-45.898,54155.0
0.986,-0.616,-0.221,-35.095,54174.0
1.029,-0.715,-0.077,-8.789,54194.0
0.952,-0.748,0.048,6.836,54213.0
0.861,-0.73,0.05,7.324,54232.0
0.903,-0.705,-0.057,8.606,54252.0
0.962,-0.713,-0.084,22.156,54271.0
0.749,-0.666,-0.046,31.494,54292.0
0.61,-0.611,-0.089,17.395,54314.0
0.598,-0.572,-0.18,-0.854,54336.0
0.58,-0.504,-0.294,-15.625,54357.0
0.663,-0.463,-0.413,-31.799,54376.0
0.785,-0.503,-0.38,-29.968,54397.0
0.753,-0.527,-0.276,-28.076,54417.0
0.823,-0.539,-0.268,-28.32,54443.0
0.858,-0.537,-0.293,-23.682,54463.0
0.922,-0.539,-0.312,-17.639,54483.0
0.94,-0.55,-0.309,-10.132,54502.0
0.914,-0.585,-0.237,-5.066,54521.0
0.876,-0.585,-0.188,-0.366,54541.0
0.862,-0.579,-0.186,1.953,54561.0
0.832,-0.561,-0.205,1.16,54582.0
0.815,-0.571,-0.21,1.038,54602.0
0.765,-0.542,-0.251,-1.709,54620.0
0.754,-0.525,-0.258,-7.874,54641.0
0.816,-0.542,-0.222,-10.803,54662.0
0.841,-0.539,-0.246,-9.216,54682.0
0.845,-0.557,-0.214,-7.141,54700.0
0.834,-0.568,-0.186,-2.808,54721.0
0.824,-0.576,-0.162,-0.244,54739.0
0.838,-0.579,-0.166,2.197,54763.0
0.778,-0.562,-0.164,2.808,54781.0
0.757,-0.564,-0.154,0.183,54799.0
0.73,-0.562,-0.114,-5.554,54821.0
0.731,-0.561,-0.122,-11.353,54839.0
0.746,-0.562,-0.102,-18.616,54861.0
0.914,-0.59,-0.134,-19.653,54880.0
1.009,-0.629,-0.122,-4.944,54902.0
0.873,-0.588,0.009,3.662,54921.0
0.867,-0.582,-0.065,3.601,54939.0
0.848,-0.546,-0.075,-1.831,54961.0
0.969,-0.58,-0.101,-2.014,54981.0
0.968,-0.596,-0.076,5.798,55002.0
0.925,-0.599,-0.053,11.963,55021.0
0.951,-0.605,-0.09,16.479,55043.0
0.865,-0.578,-0.075,21.179,55065.0
0.816,-0.571,-0.09,19.653,55085.0
0.782,-0.545,-0.131,16.052,55105.0
0.808,-0.548,-0.18,12.878,55123.0
0.774,-0.535,-0.23,10.071,55143.0
0.761,-0.51,-0.312,7.324,55167.0
0.773,-0.502,-0.35,8.057,55186.0
0.761,-0.511,-0.329,8.972,55206.0
0.79,-0.555,-0.234,10.925,55229.0
0.79,-0.571,-0.202,11.047,55248.0
0.775,-0.574,-0.193,7.141,55271.0
0.807,-0.57,-0.222,5.859,55292.0
0.81,-0.574,-0.214,7.141,55313.0
0.797,-0.58,-0.191,8.972,55332.0
0.792,-0.594,-0.168,7.69,55351.0
0.839,-0.611,-0.163,5.127,55376.0
0.838,-0.594,-0.213,6.836,55394.0
0.827,-0.589,-0.228,8.484,55412.0
0.789,-0.58,-0.218,9.949,55430.0
0.765,-0.592,-0.2,9.399,55448.0
0.774,-0.608,-0.191,7.812,55466.0
0.752,-0.621,-0.172,6.897,55487.0
0.759,-0.616,-0.191,4.883,55505.0
0.754,-0.624,-0.184,4.028,55528.0
0.725,-0.628,-0.149,3.235,55545.0
0.707,-0.622,-0.142,0.732,55564.0
0.748,-0.622,-0.167,-3.235,55586.0
0.784,-0.63,-0.176,-4.395,55605.0
0.801,-0.634,-0.183,-3.54,55626.0
0.79,-0.636,-0.154,-1.465,55644.0
0.788,-0.635,-0.135,-1.282,55664.0
0.762,-0.624,-0.133,-1.16,55687.0
0.75,-0.61,-0.151,-4.639,55707.0
0.801,-0.615,-0.169,-6.531,55730.0
0.809,-0.615,-0.178,-4.333,55752.0
0.806,-0.605,-0.183,-3.296,55772.0
0.795,-0.599,-0.174,-3.235,55792.0
0.789,-0.601,-0.172,-3.174,55813.0
0.787,-0.599,-0.174,-3.418,55834.0
0.796,-0.595,-0.177,-4.517,55854.0
0.804,-0.591,-0.19,-5.127,55873.0
0.864,-0.599,-0.205,-2.563,55895.0
0.835,-0.6,-0.188,2.808,55914.0
0.82,-0.599,-0.181,5.798,55935.0
0.809,-0.602,-0.178,6.409,55954.0
0.802,-0.604,-0.166,4.456,55974.0
0.908,-0.636,-0.176,5.127,55992.0
1.224,-0.73,-0.118,20.996,56010.0
1.785,-1.048,0.164,72.51,56028.0
1.396,-1.104,0.384,151.55,56047.0
0.698,-0.862,0.597,165.344,56066.0
0.133,-0.573,0.258,119.995,56085.0
-0.078,-0.299,-0.162,52.979,56104.0
-0.007,-0.233,-0.6,5.005,56122.0
0.302,-0.326,-0.833,-20.569,56142.0
0.232,-0.348,-0.758,-17.395,56162.0
-0.059,-0.119,-1.028,-53.101,56183.0
0.001,-0.004,-1.027,-103.943,56205.0
0.155,-0.061,-0.691,-133.362,56227.0
0.454,-0.199,-0.32,-156.311,56248.0
1.481,-0.647,0.075,-182.556,56266.0
2.675,-1.376,0.901,-102.905,56286.0
2.555,-1.698,0.898,37.659,56305.0
1.696,-1.363,0.969,108.398,56323.0
1.129,-0.836,0.676,133.057,56345.0
0.94,-0.6,0.234,140.381,56365.0
0.693,-0.507,0.02,145.447,56385.0
0.049,-0.226,-0.596,121.216,56404.0
-0.033,0.054,-0.84,66.589,56424.0
0.008,0.246,-1.277,21.79,56445.0
0.015,0.321,-1.423,-14.221,56463.0
0.111,0.258,-1.184,-57.861,56483.0
0.041,0.318,-1.153,-97.473,56503.0
0.258,0.218,-0.951,-135.559,56524.0
0.528,0.124,-0.889,-166.992,56543.0
1.561,-0.346,-0.594,-161.743,56564.0
2.532,-1.098,-0.04,-78.369,56584.0
2.63,-1.566,0.492,89.478,56603.0
1.437,-1.197,0.327,180.054,56622.0
0.751,-0.832,0.149,168.274,56640.0
0.217,-0.498,-0.156,130.981,56660.0
0.044,-0.368,-0.484,74.402,56680.0
0.148,-0.413,-0.544,27.954,56699.0
0.159,-0.367,-0.589,6.531,56719.0
0.076,-0.213,-0.773,-16.602,56737.0
-0.102,0.052,-1.102,-58.044,56757.0
-0.211,0.262,-1.183,-112.549,56775.0
0.156,0.227,-0.885,-172.058,56796.0
0.778,-0.091,-0.415,-187.134,56815.0
1.604,-0.596,0.003,-165.833,56835.0
2.428,-1.2,0.407,-109.314,56853.0
2.486,-1.432,0.425,49.622,56874.0
1.819,-1.116,0.214,136.047,56893.0
1.242,-0.76,0.022,184.021,56914.0
0.867,-0.635,-0.115,195.007,56933.0
0.209,-0.364,-0.47,158.142,56953.0
0.054,-0.241,-0.742,96.863,56974.0
0.088,-0.224,-0.762,65.43,56992.0
-0.093,-0.118,-0.739,38.208,57012.0
-0.369,0.168,-0.999,-5.188,57032.0
-0.639,0.468,-1.219,-81.36,57054.0
-0.337,0.456,-1.007,-178.162,57074.0
0.425,0.112,-0.508,-231.14,57094.0
1.551,-0.465,-0.079,-232.727,57114.0
2.346,-0.959,0.065,-163.635,57131.0
2.957,-1.458,0.245,-14.465,57151.0
2.205,-1.327,0.208,146.973,57172.0
1.429,-0.917,0.036,199.036,57191.0
1.038,-0.759,0.096,197.51,57210.0
0.387,-0.554,-0.127,181.763,57230.0
0.143,-0.423,-0.414,137.817,57249.0
0.008,-0.259,-0.712,104.736,57268.0
-0.011,-0.208,-0.796,64.697,57286.0
-0.047,-0.163,-0.668,39.307,57305.0
-0.289,0.047,-0.707,0.854,57324.0
-0.5,0.32,-1.091,-82.275,57343.0
-0.351,0.423,-1.156,-168.762,57362.0
0.25,0.246,-0.901,-238.159,57380.0
0.956,-0.221,-0.342,-258.179,57401.0
2.219,-0.875,0.053,-225.464,57421.0
2.933,-1.405,0.148,-49.561,57440.0
2.601,-1.409,0.085,98.022,57460.0
1.731,-0.908,-0.111,219.91,57480.0
1.018,-0.616,-0.251,255.615,57498.0
0.898,-0.635,-0.156,253.784,57521.0
0.34,-0.363,-0.558,250.061,57540.0
-0.011,-0.097,-0.888,190.613,57558.0
-0.179,0.029,-0.834,132.69,57576.0
-0.439,0.099,-0.884,51.514,57597.0
-0.427,0.201,-0.935,-65.857,57620.0
-0.28,0.253,-0.897,-167.725,57641.0
0.242,0.042,-0.715,-237.244,57659.0
1.256,-0.488,-0.349,-268.188,57678.0
2.55,-1.377,0.257,-185.059,57696.0
2.624,-1.837,0.652,32.898,57718.0
1.971,-1.666,0.497,147.705,57737.0
0.785,-0.87,0.011,183.777,57757.0
0.211,-0.508,-0.398,117.798,57778.0
0.12,-0.383,-0.452,74.219,57798.0
0.029,-0.385,-0.506,25.879,57818.0
0.221,-0.484,-0.488,-13.794,57838.0
0.279,-0.289,-0.838,-37.292,57859.0
0.265,-0.101,-1.075,-50.598,57881.0
-0.13,0.205,-1.262,-78.552,57899.0
-0.083,0.207,-0.937,-127.869,57917.0
0.135,-0.019,-0.399,-170.898,57940.0
0.569,-0.293,-0.038,-204.712,57960.0
2.044,-0.934,0.179,-220.764,57980.0
3.023,-1.572,0.13,-84.29,57999.0
2.54,-1.407,0.006,84.839,58020.0
1.419,-0.764,-0.3,198.547,58040.0
0.705,-0.489,-0.314,204.041,58060.0
0.363,-0.502,-0.233,168.701,58080.0
0.107,-0.383,-0.36,118.652,58100.0
-0.022,-0.276,-0.664,73.242,58119.0
-0.016,-0.235,-0.779,32.288,58139.0
-0.182,-0.082,-0.858,-4.395,58157.0
-0.476,0.215,-1.153,-61.829,58176.0
-0.429,0.248,-0.845,-145.691,58195.0
-0.077,0.105,-0.418,-222.473,58214.0
0.635,-0.217,-0.163,-276.978,58234.0
2.274,-0.914,0.123,-272.827,58254.0
3.16,-1.499,-0.086,-111.145,58274.0
2.901,-1.327,-0.204,82.397,58294.0
1.648,-0.68,-0.406,201.294,58315.0
0.55,-0.245,-0.452,201.66,58334.0
-0.147,-0.139,-0.375,133.972,58354.0
-0.552,0.041,-0.752,48.706,58372.0
-0.773,0.218,-1.055,-54.443,58390.0
-0.732,0.367,-1.126,-138.672,58408.0
-0.397,0.227,-0.534,-196.777,58427.0
0.318,-0.063,0.041,-224.426,58450.0
2.437,-0.781,0.302,-225.037,58469.0
3.09,-1.182,-0.09,-95.215,58488.0
2.399,-1.09,0.135,59.448,58509.0
1.793,-0.87,0.185,119.385,58527.0
1.311,-0.693,0.138,144.531,58547.0
1.17,-0.638,-0.011,170.105,58566.0
0.896,-0.553,-0.21,163.635,58584.0
0.465,-0.415,-0.411,142.212,58604.0
0.075,-0.279,-0.619,97.9,58623.0
0.061,-0.21,-0.704,65.674,58642.0
-0.027,-0.049,-0.859,51.636,58663.0
-0.422,0.22,-0.985,22.217,58683.0
-0.739,0.46,-0.985,-45.959,58703.0
-0.499,0.408,-0.73,-147.888,58723.0
0.462,0.08,-0.494,-243.835,58745.0
2.313,-0.788,-0.275,-254.089,58765.0
3.235,-1.307,-0.218,-136.475,58783.0
2.943,-1.267,-0.21,78.369,58804.0
2.015,-0.84,-0.328,185.852,58822.0
1.154,-0.545,-0.298,222.229,58842.0
0.446,-0.37,-0.249,197.449,58863.0
0.069,-0.329,-0.23,145.386,58882.0
-0.175,-0.284,-0.307,85.327,58906.0
-0.368,-0.229,-0.528,30.212,58926.0
-0.647,0.004,-0.854,-37.354,58945.0
-0.55,0.184,-1.026,-116.333,58965.0
-0.397,0.202,-0.691,-168.579,58984.0
0.051,0.107,-0.344,-224.792,59003.0
1.689,-0.437,0.016,-268.25,59022.0
3.312,-1.378,-0.027,-138.977,59045.0
3.26,-1.445,0.031,44.434,59064.0
2.319,-0.979,-0.095,201.904,59082.0
1.039,-0.556,-0.073,234.314,59101.0
0.343,-0.455,-0.333,169.922,59119.0
0.425,-0.472,-0.284,118.164,59137.0
0.237,-0.327,-0.412,110.229,59157.0
-0.071,-0.153,-0.565,97.168,59178.0
-0.558,0.112,-0.827,82.397,59200.0
-1.446,0.444,-1.104,-31.25,59219.0
-0.902,0.378,-0.513,-166.321,59237.0
-0.104,0.327,-0.426,-248.901,59257.0
1.478,-0.143,-0.467,-300.11,59276.0
2.745,-0.958,-0.426,-212.28,59296.0
3.448,-1.339,-0.271,-42.725,59316.0
2.93,-1.076,-0.534,126.831,59334.0
1.725,-0.67,-0.384,214.355,59354.0
0.804,-0.605,-0.068,193.298,59375.0
0.455,-0.44,-0.294,144.348,59394.0
0.224,-0.291,-0.589,104.919,59412.0
0.135,-0.197,-0.729,90.698,59432.0
-0.048,-0.129,-0.716,84.534,59450.0
-0.629,-0.016,-0.676,32.227,59472.0
-0.586,0.141,-0.774,-72.327,59492.0
-0.567,0.337,-0.854,-133.606,59511.0
-0.349,0.316,-0.609,-188.66,59530.0
0.49,0.024,-0.341,-239.197,59548.0
2.167,-0.779,0.006,-232.3,59570.0
3.641,-1.449,0.007,-110.84,59588.0
2.999,-1.275,-0.038,98.022,59608.0
1.622,-0.782,-0.049,161.56,59628.0
0.834,-0.579,0.001,145.874,59647.0
0.528,-0.423,-0.161,109.619,59666.0
0.505,-0.366,-0.362,86.792,59686.0
0.144,-0.151,-0.505,77.576,59708.0
-0.605,0.062,-0.805,34.79,59727.0
-0.756,0.23,-1.087,-77.087,59745.0
-0.153,0.188,-1.141,-144.653,59765.0
0.254,0.1,-0.822,-163.879,59785.0
1.325,-0.382,-0.356,-165.161,59804.0
2.575,-1.095,0.078,-121.582,59822.0
3.166,-1.398,0.149,49.744,59841.0
2.366,-1.161,0.043,160.828,59859.0
1.289,-0.802,0.055,208.252,59880.0
0.494,-0.508,0.05,162.415,59898.0
0.136,-0.379,-0.348,105.408,59919.0
-0.003,-0.25,-0.526,65.002,59938.0
-0.055,-0.19,-0.567,47.791,59956.0
-0.312,-0.128,-0.727,28.687,59976.0
-0.788,0.031,-0.837,-44.861,59995.0
-0.45,-0.002,-0.738,-149.353,60015.0
0.109,-0.057,-0.392,-216.064,60034.0
1.171,-0.334,-0.263,-279.114,60053.0
2.26,-0.858,-0.22,-217.834,60073.0
2.52,-1.152,-0.069,-64.88,60096.0
2.273,-0.955,-0.257,80.688,60117.0
1.566,-0.634,-0.176,165.222,60139.0
0.953,-0.546,-0.142,172.668,60157.0
0.666,-0.462,-0.334,129.456,60177.0
0.634,-0.525,-0.47,103.882,60195.0
0.613,-0.563,-0.481,111.877,60213.0
0.45,-0.539,-0.57,109.192,60231.0
0.185,-0.467,-0.52,91.309,60252.0
-0.2,-0.165,-0.904,39.612,60271.0
-0.406,-0.0,-0.944,-41.87,60291.0
-0.344,0.043,-0.827,-123.23,60310.0
0.03,-0.056,-0.486,-192.688,60331.0
0.75,-0.243,-0.105,-229.309,60350.0
1.552,-0.593,0.057,-228.271,60368.0
2.104,-0.871,-0.029,-154.541,60391.0
1.826,-0.8,0.118,-72.327,60408.0
1.391,-0.645,0.005,-26.672,60430.0
1.118,-0.445,-0.194,-25.513,60450.0
0.996,-0.316,-0.422,-30.457,60470.0
0.908,-0.19,-0.614,-28.32,60489.0
0.778,-0.067,-0.722,-15.381,60507.0
0.818,-0.09,-0.66,-3.052,60525.0
0.906,-0.12,-0.467,19.958,60547.0
0.722,-0.051,-0.35,31.677,60567.0
0.571,-0.043,-0.348,20.081,60588.0
0.483,0.032,-0.411,-4.517,60609.0
0.526,0.03,-0.491,-14.832,60629.0
0.562,0.015,-0.535,-13.367,60647.0
0.38,0.091,-0.569,-16.724,60667.0
0.147,0.253,-0.724,-36.865,60685.0
0.011,0.375,-0.703,-85.693,60705.0
0.256,0.219,-0.514,-127.014,60725.0
0.496,0.051,-0.114,-132.141,60745.0
0.911,-0.13,0.114,-146.118,60765.0
1.396,-0.134,0.076,-166.565,60785.0
2.012,-0.202,-0.066,-170.898,60804.0
2.393,-0.147,-0.45,-121.704,60824.0
2.443,-0.019,-0.594,-57.19,60844.0
2.43,0.094,-0.824,5.859,60864.0
2.112,0.137,-0.741,69.763,60885.0
1.675,0.104,-0.398,106.506,60906.0
1.202,0.04,-0.153,118.225,60925.0
0.872,-0.019,-0.076,115.173,60945.0
0.527,-0.01,-0.118,107.117,60967.0
0.421,-0.064,-0.156,95.032,60990.0
0.258,-0.047,-0.246,88.989,61009.0
0.11,-0.099,-0.244,57.739,61031.0
0.222,-0.115,-0.287,32.043,61051.0
0.341,-0.075,-0.312,12.512,61069.0
0.505,-0.073,-0.35,4.211,61087.0
0.5,-0.024,-0.423,-2.075,61105.0
0.449,0.012,-0.394,-8.667,61123.0
0.403,0.059,-0.431,-30.334,61144.0
0.383,0.078,-0.521,-51.086,61164.0
0.29,0.077,-0.481,-81.909,61184.0
0.31,0.092,-0.321,-117.859,61208.0
0.703,0.114,-0.189,-146.179,61226.0
1.118,0.067,-0.098,-161.499,61244.0
1.732,0.095,-0.187,-150.574,61266.0
2.095,0.114,-0.463,-105.164,61286.0
2.309,0.034,-0.366,-53.65,61305.0
2.283,-0.041,-0.242,20.935,61325.0
1.954,-0.033,-0.186,78.613,61345.0
1.869,-0.092,-0.146,114.807,61367.0
1.545,-0.077,-0.065,150.085,61385.0
1.2,-0.035,-0.011,167.603,61403.0
0.911,-0.01,-0.085,168.762,61422.0
0.566,0.012,-0.224,161.255,61440.0
0.182,0.112,-0.396,134.705,61461.0
-0.167,0.193,-0.583,71.899,61483.0
-0.345,0.225,-0.64,18.127,61501.0
-0.264,0.201,-0.555,-66.895,61524.0
-0.181,0.233,-0.49,-112.183,61543.0
0.232,0.24,-0.339,-177.063,61567.0
1.051,0.045,-0.016,-185.181,61587.0
1.561,-0.064,0.115,-150.879,61606.0
1.778,-0.025,0.135,-110.779,61627.0
2.252,-0.064,0.041,-76.782,61645.0
2.512,-0.078,-0.223,-7.69,61663.0
2.49,-0.147,-0.116,58.899,61682.0
2.371,-0.192,-0.092,123.596,61700.0
1.991,-0.179,0.038,179.993,61720.0
1.787,-0.175,0.082,215.759,61739.0
1.216,-0.034,0.08,245.239,61759.0
0.725,0.019,-0.165,234.863,61779.0
0.266,0.075,-0.391,203.308,61797.0
-0.121,0.164,-0.608,154.602,61816.0
-0.311,0.168,-0.766,75.073,61837.0
-0.274,0.08,-0.684,19.226,61855.0
-0.24,0.016,-0.551,-32.654,61874.0
-0.146,-0.045,-0.343,-74.463,61894.0
0.013,-0.059,-0.319,-102.783,61912.0
0.274,0.012,-0.169,-135.498,61936.0
0.804,-0.14,-0.003,-165.955,61956.0
1.269,-0.299,0.382,-166.199,61976.0
2.062,-0.498,0.457,-144.592,61995.0
2.844,-0.64,0.191,-77.576,62014.0
2.834,-0.556,0.049,45.471,62037.0
2.46,-0.462,-0.016,143.433,62057.0
2.027,-0.415,0.245,210.388,62076.0
1.073,-0.437,0.388,240.601,62095.0
0.899,-0.175,-0.127,192.139,62113.0
0.739,-0.252,-0.108,166.443,62132.0
0.597,-0.024,-0.252,155.273,62151.0
0.323,0.122,-0.556,145.508,62171.0
0.01,0.255,-0.92,117.676,62191.0
-0.225,0.125,-0.603,77.087,62209.0
-0.456,0.192,-0.616,7.812,62229.0
-0.642,0.211,-0.745,-62.805,62248.0
-0.226,0.157,-0.542,-139.587,62266.0
0.209,0.169,-0.529,-145.386,62285.0
0.67,-0.068,-0.051,-144.775,62305.0
0.864,-0.285,0.292,-138.489,62324.0
1.242,-0.631,0.638,-154.541,62344.0
2.149,-1.006,0.967,-160.034,62363.0
2.626,-0.929,0.913,-80.505,62381.0
2.697,-1.122,0.696,-0.122,62399.0
2.283,-0.811,0.694,36.804,62419.0
1.712,-0.4,0.127,107.666,62440.0
1.66,-0.531,0.605,80.078,62459.0
1.213,-0.363,0.246,84.656,62478.0
0.821,-0.237,0.002,93.872,62499.0
0.578,-0.05,-0.293,97.9,62517.0
0.31,0.1,-0.619,80.566,62536.0
0.136,0.165,-0.675,58.838,62558.0
0.016,0.209,-0.736,30.396,62576.0
-0.185,0.315,-0.864,-6.531,62596.0
-0.286,0.366,-0.791,-34.485,62616.0
-0.203,0.258,-0.559,-104.431,62636.0
0.071,0.168,-0.247,-125.671,62656.0
0.596,-0.071,0.226,-142.517,62676.0
1.362,-0.425,0.796,-134.094,62698.0
1.741,-0.598,0.964,-105.103,62717.0
1.804,-0.715,1.026,-65.063,62738.0
1.921,-0.701,0.872,-39.185,62760.0
2.17,-0.636,0.657,-10.62,62779.0
2.109,-0.595,0.475,34.79,62801.0
1.789,-0.444,0.255,86.792,62821.0
1.338,-0.353,0.192,106.934,62843.0
0.895,-0.264,0.063,103.271,62863.0
0.653,-0.238,-0.024,84.534,62882.0
0.649,-0.196,-0.188,66.589,62901.0
0.597,-0.106,-0.351,64.758,62921.0
0.477,-0.067,-0.445,72.876,62939.0
0.255,0.041,-0.555,64.27,62963.0
0.032,0.129,-0.692,28.625,62981.0
-0.18,0.138,-0.7,-20.142,62999.0
-0.192,0.157,-0.687,-85.266,63019.0
0.073,0.066,-0.271,-119.141,63037.0
0.401,-0.102,0.165,-119.263,63057.0
1.192,-0.349,0.52,-121.338,63079.0
1.654,-0.428,0.742,-100.952,63097.0
1.935,-0.623,0.945,-69.519,63118.0
1.827,-0.615,0.883,-39.062,63138.0
2.108,-0.635,0.788,-22.705,63158.0
2.388,-0.65,0.673,25.879,63179.0
2.054,-0.547,0.575,80.505,63199.0
1.499,-0.416,0.443,106.628,63220.0
1.076,-0.281,0.212,99.121,63238.0
1.01,-0.192,0.141,103.088,63259.0
0.556,-0.043,-0.157,102.417,63280.0
0.276,-0.01,-0.326,84.412,63298.0
0.136,-0.002,-0.441,63.843,63319.0
0.127,0.049,-0.59,50.903,63338.0
-0.083,0.179,-0.778,31.128,63357.0
-0.314,0.226,-0.774,-23.132,63379.0
-0.214,0.141,-0.517,-68.665,63399.0
0.091,-0.014,-0.217,-86.06,63417.0
0.427,-0.105,-0.071,-81.055,63436.0
0.833,-0.228,0.126,-81.238,63460.0
1.424,-0.508,0.502,-89.478,63479.0
2.247,-0.871,0.79,-81.238,63501.0
2.776,-1.037,0.934,-38.33,63522.0
2.759,-0.967,0.816,11.719,63542.0
2.225,-0.735,0.533,60.181,63562.0
1.571,-0.522,0.242,107.483,63583.0
1.083,-0.365,0.073,123.413,63603.0
0.555,-0.286,-0.001,121.765,63626.0
0.283,-0.235,-0.104,102.112,63644.0
0.121,-0.149,-0.306,68.481,63667.0
0.074,-0.109,-0.43,52.429,63686.0
0.043,0.027,-0.681,41.87,63706.0
-0.288,0.312,-1.053,21.729,63725.0
-0.379,0.287,-0.867,-27.1,63746.0
-0.321,0.189,-0.528,-95.703,63768.0
0.043,-0.057,0.013,-131.348,63788.0
0.454,-0.234,0.364,-129.883,63808.0
0.702,-0.366,0.7,-139.526,63830.0
1.877,-0.567,0.971,-198.059,63850.0
2.879,-0.818,1.076,-165.1,63869.0
2.789,-0.786,1.028,-74.28,63888.0
2.535,-0.61,0.764,-29.846,63906.0
2.189,-0.484,0.492,8.301,63924.0
1.886,-0.396,0.31,57.007,63943.0
1.577,-0.319,0.248,96.68,63961.0
0.964,-0.196,0.119,127.502,63984.0
0.513,-0.113,-0.029,124.39,64003.0
0.193,-0.077,-0.159,101.807,64021.0
0.111,-0.035,-0.332,65.918,64042.0
0.232,0.029,-0.503,49.744,64062.0
0.15,0.168,-0.723,45.593,64083.0
-0.117,0.312,-0.943,8.667,64101.0
-0.142,0.206,-0.676,-34.546,64120.0
0.074,0.115,-0.495,-65.857,64139.0
0.224,0.031,-0.229,-68.726,64157.0
0.439,-0.122,0.107,-69.58,64177.0
0.879,-0.268,0.474,-78.918,64196.0
1.581,-0.499,0.831,-83.74,64214.0
2.03,-0.701,1.137,-57.434,64235.0
2.268,-0.821,1.316,-42.725,64254.0
2.537,-0.832,1.228,-22.278,64274.0
2.285,-0.654,0.858,28.748,64294.0
1.812,-0.506,0.604,76.233,64312.0
1.206,-0.29,0.273,102.905,64332.0
0.701,-0.234,0.101,102.112,64351.0
0.35,-0.179,-0.039,82.703,64371.0
0.265,-0.105,-0.213,53.711,64395.0
0.323,-0.038,-0.372,43.762,64416.0
0.375,0.024,-0.508,54.81,64438.0
0.119,0.272,-0.877,53.467,64460.0
-0.225,0.379,-1.008,14.038,64480.0
-0.152,0.296,-0.732,-50.415,64502.0
0.077,0.124,-0.243,-71.96,64521.0
0.331,-0.093,0.14,-67.871,64539.0
0.641,-0.224,0.394,-54.443,64557.0
0.949,-0.317,0.75,-56.458,64575.0
1.924,-0.744,1.428,-82.642,64595.0
2.526,-0.894,1.476,-53.894,64614.0
2.501,-0.946,1.406,-6.47,64633.0
2.502,-0.812,1.025,46.814,64655.0
2.073,-0.664,0.762,104.004,64673.0
1.296,-0.463,0.482,146.545,64695.0
0.722,-0.287,0.164,146.606,64716.0
0.348,-0.171,-0.093,130.005,64737.0
0.131,-0.088,-0.319,97.9,64759.0
-0.025,-0.019,-0.51,59.021,64781.0
-0.093,0.001,-0.603,30.029,64801.0
-0.244,0.097,-0.742,-3.479,64821.0
-0.308,0.099,-0.637,-36.499,64842.0
-0.176,0.035,-0.218,-64.087,64860.0
0.357,-0.291,0.504,-80.139,64880.0
1.514,-0.805,1.257,-68.542,64905.0
2.168,-0.991,1.367,-44.983,64924.0
2.197,-1.183,1.351,-14.832,64947.0
2.227,-1.167,1.41,10.132,64966.0
1.97,-0.838,0.831,63.354,64986.0
1.522,-0.515,0.545,107.788,65008.0
0.924,-0.306,0.174,139.282,65027.0
0.383,-0.268,0.023,135.986,65048.0
0.044,-0.183,-0.213,96.558,65067.0
-0.037,-0.101,-0.497,53.406,65087.0
0.038,0.015,-0.712,16.113,65112.0
0.112,0.122,-0.838,-3.601,65132.0
0.231,0.045,-0.561,-2.136,65151.0
0.317,0.019,-0.361,14.587,65171.0
0.368,-0.27,0.276,39.551,65193.0
0.585,-0.567,0.799,48.889,65214.0
0.697,-0.935,1.304,18.86,65234.0
1.267,-1.39,1.725,-18.738,65253.0
1.721,-1.541,1.78,-12.329,65272.0
1.905,-1.4,1.741,12.756,65290.0
1.688,-1.192,1.522,72.083,65309.0
0.895,-0.844,1.227,113.953,65330.0
0.33,-0.59,0.479,87.952,65349.0
0.053,-0.502,0.243,72.083,65368.0
0.085,-0.381,-0.043,30.457,65386.0
0.138,-0.263,-0.338,11.047,65405.0
0.136,-0.091,-0.688,-13.611,65426.0
0.14,0.063,-0.948,-30.273,65448.0
0.147,0.106,-0.87,-47.729,65469.0
0.328,-0.058,-0.457,-36.682,65488.0
0.61,-0.161,-0.141,-0.183,65508.0
0.742,-0.377,0.243,45.227,65528.0
0.624,-0.605,0.688,71.411,65548.0
0.556,-1.062,1.353,26.001,65568.0
1.218,-1.674,2.374,-18.372,65587.0
1.527,-1.791,2.552,-11.902,65609.0
1.262,-1.366,1.878,15.015,65632.0
0.788,-0.945,1.152,40.466,65653.0
0.409,-0.69,0.567,51.27,65671.0
0.095,-0.496,0.09,32.654,65694.0
0.004,-0.423,-0.165,7.568,65714.0
0.043,-0.423,-0.208,-3.113,65738.0
0.049,-0.355,-0.353,8.484,65759.0
-0.008,-0.353,-0.391,14.587,65777.0
-0.09,-0.347,-0.308,-4.333,65796.0
0.115,-0.313,-0.421,-68.909,65817.0
0.15,-0.173,-0.452,-96.924,65838.0
0.133,-0.072,-0.609,-135.62,65856.0
0.249,-0.088,-0.371,-155.579,65874.0
0.792,-0.212,-0.041,-163.635,65893.0
1.357,-0.462,0.244,-118.164,65916.0
1.107,-0.583,0.376,-71.96,65936.0
0.888,-0.669,0.727,-65.918,65956.0
1.355,-0.823,0.95,-95.276,65976.0
1.948,-0.888,0.951,-67.627,65996.0
1.855,-0.909,0.952,-15.747,66015.0
1.526,-0.926,0.945,31.189,66037.0
1.242,-0.882,0.895,64.758,66057.0
0.75,-0.661,0.522,67.2,66081.0
0.588,-0.49,0.18,43.518,66100.0
0.398,-0.404,-0.011,28.564,66120.0
0.311,-0.192,-0.312,0.671,66142.0
0.374,-0.04,-0.525,-15.381,66163.0
0.419,0.037,-0.653,-13.0,66181.0
0.437,0.06,-0.654,-9.766,66202.0
0.294,-0.01,-0.459,-2.563,66222.0
0.36,-0.229,-0.015,-1.221,66246.0
0.603,-0.433,0.434,-0.183,66266.0
0.988,-0.853,1.122,-22.095,66286.0
1.327,-1.231,1.658,-25.146,66304.0
1.503,-1.326,1.593,0.305,66324.0
1.204,-1.15,1.212,33.691,66348.0
1.041,-1.054,0.967,42.175,66370.0
0.884,-0.857,0.729,40.283,66391.0
0.76,-0.556,0.38,28.87,66414.0
0.672,-0.357,0.086,20.63,66436.0
0.622,-0.255,-0.162,21.912,66456.0
0.634,-0.272,-0.261,26.367,66474.0
0.617,-0.321,-0.247,44.8,66495.0
0.584,-0.322,-0.251,60.303,66515.0
0.533,-0.29,-0.273,73.303,66534.0
0.468,-0.241,-0.309,76.416,66554.0
0.372,-0.17,-0.373,75.317,66578.0
0.398,-0.179,-0.35,67.749,66597.0
0.226,-0.127,-0.342,57.8,66617.0
0.094,-0.228,-0.017,26.123,66637.0
0.221,-0.64,0.767,-2.808,66656.0
0.441,-1.083,1.337,-30.457,66678.0
0.802,-1.299,1.484,-37.659,66697.0
1.31,-1.5,1.7,-1.77,66716.0
1.583,-1.663,1.989,26.855,66737.0
1.168,-1.515,1.758,57.068,66755.0
0.772,-1.303,1.528,69.763,66774.0
0.406,-0.875,0.908,60.12,66793.0
0.183,-0.563,0.328,50.049,66812.0
0.08,-0.41,0.036,25.818,66835.0
0.055,-0.296,-0.24,0.549,66857.0
0.152,-0.246,-0.389,-14.893,66875.0
0.312,-0.24,-0.419,-15.93,66896.0
0.424,-0.268,-0.459,1.953,66914.0
0.394,-0.258,-0.45,18.494,66932.0
0.248,-0.189,-0.468,18.433,66953.0
0.088,-0.165,-0.469,-12.573,66974.0
0.134,-0.485,0.101,-46.143,66996.0
0.025,-0.814,0.889,-66.895,67019.0
0.107,-1.173,1.495,-96.497,67037.0
0.163,-1.502,1.917,-147.034,67057.0
0.836,-1.442,1.792,-218.14,67078.0
1.312,-1.229,1.445,-193.909,67098.0
1.188,-0.886,0.84,-144.897,67120.0
0.878,-0.503,0.561,-121.46,67139.0
0.646,-0.036,0.014,-134.644,67160.0
0.911,0.029,-0.025,-141.968,67178.0
1.139,-0.08,0.01,-131.042,67198.0
1.325,-0.011,0.107,-106.201,67216.0
1.168,0.21,-0.143,-49.194,67236.0
1.174,0.297,-0.23,-18.555,67259.0
1.12,0.289,-0.097,19.775,67278.0
1.265,0.139,0.143,54.504,67300.0
1.397,0.051,0.189,122.009,67321.0
1.113,0.163,0.313,184.082,67339.0
0.737,-0.046,0.613,200.989,67360.0
0.54,-0.371,0.89,176.758,67380.0
0.439,-0.493,0.872,164.795,67399.0
0.311,-0.726,1.017,149.78,67418.0
0.286,-0.96,1.223,130.737,67437.0
0.188,-1.063,1.231,119.69,67458.0
-0.129,-1.05,1.11,89.783,67483.0
-0.462,-1.205,1.263,32.166,67502.0
-0.487,-1.234,1.402,-23.193,67522.0
-0.345,-1.106,1.318,-67.017,67541.0
-0.253,-1.01,1.165,-111.206,67562.0
0.176,-0.619,0.793,-186.096,67585.0
0.687,-0.315,0.329,-217.346,67603.0
1.046,-0.153,0.062,-239.441,67624.0
1.322,-0.12,0.017,-256.592,67647.0
1.432,0.024,-0.149,-183.716,67667.0
1.518,0.328,-0.526,-88.013,67689.0
1.894,0.555,-0.968,-1.16,67708.0
1.769,0.549,-0.806,91.675,67729.0
1.508,0.321,-0.392,159.302,67753.0
1.18,0.196,-0.107,222.961,67775.0
0.872,0.134,-0.039,270.813,67795.0
0.494,0.085,0.037,296.997,67815.0
0.102,-0.041,0.306,292.053,67833.0
-0.367,-0.384,0.731,232.239,67855.0
-0.612,-0.899,1.252,135.986,67879.0
-0.607,-1.292,1.672,67.627,67899.0
-0.529,-1.84,2.186,19.409,67918.0
-0.449,-1.876,2.138,-33.203,67939.0
-0.417,-1.462,1.639,-109.924,67961.0
-0.349,-0.97,1.165,-200.623,67981.0
0.088,-0.573,0.839,-249.268,68001.0
0.608,-0.339,0.35,-288.696,68019.0
1.054,0.109,0.268,-287.964,68037.0
2.067,0.312,-0.522,-263.672,68057.0
2.572,0.686,-1.209,-200.134,68076.0
2.365,0.862,-1.667,20.264,68095.0
1.705,0.404,-0.595,115.295,68113.0
0.872,0.256,-0.517,178.406,68134.0
0.413,0.186,-0.412,199.89,68154.0
0.155,0.062,-0.291,206.299,68173.0
-0.048,-0.077,-0.104,205.505,68192.0
-0.457,-0.224,0.311,196.838,68212.0
-1.437,-0.724,1.266,122.07,68234.0
-1.681,-1.885,2.602,16.174,68253.0
-0.696,-2.025,2.552,-146.301,68272.0
0.875,-1.74,1.744,-189.758,68290.0
0.92,-1.374,1.196,-170.166,68308.0
1.086,-1.092,0.969,-153.015,68330.0
1.004,-0.887,0.477,-111.816,68348.0
1.1,-0.379,0.345,-119.324,68367.0
1.398,-0.211,-0.439,-89.294,68386.0
1.606,0.059,-0.72,-28.442,68405.0
1.608,0.134,-0.88,42.786,68423.0
1.161,0.199,-0.867,105.652,68442.0
0.748,0.206,-0.69,140.625,68462.0
0.458,0.24,-0.73,142.883,68482.0
0.338,0.258,-0.732,133.24,68502.0
0.137,0.134,-0.393,128.906,68524.0
-0.155,-0.178,0.221,78.308,68546.0
-0.356,-0.48,0.818,41.748,68566.0
-0.243,-0.896,1.567,17.151,68589.0
-0.268,-1.556,2.187,-7.69,68607.0
0.123,-1.798,2.294,-100.281,68626.0
0.91,-1.643,1.896,-128.174,68646.0
1.105,-1.418,1.543,-96.069,68664.0
0.936,-1.193,1.268,-52.734,68683.0
0.606,-1.081,1.157,-18.372,68703.0
0.372,-0.824,0.568,-28.931,68723.0
0.354,-0.688,0.457,-29.48,68742.0
0.351,-0.565,0.146,-16.602,68763.0
0.227,-0.381,-0.153,-10.62,68782.0
0.22,-0.198,-0.397,-25.818,68801.0
0.442,-0.162,-0.566,-49.438,68820.0
0.756,-0.218,-0.565,-65.857,68838.0
1.09,-0.13,-0.637,-51.941,68857.0
1.172,-0.091,-0.721,-3.235,68876.0
1.133,-0.114,-0.615,28.381,68895.0
1.211,-0.253,-0.232,63.904,68919.0
1.164,-0.349,0.039,108.276,68937.0
0.948,-0.415,0.218,150.085,68955.0
0.691,-0.468,0.359,175.781,68973.0
0.303,-0.544,0.717,188.538,68993.0
-0.069,-0.686,0.911,182.8,69012.0
-0.354,-0.888,1.2,153.625,69031.0
-0.559,-1.155,1.444,86.914,69049.0
-0.472,-1.409,1.549,18.25,69069.0
-0.257,-1.382,1.406,-8.789,69087.0
-0.184,-1.187,1.054,-27.466,69112.0
-0.08,-1.081,0.853,-38.513,69130.0
0.023,-1.021,0.733,-44.861,69148.0
0.074,-0.933,0.597,-52.612,69166.0
0.124,-0.881,0.55,-62.561,69186.0
0.064,-0.947,0.749,-58.838,69205.0
-0.221,-0.888,0.573,-78.674,69225.0
-0.226,-0.718,0.456,-127.625,69245.0
-0.053,-0.644,0.439,-155.518,69264.0
0.349,-0.545,0.348,-177.979,69282.0
1.037,-0.522,0.137,-204.224,69304.0
1.321,-0.391,-0.024,-174.866,69324.0
1.176,-0.2,-0.228,-136.719,69344.0
1.581,-0.113,-0.443,-101.99,69364.0
2.085,-0.107,-0.499,-40.71,69382.0
1.962,-0.097,-0.328,106.079,69404.0
1.528,-0.033,-0.255,208.496,69424.0
0.83,-0.041,-0.059,263.672,69443.0
0.35,-0.141,0.209,267.639,69463.0
-0.143,-0.312,0.406,238.953,69482.0
-0.463,-0.574,0.689,186.523,69501.0
-0.453,-0.821,0.904,130.737,69519.0
-0.42,-0.953,0.966,92.712,69537.0
-0.516,-1.063,1.064,55.908,69555.0
-0.422,-1.144,1.102,22.278,69574.0
-0.269,-1.175,1.062,3.54,69592.0
-0.211,-1.18,1.032,-3.845,69611.0
-0.262,-1.213,1.065,-17.883,69630.0
-0.309,-1.164,1.015,-49.5,69650.0
-0.266,-1.07,0.956,-74.829,69671.0
-0.224,-1.001,0.919,-90.759,69690.0
-0.072,-0.932,0.793,-107.849,69714.0
0.125,-0.901,0.67,-129.456,69734.0
0.153,-0.81,0.687,-141.296,69753.0
0.479,-0.769,0.674,-162.72,69770.0
0.366,-0.65,0.461,-167.786,69789.0
0.524,-0.44,0.229,-187.5,69811.0
0.853,-0.35,-0.031,-189.331,69830.0
1.336,-0.253,-0.229,-158.264,69847.0
1.67,-0.18,-0.483,-97.656,69868.0
1.578,-0.033,-0.667,-27.039,69888.0
1.252,0.047,-0.678,22.949,69909.0
1.231,0.032,-0.583,41.321,69927.0
1.314,-0.041,-0.41,68.542,69945.0
1.269,-0.106,-0.238,127.319,69966.0
0.91,-0.155,-0.019,176.453,69987.0
0.601,-0.204,0.149,199.646,70006.0
0.267,-0.302,0.396,205.566,70026.0
0.12,-0.432,0.622,190.308,70045.0
0.017,-0.749,1.092,160.339,70066.0
-0.144,-1.053,1.465,139.648,70085.0
-0.313,-1.225,1.536,113.281,70106.0
-0.485,-1.232,1.42,81.299,70124.0
-0.503,-1.143,1.118,42.908,70142.0
-0.403,-1.016,0.901,19.897,70160.0
-0.29,-0.903,0.667,-1.282,70178.0
-0.109,-0.867,0.499,-19.287,70198.0
0.058,-0.884,0.497,-27.588,70217.0
0.094,-0.926,0.574,-34.546,70236.0
0.098,-0.98,0.677,-37.354,70255.0
0.176,-1.043,0.863,-29.602,70276.0
0.125,-1.099,0.879,-13.062,70296.0
-0.196,-1.078,1.04,-48.523,70315.0
-0.24,-0.994,0.893,-87.708,70335.0
-0.059,-0.921,0.793,-115.479,70355.0
0.163,-0.874,0.716,-129.578,70374.0
0.215,-0.698,0.39,-147.461,70394.0
0.208,-0.58,0.219,-177.124,70414.0
0.517,-0.475,0.042,-189.392,70434.0
0.804,-0.373,-0.219,-178.467,70452.0
1.119,-0.322,-0.36,-156.372,70473.0
1.282,-0.22,-0.504,-128.54,70494.0
1.217,-0.157,-0.651,-116.272,70512.0
1.35,-0.176,-0.578,-81.116,70534.0
1.347,-0.122,-0.576,-32.104,70555.0
1.342,-0.104,-0.539,33.752,70576.0
1.121,-0.064,-0.542,89.233,70596.0
0.967,-0.132,-0.369,124.878,70618.0
0.982,-0.201,-0.18,159.851,70640.0
0.735,-0.249,0.068,192.078,70658.0
0.309,-0.513,0.553,188.293,70681.0
-0.0,-0.744,0.938,181.274,70700.0
-0.288,-0.892,1.09,155.151,70718.0
-0.426,-0.957,1.164,110.901,70737.0
-0.309,-1.091,1.248,46.143,70756.0
-0.188,-1.042,1.044,3.54,70775.0
-0.028,-1.156,1.202,-15.991,70793.0
0.064,-0.995,0.812,-44.617,70815.0
0.36,-0.975,0.681,-36.377,70834.0
0.518,-0.932,0.601,-19.714,70855.0
0.205,-0.945,0.658,-7.263,70874.0
0.067,-0.966,0.754,-12.939,70892.0
0.083,-0.92,0.756,-24.841,70910.0
0.203,-1.0,0.936,-26.978,70930.0
0.129,-0.982,0.942,-41.931,70952.0
0.151,-1.112,1.146,-63.11,70972.0
0.151,-0.955,0.915,-96.191,70994.0
0.233,-0.764,0.636,-107.788,71014.0
0.432,-0.574,0.322,-122.681,71037.0
0.653,-0.452,0.019,-125.061,71058.0
0.713,-0.369,-0.167,-125.244,71077.0
0.755,-0.321,-0.271,-115.601,71100.0
0.805,-0.292,-0.315,-101.196,71119.0
0.783,-0.247,-0.346,-94.299,71139.0
0.853,-0.218,-0.334,-101.013,71160.0
1.155,-0.236,-0.337,-99.548,71182.0
1.383,-0.221,-0.385,-70.374,71201.0
1.47,-0.213,-0.416,-24.414,71219.0
1.275,-0.161,-0.435,26.794,71239.0
1.115,-0.194,-0.324,62.378,71259.0
1.112,-0.273,-0.124,96.558,71280.0
0.938,-0.348,0.041,137.695,71301.0
0.718,-0.451,0.228,158.264,71321.0
0.503,-0.629,0.534,156.433,71343.0
0.413,-0.803,0.76,152.954,71361.0
0.226,-0.918,0.867,141.113,71383.0
0.083,-0.983,0.934,106.14,71404.0
0.171,-1.054,0.907,86.365,71424.0
0.059,-0.959,0.672,82.642,71442.0
-0.023,-0.984,0.796,62.988,71462.0
-0.105,-0.984,0.783,29.297,71483.0
0.04,-1.026,0.797,1.648,71505.0
0.047,-0.968,0.794,-1.282,71523.0
-0.071,-0.98,0.898,-16.968,71542.0
-0.069,-1.063,0.94,-40.344,71563.0
0.023,-1.075,0.901,-57.129,71581.0
0.003,-0.985,0.835,-83.435,71599.0
0.148,-0.897,0.635,-112.061,71617.0
0.233,-0.769,0.454,-98.816,71635.0
0.484,-0.599,0.202,-132.874,71658.0
0.604,-0.549,0.022,-136.23,71679.0
0.727,-0.552,0.038,-129.944,71697.0
0.707,-0.385,-0.153,-139.709,71716.0
0.759,-0.279,-0.276,-146.179,71734.0
0.931,-0.229,-0.362,-143.982,71753.0
1.147,-0.168,-0.361,-123.779,71771.0
1.349,-0.052,-0.507,-89.722,71792.0
0.813,-0.104,-0.273,-67.444,71812.0
1.105,-0.022,-0.439,-89.294,71832.0
1.24,-0.038,-0.334,-72.205,71855.0
1.324,-0.042,-0.381,3.723,71875.0
1.552,0.001,-0.361,33.875,71895.0
1.921,-0.005,-0.325,39.062,71913.0
1.242,-0.205,-0.213,135.681,71935.0
0.989,-0.326,0.273,215.21,71955.0
0.509,-0.458,0.115,228.21,71973.0
0.29,-0.688,0.216,216.309,71991.0
0.072,-0.818,0.385,203.186,72011.0
-0.202,-1.002,0.426,153.748,72032.0
-0.071,-1.239,0.589,91.064,72052.0
0.119,-1.302,0.638,68.298,72072.0
0.231,-1.289,0.476,65.369,72091.0
0.176,-1.206,0.48,68.42,72111.0
0.087,-1.276,0.535,21.118,72131.0
0.116,-1.261,0.531,-14.404,72150.0
0.084,-1.332,0.754,-43.274,72170.0
-0.042,-1.295,0.737,-82.092,72190.0
0.037,-1.218,0.682,-110.901,72209.0
0.207,-0.997,0.468,-116.821,72229.0
0.326,-0.84,0.357,-122.009,72248.0
0.497,-0.74,0.229,-127.319,72270.0
0.561,-0.607,0.085,-135.803,72289.0
0.74,-0.489,0.034,-141.663,72309.0
0.886,-0.351,-0.149,-127.502,72328.0
0.995,-0.277,-0.254,-104.675,72348.0
1.017,-0.217,-0.323,-90.942,72369.0
1.044,-0.148,-0.403,-67.2,72389.0
1.095,-0.114,-0.392,-52.917,72408.0
1.068,-0.12,-0.365,-26.978,72429.0
1.008,-0.15,-0.355,-16.602,72448.0
0.985,-0.273,-0.21,-6.958,72469.0
1.075,-0.348,-0.163,6.714,72488.0
0.971,-0.316,-0.226,30.273,72510.0
1.037,-0.288,-0.261,34.363,72529.0
1.152,-0.282,-0.282,56.885,72550.0
1.062,-0.2,-0.353,93.75,72570.0
0.943,-0.171,-0.327,116.211,72592.0
0.732,-0.263,-0.209,121.521,72612.0
0.711,-0.462,0.031,130.31,72631.0
0.683,-0.609,0.209,159.363,72649.0
0.513,-0.677,0.321,205.566,72670.0
0.238,-0.766,0.424,228.943,72689.0
0.002,-0.826,0.454,228.821,72708.0
-0.269,-0.878,0.577,198.059,72727.0
-0.355,-1.087,0.706,123.779,72747.0
-0.285,-1.226,0.857,66.406,72765.0
-0.144,-1.275,0.922,11.963,72786.0
0.067,-1.292,0.836,-12.878,72808.0
0.183,-1.219,0.812,-21.118,72828.0
0.217,-1.047,0.647,-32.776,72850.0
0.31,-0.955,0.481,-42.664,72871.0
0.334,-0.954,0.541,-36.316,72890.0
0.307,-0.955,0.603,-21.545,72908.0
0.122,-1.107,0.96,-18.555,72928.0
-0.588,-1.29,1.243,-65.369,72946.0
-0.824,-1.183,1.201,-182.434,72965.0
-0.283,-0.911,0.948,-259.155,72984.0
0.323,-0.614,0.573,-258.423,73004.0
0.945,-0.389,0.271,-229.553,73024.0
1.092,-0.199,-0.051,-180.237,73044.0
0.984,0.057,-0.434,-167.358,73062.0
0.998,0.108,-0.497,-151.855,73084.0
1.086,0.172,-0.629,-111.511,73104.0
1.028,0.171,-0.645,-73.242,73122.0
0.977,0.142,-0.562,-46.997,73143.0
1.024,0.163,-0.639,-45.959,73162.0
1.134,0.138,-0.658,-38.025,73181.0
1.161,0.081,-0.659,-11.719,73201.0
1.168,0.046,-0.635,13.977,73221.0
1.162,-0.091,-0.437,47.729,73241.0
1.042,-0.168,-0.33,75.378,73259.0
0.941,-0.289,-0.091,103.821,73279.0
0.694,-0.464,0.222,126.648,73297.0
0.394,-0.653,0.458,120.178,73315.0
0.355,-0.981,0.844,86.304,73335.0
0.562,-1.403,1.288,59.448,73355.0
0.232,-0.455,-0.051,72.571,74491.0
0.227,-0.272,-0.399,36.194,74512.0
0.261,-0.185,-0.535,15.625,74531.0
0.238,-0.139,-0.606,4.211,74551.0
0.164,-0.137,-0.584,-2.258,74569.0
0.141,-0.148,-0.513,-26.245,74590.0
0.28,-0.201,-0.376,-49.133,74608.0
0.809,-0.449,-0.005,-68.359,74630.0
1.336,-0.716,0.276,-56.274,74652.0
1.775,-1.04,0.573,-31.372,74673.0
1.856,-1.267,0.807,23.926,74691.0
1.453,-1.195,0.733,61.829,74709.0
0.967,-0.947,0.415,57.8,74730.0
0.755,-0.761,0.178,32.349,74748.0
0.74,-0.65,0.004,17.029,74766.0
0.616,-0.485,-0.204,19.958,74786.0
0.433,-0.263,-0.466,25.513,74806.0
0.265,-0.07,-0.596,23.682,74826.0
0.122,0.125,-0.78,10.62,74844.0
0.037,0.16,-0.719,-6.287,74863.0
0.108,0.029,-0.486,-30.823,74883.0
0.368,-0.156,-0.157,-50.781,74903.0
1.564,-0.821,0.548,-78.308,74926.0
2.147,-1.298,0.858,-36.987,74944.0
2.115,-1.618,1.228,49.377,74965.0
1.469,-1.334,0.888,82.458,74986.0
1.074,-1.085,0.657,80.811,75005.0
0.824,-0.817,0.342,58.838,75025.0
0.677,-0.646,0.104,52.856,75044.0
0.476,-0.492,-0.12,47.668,75063.0
0.292,-0.314,-0.312,43.884,75085.0
0.123,-0.129,-0.546,36.255,75107.0
0.01,0.119,-0.841,13.733,75125.0
-0.151,0.231,-1.05,-2.563,75146.0
0.032,0.201,-0.714,-49.133,75166.0
0.325,-0.018,-0.344,-74.341,75186.0
0.846,-0.327,0.008,-102.722,75204.0
1.421,-0.74,0.421,-93.933,75223.0
1.916,-1.124,0.71,-60.73,75242.0
2.11,-1.391,0.971,2.136,75261.0
1.756,-1.467,1.08,84.29,75281.0
1.294,-1.228,0.805,98.328,75301.0
0.921,-0.925,0.488,90.149,75321.0
0.671,-0.691,0.133,74.402,75343.0
0.487,-0.511,-0.109,70.984,75363.0
0.26,-0.384,-0.292,65.796,75381.0
0.105,-0.255,-0.46,49.866,75401.0
0.003,-0.082,-0.674,27.405,75419.0
-0.102,0.027,-0.771,1.892,75437.0
-0.194,0.045,-0.701,-39.917,75455.0
-0.184,-0.048,-0.416,-84.473,75476.0
-0.032,-0.159,-0.128,-129.333,75494.0
1.372,-0.931,0.762,-197.754,75516.0
1.806,-1.333,0.871,-134.766,75536.0
1.73,-1.455,0.887,-72.021,75557.0
1.606,-1.211,0.579,-32.593,75575.0
1.525,-0.896,0.238,-8.362,75594.0
1.667,-0.738,0.058,7.751,75613.0
1.387,-0.537,-0.079,48.279,75633.0
0.932,-0.392,-0.199,79.895,75655.0
0.597,-0.224,-0.35,93.628,75677.0
0.353,-0.067,-0.537,90.82,75697.0
0.104,0.182,-0.83,66.406,75716.0
-0.159,0.49,-1.124,4.089,75738.0
-0.357,0.291,-0.565,-31.982,75758.0
-0.156,0.057,-0.271,-62.988,75777.0
-0.131,-0.151,0.146,-95.459,75797.0
0.734,-0.348,0.459,-199.585,75816.0
2.367,-1.059,0.804,-230.896,75836.0
2.602,-1.458,1.142,-40.039,75857.0
2.5,-1.507,1.048,30.273,75875.0
1.993,-1.327,0.841,95.337,75893.0
1.504,-1.014,0.744,120.972,75911.0
1.087,-0.775,0.429,115.662,75930.0
0.432,-0.49,0.067,91.492,75951.0
0.346,-0.337,-0.207,67.505,75971.0
0.221,-0.209,-0.375,56.641,75992.0
0.111,-0.037,-0.591,42.236,76013.0
-0.041,0.142,-0.8,33.447,76031.0
-0.293,0.335,-0.938,-7.874,76052.0
-0.131,0.253,-0.688,-57.8,76072.0
0.001,0.057,-0.182,-93.567,76090.0
1.049,-0.293,0.093,-177.063,76108.0
1.87,-0.733,0.339,-154.175,76126.0
2.19,-1.111,0.63,-79.529,76145.0
2.07,-1.295,0.767,23.926,76167.0
1.758,-1.123,0.594,83.374,76188.0
1.375,-0.875,0.347,105.408,76209.0
1.147,-0.762,0.242,107.422,76229.0
0.711,-0.621,0.107,104.065,76252.0
0.485,-0.507,-0.113,98.083,76274.0
0.42,-0.382,-0.287,98.206,76294.0
0.294,-0.224,-0.464,94.849,76312.0
-0.076,0.046,-0.77,68.237,76335.0
-0.272,0.246,-0.959,5.676,76354.0
-0.125,0.16,-0.638,-51.697,76375.0
0.167,-0.135,-0.145,-78.43,76393.0
0.759,-0.391,0.172,-105.957,76414.0
1.32,-0.78,0.426,-87.769,76432.0
1.643,-1.108,0.721,-57.373,76451.0
1.923,-1.508,1.203,13.55,76472.0
1.519,-1.542,1.276,69.946,76492.0
1.205,-1.43,1.149,87.036,76512.0
0.911,-1.144,0.876,79.529,76531.0
0.678,-0.927,0.554,67.749,76550.0
0.575,-0.7,0.18,60.059,76569.0
0.605,-0.686,0.153,60.852,76588.0
0.436,-0.534,-0.026,63.477,76609.0
0.201,-0.312,-0.27,41.992,76629.0
0.18,-0.143,-0.518,4.761,76651.0
0.222,0.001,-0.715,-27.466,76673.0
0.328,0.036,-0.781,-52.917,76693.0
0.427,0.127,-0.902,-73.975,76711.0
0.555,0.075,-0.714,-86.731,76731.0
0.632,-0.042,-0.468,-90.21,76749.0
0.681,-0.192,-0.123,-88.989,76769.0
1.019,-0.45,0.212,-96.985,76790.0
1.154,-0.599,0.349,-75.439,76808.0
1.192,-0.739,0.537,-49.377,76828.0
1.432,-0.944,0.711,-16.846,76848.0
1.598,-1.214,0.939,42.664,76869.0
1.501,-1.381,1.303,95.886,76892.0
0.998,-1.312,1.182,107.849,76911.0
0.812,-1.307,1.288,94.482,76934.0
0.548,-0.812,0.601,81.97,76955.0
0.416,-0.655,0.304,61.707,76976.0
0.321,-0.5,0.074,40.894,76996.0
0.267,-0.363,-0.223,16.113,77015.0
0.162,-0.175,-0.521,-4.944,77036.0
0.298,-0.03,-0.715,-26.917,77055.0
0.416,0.07,-0.861,-40.649,77079.0
0.473,0.15,-0.894,-54.993,77098.0
0.489,0.043,-0.618,-60.974,77118.0
0.564,-0.01,-0.433,-69.58,77137.0
0.643,-0.177,-0.095,-64.331,77155.0
0.953,-0.385,0.172,-73.792,77174.0
1.502,-0.823,0.556,-63.477,77193.0
1.716,-1.157,0.864,-7.202,77211.0
1.6,-1.407,1.189,70.129,77235.0
1.173,-1.398,1.173,113.403,77252.0
0.832,-1.4,1.27,95.337,77272.0
0.75,-1.085,0.863,68.542,77293.0
0.588,-0.832,0.403,56.03,77312.0
0.51,-0.738,0.207,46.814,77332.0
0.416,-0.591,-0.019,43.701,77352.0
0.375,-0.543,-0.11,34.729,77372.0
0.313,-0.433,-0.286,20.996,77391.0
0.461,-0.412,-0.359,6.958,77410.0
0.5,-0.325,-0.521,1.892,77431.0
0.577,-0.364,-0.494,0.671,77451.0
0.535,-0.361,-0.487,1.709,77471.0
0.542,-0.413,-0.402,2.38,77494.0
0.496,-0.382,-0.418,-0.366,77513.0
0.486,-0.367,-0.386,-6.531,77532.0
0.429,-0.395,-0.266,-4.639,77550.0
0.375,-0.438,-0.111,-13.977,77568.0
0.589,-0.509,0.052,-39.368,77589.0
1.133,-0.822,0.349,-19.348,77614.0
0.928,-0.882,0.485,5.249,77633.0
0.719,-0.995,0.703,13.794,77654.0
0.714,-1.037,0.715,13.184,77675.0
0.937,-1.131,0.805,24.902,77699.0
1.065,-1.323,1.043,48.279,77720.0
0.719,-1.229,0.954,62.012,77741.0
0.905,-1.409,1.361,71.35,77763.0
0.492,-0.939,0.647,72.266,77783.0
0.274,-0.721,0.347,42.725,77802.0
0.28,-0.585,0.091,7.935,77825.0
0.269,-0.451,-0.219,-8.667,77845.0
0.46,-0.516,-0.214,-16.235,77866.0
0.433,-0.382,-0.445,-17.334,77884.0
0.343,-0.185,-0.648,-33.203,77907.0
0.323,0.032,-0.893,-55.908,77925.0
0.423,0.14,-0.975,-57.373,77945.0
0.455,0.043,-0.705,-56.091,77964.0
0.522,-0.112,-0.419,-53.223,77983.0
1.105,-0.613,0.135,-62.317,78009.0
1.511,-1.245,0.876,-27.527,78031.0
1.614,-1.872,1.375,51.636,78051.0
1.062,-1.665,1.153,90.149,78072.0
0.722,-1.364,0.878,74.585,78091.0
0.633,-1.122,0.535,48.523,78109.0
0.617,-1.099,0.489,51.941,78128.0
0.412,-0.843,0.067,54.688,78150.0
0.331,-0.737,0.019,52.063,78169.0
0.136,-0.492,-0.296,28.564,78191.0
0.094,-0.336,-0.456,-0.244,78210.0
0.065,-0.082,-0.812,-31.982,78231.0
0.056,0.273,-1.214,-65.43,78253.0
0.219,0.347,-1.09,-78.491,78271.0
0.314,0.033,-0.462,-66.65,78290.0
0.48,-0.295,0.035,-58.838,78311.0
1.147,-0.683,0.419,-70.984,78332.0
1.562,-1.137,0.767,-40.466,78353.0
1.633,-1.461,1.067,14.282,78374.0
1.346,-1.642,1.532,70.312,78397.0
1.057,-1.576,1.175,94.604,78415.0
0.7,-1.287,0.99,88.928,78435.0
0.652,-1.099,0.736,77.942,78454.0
0.604,-1.101,0.714,94.543,78476.0
0.267,-0.847,0.424,87.708,78495.0
0.01,-0.6,0.065,46.082,78515.0
0.073,-0.445,-0.147,-0.488,78535.0
0.117,-0.203,-0.487,-28.87,78555.0
0.165,-0.03,-0.856,-50.11,78575.0
0.312,0.125,-1.105,-55.237,78595.0
0.348,0.175,-1.087,-46.265,78615.0
0.306,0.088,-0.876,-51.147,78633.0
0.41,-0.066,-0.503,-71.167,78653.0
0.829,-0.362,-0.108,-92.529,78673.0
1.13,-0.682,0.186,-76.416,78691.0
1.138,-0.893,0.405,-40.649,78710.0
1.295,-1.172,0.679,1.77,78733.0
1.333,-1.241,0.721,39.185,78752.0
1.099,-1.239,0.768,75.439,78773.0
0.756,-1.232,0.843,81.36,78791.0
0.428,-1.21,0.815,63.66,78811.0
0.417,-1.097,0.596,35.278,78833.0
0.352,-0.906,0.309,21.606,78853.0
0.231,-0.709,0.047,4.395,78871.0
0.145,-0.454,-0.33,-25.696,78891.0
0.276,-0.331,-0.47,-35.339,78910.0
0.341,-0.325,-0.392,-28.442,78929.0
0.325,-0.43,-0.152,-22.339,78947.0
0.213,-0.534,0.032,-23.376,78968.0
0.488,-0.582,0.154,-52.612,78987.0
1.042,-0.726,0.268,-57.8,79007.0
1.151,-0.854,0.362,-23.987,79029.0
1.001,-0.914,0.545,1.465,79049.0
0.973,-0.998,0.681,11.902,79067.0
0.964,-1.115,0.812,31.86,79085.0
1.041,-1.334,1.178,47.302,79103.0
0.953,-1.493,1.351,76.05,79125.0
0.443,-1.165,0.995,66.162,79145.0
0.268,-0.929,0.712,37.17,79165.0
0.113,-0.578,0.163,8.667,79185.0
0.124,-0.408,-0.181,-21.545,79203.0
0.215,-0.256,-0.441,-50.171,79225.0
0.388,-0.214,-0.554,-61.829,79244.0
0.463,-0.129,-0.707,-56.885,79265.0
0.446,0.07,-0.91,-58.105,79286.0
0.521,0.089,-0.812,-59.937,79305.0
0.66,-0.035,-0.507,-63.538,79324.0
0.715,-0.226,-0.174,-64.026,79344.0
0.877,-0.472,0.123,-58.533,79363.0
1.301,-0.808,0.422,-45.288,79383.0
1.594,-1.136,0.68,-9.521,79402.0
1.458,-1.334,0.972,50.72,79420.0
1.039,-1.452,1.224,97.29,79442.0
0.628,-1.221,0.928,86.06,79461.0
0.604,-1.065,0.741,52.612,79483.0
0.432,-0.897,0.409,36.682,79502.0
0.236,-0.708,0.127,12.146,79523.0
0.14,-0.52,-0.167,-16.479,79542.0
0.036,-0.195,-0.628,-59.631,79561.0
0.214,-0.13,-0.685,-69.092,79579.0
0.259,-0.16,-0.509,-60.242,79597.0
0.283,-0.279,-0.263,-53.406,79615.0
0.631,-0.481,0.093,-62.561,79636.0
1.145,-0.754,0.353,-60.73,79656.0
1.345,-0.939,0.502,-32.776,79677.0
1.293,-1.024,0.601,1.831,79698.0
1.441,-1.171,0.824,30.945,79719.0
1.417,-1.33,1.006,64.758,79738.0
0.854,-1.279,1.039,66.711,79757.0
0.423,-0.987,0.657,35.828,79775.0
0.134,-0.623,0.196,-1.282,79794.0
0.007,-0.029,-0.783,-59.448,79814.0
0.256,0.125,-1.087,-65.063,79832.0
0.402,0.102,-0.875,-21.606,79852.0
0.162,-0.114,-0.406,6.104,79872.0
0.352,-0.311,-0.021,-13.916,79893.0
1.046,-0.556,0.185,-41.992,79913.0
1.348,-0.816,0.354,-32.898,79933.0
1.349,-0.965,0.454,-5.92,79954.0
1.165,-0.985,0.493,18.494,79974.0
1.03,-0.93,0.413,33.081,79992.0
0.883,-0.882,0.389,41.26,80011.0
0.743,-0.835,0.35,41.138,80031.0
0.572,-0.784,0.313,32.471,80051.0
0.501,-0.736,0.238,16.785,80070.0
0.533,-0.703,0.161,3.967,80090.0
0.657,-0.67,0.073,5.615,80111.0
0.581,-0.627,0.017,7.69,80130.0
0.577,-0.606,0.006,1.343,80151.0
0.606,-0.597,-0.006,-6.592,80172.0
0.717,-0.632,0.035,-10.254,80192.0
0.78,-0.655,0.073,-6.531,80213.0
0.83,-0.69,0.108,-1.343,80232.0
0.774,-0.695,0.126,3.174,80251.0
0.785,-0.717,0.15,4.15,80271.0
0.748,-0.712,0.16,6.531,80289.0
0.723,-0.728,0.165,7.385,80309.0
0.689,-0.73,0.158,5.615,80328.0
0.694,-0.727,0.143,3.967,80347.0
0.656,-0.744,0.16,1.099,80366.0
0.683,-0.74,0.154,-2.136,80385.0
0.682,-0.724,0.154,-2.869,80406.0
0.708,-0.703,0.126,-4.211,80425.0
0.711,-0.702,0.14,-3.357,80446.0
0.718,-0.688,0.114,-1.831,80469.0
0.679,-0.685,0.124,-3.052,80489.0
0.682,-0.672,0.114,-6.897,80509.0
0.724,-0.684,0.12,-7.507,80529.0
0.754,-0.697,0.131,-6.348,80547.0
0.761,-0.717,0.153,-2.686,80568.0
0.751,-0.718,0.159,-0.244,80588.0
0.727,-0.703,0.159,0.61,80607.0
0.722,-0.692,0.15,0.488,80628.0
0.713,-0.687,0.141,0.183,80647.0
0.697,-0.682,0.144,-2.625,80667.0
0.717,-0.683,0.137,-4.395,80685.0
0.736,-0.689,0.147,-3.113,80707.0
0.711,-0.688,0.163,-1.831,80728.0
0.697,-0.693,0.177,-2.563,80747.0
0.708,-0.692,0.178,-4.517,80766.0
0.729,-0.688,0.177,-5.249,80787.0
0.752,-0.704,0.2,-5.493,80806.0
0.741,-0.709,0.214,-3.54,80826.0
0.748,-0.704,0.208,-4.089,80845.0
0.752,-0.69,0.191,-3.723,80865.0
0.76,-0.681,0.184,-3.967,80883.0
0.764,-0.68,0.195,-1.587,80904.0
0.762,-0.685,0.193,2.014,80923.0
0.776,-0.685,0.203,8.301,80943.0
0.834,-0.698,0.215,15.869,80963.0
0.84,-0.694,0.208,29.236,80981.0
0.779,-0.709,0.237,38.391,80999.0
0.738,-0.717,0.231,45.654,81017.0
0.72,-0.702,0.211,50.171,81035.0
0.677,-0.734,0.22,51.147,81053.0
0.632,-0.738,0.226,49.5,81071.0
0.595,-0.755,0.251,48.096,81091.0
0.582,-0.783,0.315,47.974,81112.0
0.479,-0.804,0.311,40.466,81131.0
0.42,-0.786,0.309,27.71,81149.0
0.467,-0.782,0.321,12.573,81170.0
0.498,-0.817,0.325,-0.244,81189.0
0.774,-1.012,0.531,-0.122,81208.0
0.749,-0.999,0.496,20.752,81231.0
0.582,-0.975,0.463,17.639,81250.0
0.657,-0.922,0.425,4.883,81274.0
0.746,-0.927,0.384,-1.404,81292.0
0.835,-0.954,0.425,13.367,81312.0
0.903,-0.952,0.4,21.79,81332.0
0.688,-0.838,0.128,27.283,81351.0
0.517,-0.645,-0.148,28.381,81375.0
0.436,-0.547,-0.374,29.602,81395.0
0.518,-0.482,-0.443,35.522,81417.0
0.178,-0.454,-0.453,35.278,81438.0
0.143,-0.406,-0.504,21.118,81458.0
0.034,-0.202,-0.746,-12.634,81481.0
0.037,-0.065,-0.873,-42.542,81501.0
0.161,-0.016,-0.837,-44.25,81519.0
0.059,-0.086,-0.525,-36.743,81539.0
-0.083,-0.188,-0.168,-50.842,81559.0
0.108,-0.417,0.42,-84.9,81584.0
1.328,-0.961,0.993,-134.155,81604.0
2.321,-1.499,1.126,-51.086,81623.0
1.327,-1.792,1.688,51.453,81645.0
0.649,-1.846,1.767,53.528,81668.0
0.295,-1.195,1.073,-13.489,81690.0
0.597,-0.924,0.572,-40.894,81710.0
0.648,-0.794,0.32,-22.766,81729.0
0.385,-0.566,0.068,-16.968,81748.0
0.243,-0.506,-0.039,-35.645,81770.0
0.303,-0.356,-0.253,-58.533,81790.0
0.478,-0.317,-0.314,-76.233,81808.0
0.627,-0.21,-0.505,-78.125,81826.0
0.698,-0.07,-0.701,-70.923,81845.0
0.773,0.096,-0.888,-55.847,81865.0
0.726,0.073,-0.686,-35.767,81884.0
0.776,-0.102,-0.351,-25.024,81905.0
0.75,-0.284,-0.064,-15.198,81925.0
0.938,-0.544,0.248,-16.602,81947.0
1.231,-0.844,0.545,-7.08,81965.0
1.603,-1.304,0.98,32.654,81985.0
1.397,-1.41,1.309,89.905,82005.0
0.785,-1.294,1.04,92.041,82023.0
0.652,-1.278,1.055,62.134,82042.0
0.549,-1.065,0.708,44.617,82061.0
0.466,-0.976,0.458,29.48,82082.0
0.341,-0.886,0.403,17.029,82102.0
0.214,-0.715,0.216,-0.427,82124.0
0.152,-0.582,0.047,-31.189,82143.0
0.338,-0.486,-0.079,-70.251,82166.0
0.461,-0.412,-0.192,-85.388,82184.0
0.663,-0.174,-0.458,-109.009,82207.0
0.931,-0.047,-0.67,-114.075,82227.0
1.179,0.068,-0.847,-87.708,82246.0
1.265,0.081,-0.779,-39.001,82265.0
1.134,-0.044,-0.563,0.61,82283.0
0.968,-0.134,-0.38,29.968,82304.0
0.774,-0.223,-0.228,45.227,82324.0
0.613,-0.364,-0.017,50.964,82346.0
0.452,-0.574,0.257,48.401,82369.0
0.578,-0.738,0.416,37.17,82387.0
0.737,-0.927,0.613,34.546,82407.0
0.787,-1.184,0.852,38.818,82427.0
0.661,-1.377,1.255,46.57,82446.0
0.508,-1.423,1.298,29.358,82465.0
0.589,-1.298,1.115,-0.122,82483.0
0.738,-1.135,0.856,-5.92,82503.0
0.64,-0.956,0.651,-12.634,82521.0
0.703,-0.842,0.5,-18.86,82541.0
0.647,-0.755,0.424,-19.165,82563.0
0.606,-0.636,0.292,-28.076,82581.0
0.57,-0.579,0.274,-43.64,82600.0
0.664,-0.372,-0.02,-61.096,82620.0
0.739,-0.211,-0.224,-68.97,82638.0
0.776,-0.002,-0.45,-63.232,82658.0
0.834,0.158,-0.757,-53.101,82676.0
0.882,0.288,-0.896,-42.236,82695.0
0.983,0.312,-0.895,-39.734,82717.0
1.143,0.183,-0.743,-28.076,82735.0
1.252,-0.038,-0.473,13.184,82759.0
1.174,-0.192,-0.323,60.181,82781.0
1.056,-0.327,-0.152,104.736,82803.0
0.923,-0.511,0.198,139.893,82823.0
0.593,-0.685,0.481,161.56,82843.0
0.271,-0.883,0.706,157.166,82864.0
0.059,-1.06,0.887,129.211,82885.0
-0.024,-1.17,0.968,84.717,82906.0
-0.039,-1.257,1.005,33.752,82928.0
0.096,-1.268,0.99,-5.005,82947.0
0.223,-1.165,0.837,-25.146,82967.0
0.279,-1.045,0.699,-32.227,82989.0
0.244,-0.953,0.609,-42.297,83008.0
0.294,-0.941,0.615,-62.012,83028.0
0.308,-0.922,0.64,-76.538,83048.0
0.428,-0.896,0.632,-100.281,83069.0
0.58,-0.882,0.643,-112.854,83088.0
0.619,-0.679,0.517,-124.878,83106.0
0.762,-0.49,0.264,-133.728,83129.0
0.81,-0.168,-0.113,-140.625,83149.0
0.91,-0.067,-0.241,-123.901,83168.0
1.008,0.104,-0.63,-116.638,83186.0
1.236,0.196,-0.759,-108.765,83206.0
1.197,0.075,-0.486,-62.195,83228.0
1.124,0.029,-0.451,-30.151,83249.0
1.123,-0.009,-0.469,-17.944,83267.0
1.023,0.01,-0.519,1.038,83287.0
0.945,0.028,-0.507,3.296,83308.0
1.003,0.038,-0.549,-5.31,83329.0
1.151,0.078,-0.672,-3.967,83349.0
1.258,0.026,-0.586,19.226,83367.0
1.263,-0.091,-0.39,65.063,83389.0
1.115,-0.228,-0.171,111.023,83409.0
0.847,-0.349,0.004,150.33,83430.0
0.549,-0.472,0.196,168.091,83449.0
0.374,-0.608,0.368,166.382,83467.0
0.187,-0.73,0.511,162.598,83487.0
-0.094,-0.863,0.673,131.409,83508.0
-0.184,-1.101,0.921,75.989,83530.0
0.025,-1.236,0.963,32.471,83549.0
0.276,-1.265,0.913,2.747,83568.0
0.365,-1.236,0.94,-13.794,83588.0
0.328,-1.114,0.81,-29.968,83607.0
0.419,-1.081,0.81,-44.739,83627.0
0.464,-0.952,0.672,-52.612,83645.0
0.531,-0.915,0.644,-65.247,83663.0
0.49,-1.007,0.787,-90.149,83683.0
0.392,-0.976,0.751,-124.939,83703.0
0.455,-0.914,0.742,-133.85,83723.0
0.508,-0.606,0.507,-132.263,83745.0
0.725,-0.411,0.189,-129.456,83764.0
0.901,-0.213,-0.225,-140.32,83785.0
0.927,-0.082,-0.28,-122.437,83808.0
0.917,-0.004,-0.309,-97.534,83827.0
1.02,0.004,-0.326,-78.247,83845.0
1.284,0.038,-0.374,-42.603,83865.0
1.168,0.226,-0.599,-14.404,83885.0
1.049,0.332,-0.768,3.174,83906.0
1.002,0.258,-0.615,22.4,83927.0
1.015,0.193,-0.529,23.315,83948.0
1.189,0.121,-0.626,22.827,83966.0
1.191,0.019,-0.527,35.522,83986.0
1.122,-0.053,-0.498,48.401,84006.0
1.043,-0.128,-0.431,54.871,84024.0
1.095,-0.251,-0.286,80.139,84046.0
1.111,-0.37,-0.146,113.403,84064.0
0.915,-0.454,0.038,157.898,84083.0
0.57,-0.515,0.3,188.721,84103.0
0.23,-0.653,0.487,191.833,84122.0
-0.101,-0.809,0.617,168.884,84142.0
-0.229,-0.965,0.754,130.188,84163.0
-0.227,-1.139,0.856,89.783,84181.0
0.07,-1.447,1.145,49.377,84201.0
0.377,-1.526,1.17,27.466,84221.0
0.334,-1.417,1.038,10.62,84240.0
0.249,-1.269,0.989,-17.578,84261.0
0.168,-1.191,0.896,-33.142,84280.0
0.171,-0.881,0.626,-80.505,84303.0
0.381,-0.832,0.509,-113.342,84325.0
0.36,-0.529,0.185,-130.066,84345.0
0.423,-0.536,0.204,-142.7,84364.0
0.828,-0.356,-0.156,-140.442,84384.0
0.881,-0.313,-0.101,-113.77,84402.0
0.716,-0.203,-0.26,-106.384,84423.0
0.734,-0.055,-0.347,-113.831,84442.0
1.006,-0.048,-0.375,-98.938,84464.0
0.965,-0.022,-0.331,-66.223,84483.0
0.955,-0.2,-0.174,-51.147,84505.0
0.963,-0.199,-0.214,-45.349,84523.0
1.06,-0.159,-0.25,-42.053,84542.0
1.161,-0.125,-0.301,-45.776,84561.0
1.38,-0.178,-0.286,-33.813,84582.0
1.417,-0.156,-0.297,-10.071,84602.0
1.354,-0.255,-0.067,11.475,84625.0
1.28,-0.382,-0.049,34.18,84643.0
1.151,-0.467,0.017,56.091,84665.0
0.984,-0.495,0.013,85.632,84686.0
0.831,-0.538,0.019,97.534,84705.0
0.78,-0.594,0.083,104.126,84725.0
0.572,-0.663,0.259,114.685,84744.0
0.413,-0.76,0.324,104.187,84764.0
0.305,-0.843,0.393,85.144,84784.0
0.295,-0.866,0.336,66.284,84805.0
0.331,-0.864,0.287,51.147,84825.0
0.296,-1.032,0.693,32.593,84845.0
0.278,-1.277,0.838,16.602,84866.0
-0.032,-1.387,0.92,-28.259,84886.0
0.116,-1.071,0.615,-94.299,84906.0
0.477,-0.787,0.399,-113.281,84927.0
0.711,-0.647,0.228,-99.915,84946.0
0.508,-0.579,0.311,-91.797,84966.0
0.466,-0.336,-0.008,-113.159,84984.0
0.975,-0.235,0.07,-144.958,85006.0
1.346,-0.14,-0.275,-111.206,85026.0
1.54,-0.104,-0.302,-77.087,85046.0
1.37,-0.117,-0.121,-24.292,85066.0
1.234,-0.098,-0.216,-4.456,85085.0
1.259,-0.063,-0.166,-14.526,85104.0
1.272,-0.135,-0.118,-5.493,85126.0
1.323,-0.21,-0.162,6.653,85146.0
1.326,-0.244,-0.114,42.969,85166.0
1.121,-0.354,0.054,87.036,85186.0
0.801,-0.479,0.188,109.009,85207.0
0.661,-0.479,0.305,111.633,85227.0
0.526,-0.69,0.349,112.183,85251.0
0.281,-0.75,0.589,94.666,85272.0
0.29,-0.779,0.237,75.317,85290.0
0.073,-0.755,0.342,72.571,85310.0
0.08,-0.818,0.414,20.447,85330.0
0.377,-0.981,0.659,-51.575,85350.0
0.548,-1.114,0.988,-84.778,85374.0
0.508,-1.013,0.821,-96.68,85394.0
0.579,-0.857,0.795,-131.775,85412.0
0.587,-0.689,0.604,-119.873,85433.0
0.625,-0.432,0.399,-126.282,85452.0
0.795,-0.263,-0.056,-142.09,85474.0
0.823,-0.083,-0.092,-237.244,85494.0
0.987,0.043,-0.25,-254.395,85516.0
1.241,0.087,-0.17,-245.605,85535.0
1.415,0.137,-0.052,-149.475,85553.0
1.242,0.149,-0.114,-60.242,85575.0
1.173,0.135,-0.044,-43.335,85594.0
1.143,0.213,-0.092,-44.678,85611.0
1.301,0.138,0.055,-97.046,85634.0
1.599,-0.033,0.45,-55.176,85652.0
1.444,-0.051,0.569,99.365,85671.0
1.157,-0.081,0.183,121.46,85692.0
0.942,-0.045,0.198,137.451,85711.0
0.935,-0.087,0.129,145.569,85731.0
0.935,-0.143,0.254,146.79,85751.0
0.866,-0.181,0.207,161.926,85769.0
0.744,-0.192,0.271,156.433,85790.0
0.555,-0.338,0.412,180.054,85810.0
0.861,-0.437,0.487,248.901,85832.0
0.046,-0.506,0.268,238.098,85853.0
0.373,-0.508,0.543,68.42,85871.0
0.271,-0.529,1.073,121.582,85893.0
0.582,-0.584,0.96,69.519,85912.0
0.557,-0.628,0.722,53.894,85931.0
0.748,-0.642,0.787,10.498,85951.0
0.554,-0.544,0.97,4.395,85973.0
0.536,-0.452,0.659,6.47,85994.0
0.695,-0.49,0.427,-21.118,86014.0
0.701,-0.427,0.382,-24.17,86035.0
0.706,-0.384,0.36,-31.494,86053.0
0.749,-0.408,0.333,-39.368,86072.0
0.778,-0.303,0.376,-36.926,86092.0
0.769,-0.329,0.388,-38.391,86111.0
0.913,-0.347,0.616,-53.65,86132.0
0.904,-0.379,0.817,-46.509,86152.0
0.836,-0.243,0.664,-0.916,86172.0
0.804,-0.327,0.393,10.01,86194.0
0.647,-0.28,0.452,-0.549,86214.0
0.691,-0.206,0.543,-24.841,86233.0
0.997,-0.168,0.667,-69.031,86254.0
1.058,-0.168,0.578,-30.396,86274.0
0.965,-0.235,0.422,-7.324,86293.0
0.813,-0.185,0.253,-13.672,86313.0
1.004,-0.205,0.329,-40.771,86334.0
1.019,-0.209,0.325,-29.358,86353.0
0.931,-0.189,0.16,-20.935,86371.0
0.964,-0.233,0.188,-35.095,86393.0
0.897,-0.172,0.4,-32.715,86411.0
0.838,-0.197,0.325,-29.053,86432.0
0.862,-0.156,0.331,-44.312,86451.0
1.027,-0.108,0.329,-47.302,86469.0
0.936,-0.062,0.231,-38.635,86487.0
1.047,-0.129,0.352,-53.284,86510.0
0.877,-0.057,0.406,-39.49,86529.0
1.069,-0.04,0.295,-50.476,86549.0
1.124,-0.015,0.365,-40.039,86569.0
0.954,-0.066,0.269,-22.461,86587.0
0.901,-0.028,0.464,-36.133,86607.0
0.875,-0.027,0.543,-46.692,86625.0
0.8,0.017,0.479,-31.616,86643.0
0.821,0.019,0.419,-57.068,86661.0
0.764,0.041,0.339,-29.541,86681.0
0.99,0.101,0.474,-50.842,86702.0
0.949,0.12,0.503,-28.625,86722.0
0.888,0.107,0.466,-65.186,86740.0
0.866,0.06,0.349,-27.222,86760.0
0.942,0.137,0.393,-38.879,86779.0
0.88,0.156,0.48,-8.118,86801.0
0.941,0.155,0.477,-33.63,86819.0
0.905,0.187,0.436,-11.719,86837.0
1.01,0.201,0.396,-33.875,86858.0
0.921,0.236,0.361,5.676,86878.0
0.916,0.177,0.417,-4.883,86900.0
0.887,0.161,0.367,15.076,86919.0
0.798,0.161,0.411,2.197,86939.0
