Acc_X,Acc_Y,Acc_Z,Rot_Z,Millis
-0.3,-0.005,-0.958,-0.183,233786
-0.3,-0.005,-0.958,-0.183,233790
-0.298,-0.004,-0.959,-0.183,233794
-0.298,-0.004,-0.959,-0.305,233798
-0.3,-0.005,-0.958,-0.305,233802
-0.3,-0.005,-0.958,-0.305,233806
-0.3,-0.005,-0.958,-0.183,233810
-0.3,-0.006,-0.958,-0.122,233814
-0.3,-0.006,-0.958,-0.244,233818
-0.299,-0.005,-0.959,-0.183,233822
-0.299,-0.005,-0.959,-0.183,233826
-0.299,-0.005,-0.959,-0.244,233830
-0.297,-0.005,-0.959,-0.244,233834
-0.297,-0.005,-0.959,-0.244,233838
-0.299,-0.007,-0.959,-0.244,233842
-0.299,-0.007,-0.959,-0.183,233846
-0.299,-0.007,-0.959,-0.183,233850
-0.298,-0.006,-0.959,-0.061,233854
-0.298,-0.006,-0.959,-0.244,233858
-0.296,-0.007,-0.96,-0.305,233862
-0.296,-0.007,-0.96,-0.183,233866
-0.296,-0.007,-0.96,-0.183,233870
-0.297,-0.009,-0.959,-0.122,233874
-0.297,-0.009,-0.959,-0.061,233878
-0.297,-0.005,-0.96,-0.183,233882
-0.297,-0.005,-0.96,-0.183,233886
-0.297,-0.005,-0.96,-0.183,233890
-0.297,-0.005,-0.958,-0.183,233894
-0.297,-0.005,-0.958,-0.183,233898
-0.297,-0.006,-0.959,-0.305,233902
-0.297,-0.006,-0.959,-0.244,233907
-0.296,-0.006,-0.959,-0.183,233911
-0.296,-0.006,-0.959,-0.183,233915
-0.296,-0.006,-0.959,-0.183,233919
-0.298,-0.006,-0.959,-0.183,233923
-0.298,-0.006,-0.959,-0.244,233927
-0.298,-0.007,-0.958,-0.183,233931
-0.298,-0.007,-0.958,-0.183,233935
-0.298,-0.007,-0.958,-0.122,233939
-0.298,-0.005,-0.958,-0.183,233943
-0.298,-0.005,-0.958,-0.244,233947
-0.298,-0.005,-0.959,-0.244,233951
-0.298,-0.005,-0.959,-0.244,233955
-0.298,-0.005,-0.959,-0.183,233959
-0.298,-0.005,-0.958,-0.183,233963
-0.298,-0.005,-0.958,-0.183,233967
-0.301,-0.004,-0.958,-0.122,233971
-0.301,-0.004,-0.958,-0.122,233975
-0.301,-0.004,-0.958,-0.122,233979
-0.299,-0.003,-0.958,-0.366,233983
-0.299,-0.003,-0.958,-0.427,233987
-0.299,-0.005,-0.957,-0.305,233991
-0.299,-0.005,-0.957,-0.305,233995
-0.299,-0.005,-0.957,-0.305,233999
-0.3,-0.005,-0.956,-0.305,234003
-0.3,-0.005,-0.956,-0.183,234007
-0.3,-0.006,-0.957,-0.122,234011
-0.3,-0.006,-0.957,-0.244,234015
-0.3,-0.006,-0.957,-0.244,234019
-0.3,-0.005,-0.957,-0.061,234023
-0.3,-0.005,-0.957,-0.183,234027
-0.301,-0.006,-0.956,-0.305,234031
-0.301,-0.006,-0.956,-0.183,234035
-0.301,-0.006,-0.956,-0.183,234039
-0.3,-0.005,-0.957,-0.244,234043
-0.3,-0.005,-0.957,-0.183,234047
-0.3,-0.005,-0.957,-0.244,234051
-0.3,-0.005,-0.957,-0.244,234055
-0.3,-0.007,-0.958,-0.122,234059
-0.3,-0.007,-0.958,-0.122,234063
-0.3,-0.007,-0.958,-0.305,234067
-0.3,-0.007,-0.957,-0.061,234071
-0.3,-0.007,-0.957,-0.183,234075
-0.301,-0.006,-0.957,-0.183,234079
-0.301,-0.006,-0.957,-0.183,234083
-0.301,-0.006,-0.957,-0.122,234087
-0.3,-0.007,-0.958,-0.305,234091
-0.3,-0.007,-0.958,-0.305,234096
-0.299,-0.005,-0.957,-0.183,234100
-0.299,-0.005,-0.957,-0.183,234104
-0.299,-0.005,-0.957,-0.122,234108
-0.3,-0.005,-0.958,-0.244,234112
-0.3,-0.005,-0.958,-0.183,234116
-0.299,-0.006,-0.958,-0.305,234120
-0.299,-0.006,-0.958,-0.305,234124
-0.299,-0.006,-0.958,-0.244,234128
-0.299,-0.008,-0.958,-0.122,234132
-0.299,-0.008,-0.958,-0.244,234136
-0.299,-0.007,-0.957,-0.305,234140
-0.299,-0.007,-0.957,-0.244,234144
-0.299,-0.007,-0.957,-0.244,234148
-0.299,-0.005,-0.957,-0.122,234152
-0.299,-0.005,-0.957,-0.183,234156
-0.298,-0.004,-0.959,-0.305,234160
-0.298,-0.004,-0.959,-0.122,234164
-0.298,-0.004,-0.959,-0.122,234168
-0.298,-0.006,-0.959,-0.183,234172
-0.298,-0.006,-0.959,-0.305,234176
-0.297,-0.004,-0.958,-0.305,234180
-0.297,-0.004,-0.958,-0.244,234184
-0.297,-0.004,-0.958,-0.244,234188
-0.297,-0.005,-0.96,-0.244,234192
-0.297,-0.005,-0.96,-0.305,234196
-0.296,-0.005,-0.96,-0.122,234200
-0.296,-0.005,-0.96,-0.122,234204
-0.297,-0.005,-0.96,-0.122,234208
-0.297,-0.005,-0.96,-0.122,234212
-0.297,-0.005,-0.96,-0.122,234216
-0.296,-0.005,-0.959,-0.183,234220
-0.296,-0.005,-0.959,-0.244,234224
-0.298,-0.005,-0.958,-0.183,234228
-0.298,-0.005,-0.958,-0.183,234232
-0.298,-0.005,-0.958,-0.183,234236
-0.3,-0.004,-0.96,-0.183,234240
-0.3,-0.004,-0.96,-0.244,234244
-0.297,-0.005,-0.959,-0.305,234248
-0.297,-0.005,-0.959,-0.305,234253
-0.297,-0.005,-0.959,-0.366,234257
-0.298,-0.005,-0.96,-0.305,234261
-0.298,-0.005,-0.96,-0.183,234265
-0.297,-0.006,-0.959,-0.244,234269
-0.297,-0.006,-0.959,-0.244,234273
-0.297,-0.006,-0.959,-0.244,234277
-0.299,-0.005,-0.958,-0.244,234281
-0.299,-0.005,-0.958,-0.122,234285
-0.298,-0.007,-0.957,-0.305,234289
-0.298,-0.007,-0.957,-0.183,234293
-0.298,-0.007,-0.957,-0.183,234297
-0.299,-0.005,-0.958,-0.244,234301
-0.299,-0.005,-0.958,-0.183,234305
-0.3,-0.005,-0.958,-0.183,234309
-0.3,-0.005,-0.958,-0.183,234313
-0.3,-0.005,-0.958,-0.183,234317
-0.3,-0.007,-0.958,-0.183,234321
-0.3,-0.007,-0.958,-0.183,234325
-0.3,-0.007,-0.957,-0.244,234329
-0.3,-0.007,-0.957,-0.244,234333
-0.3,-0.007,-0.957,-0.244,234337
-0.3,-0.005,-0.957,-0.244,234341
-0.3,-0.005,-0.957,-0.183,234345
-0.301,-0.007,-0.956,-0.122,234349
-0.301,-0.007,-0.956,-0.183,234353
-0.301,-0.007,-0.959,-0.305,234357
-0.301,-0.007,-0.959,-0.305,234361
-0.301,-0.007,-0.959,-0.366,234365
-0.301,-0.007,-0.957,-0.366,234369
-0.301,-0.007,-0.957,-0.305,234373
-0.302,-0.006,-0.957,-0.122,234377
-0.302,-0.006,-0.957,-0.122,234381
-0.302,-0.006,-0.957,-0.183,234385
-0.301,-0.005,-0.958,-0.183,234389
-0.301,-0.005,-0.958,-0.244,234393
-0.299,-0.007,-0.957,-0.244,234397
-0.299,-0.007,-0.957,-0.244,234401
-0.299,-0.007,-0.957,-0.183,234405
-0.3,-0.005,-0.958,-0.244,234409
-0.3,-0.005,-0.958,-0.244,234413
-0.299,-0.004,-0.959,-0.122,234417
-0.299,-0.004,-0.959,-0.122,234421
-0.299,-0.004,-0.959,-0.122,234425
-0.298,-0.004,-0.959,-0.183,234429
-0.298,-0.004,-0.959,-0.305,234433
-0.297,-0.004,-0.957,-0.183,234438
-0.297,-0.004,-0.957,-0.122,234442
-0.297,-0.004,-0.957,-0.122,234446
-0.299,-0.005,-0.958,-0.122,234450
-0.299,-0.005,-0.958,-0.244,234454
-0.299,-0.006,-0.959,-0.183,234458
-0.299,-0.006,-0.959,-0.183,234462
-0.299,-0.006,-0.959,-0.183,234466
-0.298,-0.004,-0.96,-0.122,234470
-0.298,-0.004,-0.96,-0.183,234474
-0.296,-0.005,-0.958,-0.244,234478
-0.296,-0.005,-0.958,-0.183,234482
-0.296,-0.005,-0.958,-0.183,234486
-0.297,-0.005,-0.958,-0.183,234490
-0.297,-0.005,-0.958,-0.183,234494
-0.297,-0.006,-0.958,-0.244,234498
-0.297,-0.006,-0.958,-0.305,234502
-0.295,-0.005,-0.96,-0.183,234506
-0.295,-0.005,-0.96,-0.183,234510
-0.295,-0.005,-0.96,-0.305,234514
-0.297,-0.005,-0.96,-0.305,234518
-0.297,-0.005,-0.96,-0.244,234522
-0.298,-0.006,-0.961,-0.183,234526
-0.298,-0.006,-0.961,-0.183,234530
-0.298,-0.006,-0.961,-0.183,234534
-0.296,-0.005,-0.958,-0.183,234538
-0.296,-0.005,-0.958,-0.183,234542
-0.298,-0.007,-0.959,-0.305,234546
-0.298,-0.007,-0.959,-0.305,234550
-0.298,-0.007,-0.959,-0.427,234554
-0.298,-0.006,-0.959,-0.427,234558
-0.298,-0.006,-0.959,-0.183,234562
-0.298,-0.007,-0.959,-0.183,234566
-0.298,-0.007,-0.959,0.0,234570
-0.298,-0.007,-0.959,0.0,234574
-0.297,-0.007,-0.958,0.061,234578
-0.297,-0.007,-0.958,-0.305,234582
-0.298,-0.007,-0.958,-0.305,234586
-0.298,-0.007,-0.958,-0.183,234590
-0.298,-0.007,-0.958,-0.183,234594
-0.298,-0.005,-0.959,-0.244,234598
-0.298,-0.005,-0.959,-0.183,234602
-0.299,-0.006,-0.958,-0.305,234606
-0.299,-0.006,-0.958,-0.183,234610
-0.299,-0.006,-0.958,-0.183,234614
-0.301,-0.007,-0.958,-0.244,234618
-0.301,-0.007,-0.958,-0.305,234622
-0.301,-0.005,-0.958,-0.244,234626
-0.301,-0.005,-0.958,-0.183,234631
-0.301,-0.005,-0.958,-0.183,234635
-0.298,-0.005,-0.956,-0.183,234639
-0.298,-0.005,-0.956,-0.244,234643
-0.3,-0.006,-0.957,-0.183,234647
-0.3,-0.006,-0.957,-0.183,234651
-0.301,-0.006,-0.958,-0.122,234655
-0.301,-0.006,-0.958,-0.122,234659
-0.301,-0.006,-0.958,-0.122,234663
-0.3,-0.005,-0.957,-0.244,234667
-0.3,-0.005,-0.957,-0.244,234671
-0.3,-0.004,-0.957,-0.183,234675
-0.3,-0.004,-0.957,-0.183,234679
-0.3,-0.004,-0.957,-0.244,234683
-0.301,-0.005,-0.956,-0.183,234687
-0.301,-0.005,-0.956,-0.244,234691
-0.299,-0.005,-0.957,-0.244,234695
-0.299,-0.005,-0.957,-0.244,234699
-0.299,-0.005,-0.957,-0.183,234703
-0.3,-0.004,-0.957,-0.183,234707
-0.3,-0.004,-0.957,-0.122,234711
-0.3,-0.005,-0.956,-0.122,234715
-0.3,-0.005,-0.956,-0.122,234719
-0.3,-0.005,-0.956,-0.122,234723
-0.3,-0.003,-0.957,-0.244,234727
-0.3,-0.003,-0.957,-0.122,234731
-0.3,-0.006,-0.958,0.0,234735
-0.3,-0.006,-0.958,-0.244,234739
-0.3,-0.006,-0.958,-0.244,234743
-0.298,-0.006,-0.958,-0.366,234747
-0.298,-0.006,-0.958,-0.122,234751
-0.297,-0.005,-0.957,-0.061,234755
-0.297,-0.005,-0.957,-0.244,234759
-0.297,-0.005,-0.957,-0.244,234763
-0.297,-0.004,-0.958,-0.244,234767
-0.297,-0.004,-0.958,-0.183,234771
-0.299,-0.005,-0.958,-0.244,234775
-0.299,-0.005,-0.958,-0.183,234779
-0.299,-0.005,-0.958,-0.183,234783
-0.298,-0.004,-0.959,-0.061,234787
-0.298,-0.004,-0.959,-0.122,234791
-0.297,-0.005,-0.957,-0.244,234795
-0.297,-0.005,-0.957,-0.305,234799
-0.298,-0.005,-0.958,-0.244,234803
-0.298,-0.005,-0.958,-0.244,234807
-0.298,-0.005,-0.958,-0.183,234811
-0.297,-0.007,-0.96,-0.122,234816
-0.297,-0.007,-0.96,-0.122,234820
-0.296,-0.007,-0.96,-0.305,234824
-0.296,-0.007,-0.96,-0.305,234828
-0.296,-0.007,-0.96,-0.244,234832
-0.296,-0.007,-0.96,-0.183,234836
-0.296,-0.007,-0.96,-0.061,234840
-0.297,-0.007,-0.958,-0.305,234844
-0.297,-0.007,-0.958,-0.305,234848
-0.297,-0.007,-0.958,-0.244,234852
-0.296,-0.007,-0.958,-0.244,234856
-0.296,-0.007,-0.958,-0.244,234860
-0.297,-0.004,-0.959,-0.244,234864
-0.297,-0.004,-0.959,-0.305,234868
-0.297,-0.004,-0.959,-0.305,234872
-0.296,-0.005,-0.961,-0.366,234876
-0.296,-0.005,-0.961,-0.183,234880
-0.297,-0.005,-0.961,-0.183,234884
-0.297,-0.005,-0.961,-0.244,234888
-0.297,-0.005,-0.961,-0.244,234892
-0.299,-0.005,-0.959,-0.244,234896
-0.299,-0.005,-0.959,-0.305,234900
-0.299,-0.006,-0.958,-0.183,234904
-0.299,-0.006,-0.958,-0.122,234908
-0.299,-0.006,-0.958,-0.122,234912
-0.298,-0.006,-0.959,-0.244,234916
-0.298,-0.006,-0.959,-0.244,234920
-0.297,-0.004,-0.96,-0.244,234924
-0.297,-0.004,-0.96,-0.305,234928
-0.297,-0.004,-0.96,-0.305,234932
-0.299,-0.004,-0.958,-0.183,234936
-0.299,-0.004,-0.958,-0.122,234940
-0.299,-0.006,-0.957,-0.183,234944
-0.299,-0.006,-0.957,-0.305,234948
-0.3,-0.005,-0.959,-0.244,234952
-0.3,-0.005,-0.959,-0.244,234956
-0.3,-0.005,-0.959,-0.244,234960
-0.3,-0.004,-0.958,-0.305,234964
-0.3,-0.004,-0.958,-0.244,234968
-0.3,-0.005,-0.958,-0.244,234972
-0.3,-0.005,-0.958,-0.244,234976
-0.3,-0.005,-0.958,-0.183,234980
-0.3,-0.005,-0.958,-0.183,234985
-0.3,-0.005,-0.958,-0.183,234989
-0.3,-0.003,-0.958,-0.183,234993
-0.3,-0.003,-0.958,-0.183,234997
-0.3,-0.003,-0.958,-0.183,235001
-0.3,-0.005,-0.958,-0.244,235005
-0.3,-0.005,-0.958,-0.305,235009
-0.3,-0.005,-0.958,-0.183,235013
-0.3,-0.005,-0.958,-0.122,235017
-0.3,-0.005,-0.958,-0.122,235021
-0.299,-0.005,-0.956,-0.183,235025
-0.299,-0.005,-0.956,-0.305,235029
-0.298,-0.005,-0.958,-0.122,235033
-0.298,-0.005,-0.958,-0.122,235037
-0.298,-0.005,-0.958,-0.122,235041
-0.299,-0.006,-0.957,-0.244,235045
-0.299,-0.006,-0.957,-0.183,235049
-0.299,-0.007,-0.959,-0.183,235053
-0.299,-0.007,-0.959,-0.183,235057
-0.299,-0.007,-0.959,-0.183,235061
-0.299,-0.006,-0.958,-0.183,235065
-0.299,-0.006,-0.958,-0.122,235069
-0.298,-0.006,-0.959,-0.305,235073
-0.298,-0.006,-0.959,-0.183,235077
-0.3,-0.006,-0.959,-0.305,235081
-0.3,-0.006,-0.959,-0.305,235085
-0.3,-0.006,-0.959,-0.183,235089
-0.299,-0.006,-0.958,-0.183,235093
-0.299,-0.006,-0.958,-0.122,235097
-0.296,-0.006,-0.958,-0.183,235101
-0.296,-0.006,-0.958,-0.183,235105
-0.296,-0.006,-0.958,-0.122,235109
-0.299,-0.006,-0.958,-0.183,235113
-0.299,-0.006,-0.958,-0.183,235117
-0.298,-0.006,-0.958,-0.061,235121
-0.298,-0.006,-0.958,-0.061,235125
-0.298,-0.006,-0.958,-0.183,235129
-0.297,-0.006,-0.958,-0.122,235133
-0.297,-0.006,-0.958,-0.244,235137
-0.298,-0.004,-0.96,-0.122,235141
-0.298,-0.004,-0.96,-0.122,235145
-0.298,-0.004,-0.96,-0.122,235149
-0.298,-0.006,-0.961,-0.183,235153
-0.298,-0.006,-0.961,-0.183,235157
-0.298,-0.006,-0.958,-0.122,235161
-0.298,-0.006,-0.958,-0.183,235166
-0.298,-0.006,-0.958,-0.183,235170
-0.296,-0.006,-0.959,-0.183,235174
-0.296,-0.006,-0.959,-0.244,235178
-0.298,-0.004,-0.959,-0.244,235182
-0.298,-0.004,-0.959,-0.244,235186
-0.298,-0.004,-0.959,-0.244,235190
-0.298,-0.005,-0.958,-0.183,235194
-0.298,-0.005,-0.958,0.0,235198
-0.296,-0.006,-0.958,-0.122,235202
-0.296,-0.006,-0.958,-0.244,235206
-0.296,-0.006,-0.958,-0.244,235210
-0.299,-0.005,-0.957,-0.427,235214
-0.299,-0.005,-0.957,-0.244,235218
-0.299,-0.006,-0.958,-0.183,235222
-0.299,-0.006,-0.958,-0.122,235226
-0.298,-0.004,-0.958,-0.244,235230
-0.298,-0.004,-0.958,-0.244,235234
-0.298,-0.004,-0.958,-0.122,235238
-0.299,-0.004,-0.958,-0.244,235242
-0.299,-0.004,-0.958,-0.183,235246
-0.3,-0.006,-0.958,-0.244,235250
-0.3,-0.006,-0.958,-0.244,235254
-0.3,-0.006,-0.958,-0.122,235258
-0.302,-0.006,-0.957,-0.244,235262
-0.302,-0.006,-0.957,-0.244,235266
-0.299,-0.005,-0.959,-0.122,235270
-0.299,-0.005,-0.959,-0.122,235274
-0.299,-0.005,-0.959,-0.183,235278
-0.3,-0.004,-0.957,-0.305,235282
-0.3,-0.004,-0.957,-0.244,235286
-0.299,-0.006,-0.958,-0.061,235290
-0.299,-0.006,-0.958,-0.061,235294
-0.299,-0.006,-0.958,-0.183,235298
-0.299,-0.007,-0.957,-0.244,235302
-0.299,-0.007,-0.957,-0.183,235306
-0.3,-0.007,-0.958,-0.244,235310
-0.3,-0.007,-0.958,-0.183,235314
-0.3,-0.007,-0.958,-0.183,235318
-0.298,-0.005,-0.958,-0.183,235322
-0.298,-0.005,-0.958,-0.122,235326
-0.299,-0.005,-0.958,-0.183,235330
-0.299,-0.005,-0.958,-0.122,235335
-0.299,-0.005,-0.958,-0.122,235339
-0.299,-0.006,-0.958,-0.122,235343
-0.299,-0.006,-0.958,-0.244,235347
-0.299,-0.005,-0.958,-0.183,235351
-0.299,-0.005,-0.958,-0.183,235355
-0.299,-0.005,-0.958,-0.183,235359
-0.299,-0.005,-0.958,-0.183,235363
-0.299,-0.005,-0.958,-0.244,235367
-0.3,-0.006,-0.958,-0.244,235371
-0.3,-0.006,-0.958,-0.244,235375
-0.3,-0.005,-0.957,-0.244,235379
-0.3,-0.005,-0.957,-0.244,235383
-0.3,-0.005,-0.957,-0.183,235387
-0.299,-0.003,-0.958,-0.183,235391
-0.299,-0.003,-0.958,-0.244,235395
-0.298,-0.004,-0.959,-0.244,235399
-0.298,-0.004,-0.959,-0.244,235403
-0.298,-0.004,-0.959,-0.244,235407
-0.297,-0.004,-0.958,-0.305,235411
-0.297,-0.004,-0.958,-0.183,235415
-0.299,-0.004,-0.959,-0.122,235419
-0.299,-0.004,-0.959,-0.122,235423
-0.299,-0.004,-0.959,-0.122,235427
-0.3,-0.005,-0.958,-0.061,235431
-0.3,-0.005,-0.958,-0.061,235435
-0.297,-0.004,-0.958,-0.122,235439
-0.297,-0.004,-0.958,-0.183,235443
-0.297,-0.004,-0.958,-0.183,235447
-0.296,-0.005,-0.959,-0.183,235451
-0.296,-0.005,-0.959,-0.183,235455
-0.297,-0.005,-0.959,-0.244,235459
-0.297,-0.005,-0.959,-0.305,235463
-0.297,-0.005,-0.959,-0.305,235467
-0.298,-0.004,-0.959,-0.244,235471
-0.298,-0.004,-0.959,-0.122,235475
-0.296,-0.003,-0.958,-0.183,235479
-0.296,-0.003,-0.958,-0.244,235483
-0.296,-0.003,-0.958,-0.244,235488
-0.298,-0.003,-0.958,-0.427,235492
-0.298,-0.003,-0.958,-0.427,235496
-0.297,-0.006,-0.959,-0.061,235500
-0.297,-0.006,-0.959,-0.122,235504
-0.297,-0.005,-0.96,-0.244,235508
-0.297,-0.005,-0.96,-0.244,235512
-0.297,-0.005,-0.96,-0.305,235516
-0.3,-0.005,-0.96,-0.122,235520
-0.3,-0.005,-0.96,-0.183,235524
-0.299,-0.007,-0.96,-0.244,235528
-0.299,-0.007,-0.96,-0.244,235532
-0.299,-0.007,-0.96,-0.183,235536
-0.299,-0.006,-0.959,-0.305,235540
-0.299,-0.006,-0.959,-0.305,235544
-0.299,-0.005,-0.958,-0.122,235548
-0.299,-0.005,-0.958,-0.122,235552
-0.299,-0.005,-0.958,-0.305,235556
-0.297,-0.007,-0.957,-0.244,235560
-0.297,-0.007,-0.957,-0.244,235564
-0.299,-0.007,-0.957,-0.122,235568
-0.299,-0.007,-0.957,-0.122,235572
-0.299,-0.007,-0.957,-0.183,235576
-0.299,-0.005,-0.957,-0.122,235580
-0.299,-0.005,-0.957,-0.122,235584
-0.3,-0.006,-0.959,-0.183,235588
-0.3,-0.006,-0.959,-0.244,235592
-0.3,-0.006,-0.959,-0.244,235596
-0.299,-0.007,-0.959,-0.061,235600
-0.299,-0.007,-0.959,-0.061,235604
-0.299,-0.007,-0.958,-0.122,235608
-0.299,-0.007,-0.958,-0.061,235612
-0.299,-0.007,-0.958,-0.061,235616
-0.3,-0.006,-0.959,-0.122,235620
-0.3,-0.006,-0.959,-0.305,235624
-0.3,-0.007,-0.959,-0.183,235628
-0.3,-0.007,-0.959,-0.305,235632
-0.3,-0.007,-0.959,-0.305,235636
-0.3,-0.006,-0.957,-0.305,235640
-0.3,-0.006,-0.957,-0.122,235644
-0.302,-0.007,-0.956,-0.244,235648
-0.302,-0.007,-0.956,-0.183,235652
-0.3,-0.006,-0.956,-0.061,235656
-0.3,-0.006,-0.956,-0.061,235660
-0.3,-0.006,-0.956,-0.183,235664
-0.3,-0.005,-0.959,-0.366,235669
-0.3,-0.005,-0.959,-0.305,235673
-0.299,-0.006,-0.957,-0.183,235677
-0.299,-0.006,-0.957,-0.183,235681
-0.299,-0.006,-0.957,-0.244,235685
-0.299,-0.005,-0.957,-0.122,235689
-0.299,-0.005,-0.957,-0.183,235693
-0.299,-0.005,-0.957,-0.305,235697
-0.299,-0.005,-0.957,-0.305,235701
-0.299,-0.005,-0.957,-0.183,235705
-0.3,-0.005,-0.959,-0.183,235709
-0.3,-0.005,-0.959,-0.305,235713
-0.299,-0.005,-0.958,-0.427,235717
-0.299,-0.005,-0.958,-0.427,235721
-0.299,-0.005,-0.958,-0.183,235725
-0.297,-0.005,-0.96,-0.122,235729
-0.297,-0.005,-0.96,-0.183,235733
-0.298,-0.005,-0.959,-0.061,235737
-0.298,-0.005,-0.959,-0.244,235741
-0.298,-0.005,-0.959,-0.244,235745
-0.298,-0.005,-0.957,-0.305,235749
-0.298,-0.005,-0.957,-0.183,235753
-0.299,-0.005,-0.959,-0.305,235757
-0.299,-0.005,-0.959,-0.244,235761
-0.299,-0.005,-0.959,-0.244,235765
-0.298,-0.005,-0.959,-0.183,235769
-0.298,-0.005,-0.959,-0.183,235773
-0.297,-0.007,-0.957,-0.061,235777
-0.297,-0.007,-0.957,-0.244,235781
-0.297,-0.007,-0.957,-0.244,235785
-0.298,-0.006,-0.959,-0.305,235789
-0.298,-0.006,-0.959,-0.244,235793
-0.298,-0.006,-0.96,-0.305,235797
-0.298,-0.006,-0.96,-0.183,235801
-0.297,-0.006,-0.961,-0.122,235805
-0.297,-0.006,-0.961,-0.122,235809
-0.297,-0.006,-0.961,-0.305,235813
-0.298,-0.007,-0.959,-0.305,235817
-0.298,-0.007,-0.959,-0.305,235821
-0.297,-0.005,-0.96,-0.183,235825
-0.297,-0.005,-0.96,-0.183,235829
-0.297,-0.005,-0.96,-0.244,235833
-0.298,-0.006,-0.959,-0.122,235837
-0.298,-0.006,-0.959,-0.122,235841
-0.299,-0.006,-0.959,-0.305,235845
-0.299,-0.006,-0.959,-0.305,235849
-0.299,-0.006,-0.959,-0.305,235854
-0.298,-0.006,-0.957,-0.183,235858
-0.298,-0.006,-0.957,-0.183,235862
-0.299,-0.005,-0.957,-0.305,235866
-0.299,-0.005,-0.957,-0.305,235870
-0.299,-0.005,-0.957,-0.183,235874
-0.299,-0.005,-0.959,-0.061,235878
-0.299,-0.005,-0.959,-0.122,235882
-0.298,-0.005,-0.958,-0.061,235886
-0.298,-0.005,-0.958,-0.122,235890
-0.298,-0.005,-0.958,-0.122,235894
-0.299,-0.006,-0.959,-0.244,235898
-0.299,-0.006,-0.959,-0.244,235902
-0.3,-0.005,-0.959,-0.244,235906
-0.3,-0.005,-0.959,-0.183,235910
-0.3,-0.005,-0.959,-0.183,235914
-0.299,-0.005,-0.958,-0.183,235918
-0.299,-0.005,-0.958,-0.183,235922
-0.299,-0.006,-0.957,-0.183,235926
-0.299,-0.006,-0.957,-0.183,235930
-0.299,-0.006,-0.957,-0.183,235934
-0.3,-0.007,-0.956,-0.183,235938
-0.3,-0.007,-0.956,-0.183,235942
-0.299,-0.006,-0.955,-0.183,235946
-0.299,-0.006,-0.955,-0.244,235950
-0.299,-0.006,-0.956,-0.244,235954
-0.299,-0.006,-0.956,-0.244,235958
-0.299,-0.006,-0.956,-0.244,235962
-0.299,-0.006,-0.958,-0.244,235966
-0.299,-0.006,-0.958,-0.366,235970
-0.3,-0.007,-0.958,-0.183,235974
-0.3,-0.007,-0.958,-0.183,235978
-0.3,-0.007,-0.958,-0.061,235982
-0.299,-0.006,-0.956,-0.061,235986
-0.299,-0.006,-0.956,-0.366,235990
-0.301,-0.006,-0.958,-0.427,235994
-0.301,-0.006,-0.958,-0.427,235998
-0.301,-0.006,-0.958,-0.244,236002
-0.301,-0.006,-0.959,-0.122,236006
-0.301,-0.006,-0.959,-0.122,236010
-0.298,-0.006,-0.958,-0.183,236015
-0.298,-0.006,-0.958,-0.183,236019
-0.298,-0.006,-0.958,-0.244,236023
-0.298,-0.005,-0.958,-0.183,236027
-0.298,-0.005,-0.958,-0.244,236031
-0.296,-0.005,-0.959,-0.122,236035
-0.296,-0.005,-0.959,-0.183,236039
-0.296,-0.005,-0.959,-0.183,236043
-0.298,-0.006,-0.957,-0.244,236047
-0.298,-0.006,-0.957,-0.122,236051
-0.299,-0.005,-0.957,-0.183,236055
-0.299,-0.005,-0.957,-0.183,236059
-0.299,-0.005,-0.957,-0.183,236063
-0.298,-0.004,-0.958,-0.122,236067
-0.298,-0.004,-0.958,-0.061,236071
-0.297,-0.007,-0.958,-0.183,236075
-0.297,-0.007,-0.958,-0.366,236079
-0.297,-0.007,-0.958,-0.366,236083
-0.299,-0.005,-0.957,-0.244,236087
-0.299,-0.005,-0.957,-0.305,236091
-0.298,-0.006,-0.956,-0.183,236095
-0.298,-0.006,-0.956,-0.183,236099
-0.298,-0.006,-0.958,-0.061,236103
-0.298,-0.006,-0.958,-0.061,236107
-0.298,-0.006,-0.958,-0.244,236111
-0.298,-0.006,-0.957,-0.305,236115
-0.298,-0.006,-0.957,-0.305,236119
-0.297,-0.004,-0.958,-0.244,236123
-0.297,-0.004,-0.958,-0.244,236127
-0.297,-0.004,-0.958,-0.305,236131
-0.298,-0.005,-0.959,-0.244,236135
-0.298,-0.005,-0.959,-0.122,236139
-0.297,-0.005,-0.958,-0.183,236143
-0.297,-0.005,-0.958,-0.183,236147
-0.297,-0.005,-0.958,-0.183,236151
-0.298,-0.005,-0.958,-0.244,236155
-0.298,-0.005,-0.958,-0.244,236159
-0.299,-0.007,-0.959,-0.122,236163
-0.299,-0.007,-0.959,-0.183,236168
-0.299,-0.007,-0.959,-0.183,236172
-0.297,-0.006,-0.959,-0.183,236176
-0.297,-0.006,-0.959,-0.122,236180
-0.298,-0.005,-0.958,-0.061,236184
-0.298,-0.005,-0.958,-0.244,236188
-0.298,-0.005,-0.958,-0.244,236192
-0.298,-0.005,-0.958,-0.244,236196
-0.298,-0.005,-0.958,-0.122,236200
-0.299,-0.005,-0.959,-0.183,236204
-0.299,-0.005,-0.959,-0.244,236208
-0.299,-0.005,-0.959,-0.244,236212
-0.299,-0.005,-0.958,-0.183,236216
-0.299,-0.005,-0.958,-0.305,236220
-0.298,-0.005,-0.959,-0.183,236224
-0.298,-0.005,-0.959,-0.183,236228
-0.3,-0.004,-0.957,-0.183,236232
-0.3,-0.004,-0.957,-0.183,236236
-0.3,-0.004,-0.957,-0.244,236240
-0.3,-0.007,-0.957,-0.183,236244
-0.3,-0.007,-0.957,-0.183,236248
-0.3,-0.006,-0.957,-0.183,236252
-0.3,-0.006,-0.957,-0.183,236256
-0.3,-0.006,-0.957,-0.305,236260
-0.301,-0.004,-0.958,-0.183,236264
-0.301,-0.004,-0.958,-0.122,236268
-0.299,-0.006,-0.958,-0.061,236272
-0.299,-0.006,-0.958,-0.061,236276
-0.299,-0.006,-0.958,-0.183,236280
-0.298,-0.005,-0.959,-0.244,236284
-0.298,-0.005,-0.959,-0.122,236288
-0.3,-0.005,-0.956,-0.244,236292
-0.3,-0.005,-0.956,-0.183,236296
-0.3,-0.005,-0.956,-0.183,236300
-0.302,-0.007,-0.956,-0.061,236304
-0.302,-0.007,-0.956,-0.061,236308
-0.299,-0.005,-0.957,-0.244,236312
-0.299,-0.005,-0.957,-0.183,236316
-0.299,-0.005,-0.957,-0.183,236320
-0.298,-0.005,-0.957,-0.183,236324
-0.298,-0.005,-0.957,-0.061,236329
-0.299,-0.005,-0.958,-0.183,236333
-0.299,-0.005,-0.958,-0.122,236337
-0.299,-0.005,-0.958,-0.122,236341
-0.299,-0.007,-0.959,-0.061,236345
-0.299,-0.007,-0.959,-0.366,236349
-0.3,-0.007,-0.958,-0.488,236353
-0.3,-0.007,-0.958,-0.183,236357
-0.3,-0.007,-0.958,-0.183,236361
-0.298,-0.006,-0.96,-0.183,236365
-0.298,-0.006,-0.96,-0.244,236369
-0.298,-0.005,-0.958,-0.366,236373
-0.298,-0.005,-0.958,-0.305,236377
-0.298,-0.006,-0.959,-0.305,236381
-0.298,-0.006,-0.959,-0.305,236385
-0.298,-0.006,-0.959,-0.183,236389
-0.297,-0.006,-0.959,-0.244,236393
-0.297,-0.006,-0.959,-0.244,236397
-0.297,-0.004,-0.958,-0.244,236401
-0.297,-0.004,-0.958,-0.244,236405
-0.297,-0.004,-0.958,-0.122,236409
-0.298,-0.005,-0.957,-0.183,236413
-0.298,-0.005,-0.957,-0.244,236417
-0.298,-0.005,-0.959,-0.122,236421
-0.298,-0.005,-0.959,-0.122,236425
-0.298,-0.005,-0.959,-0.122,236429
-0.297,-0.006,-0.958,-0.122,236433
-0.297,-0.006,-0.958,-0.183,236437
-0.297,-0.006,-0.959,-0.305,236441
-0.297,-0.006,-0.959,-0.366,236445
-0.297,-0.006,-0.959,-0.366,236449
-0.298,-0.007,-0.959,-0.122,236453
-0.298,-0.007,-0.959,-0.122,236457
-0.3,-0.005,-0.96,-0.061,236461
-0.3,-0.005,-0.96,-0.244,236465
-0.3,-0.005,-0.96,-0.244,236469
-0.298,-0.003,-0.957,-0.122,236473
-0.298,-0.003,-0.957,-0.244,236477
-0.299,-0.005,-0.958,-0.366,236481
-0.299,-0.005,-0.958,-0.183,236485
-0.299,-0.005,-0.958,-0.183,236489
-0.3,-0.007,-0.958,-0.183,236493
-0.3,-0.007,-0.958,-0.305,236497
-0.3,-0.006,-0.957,-0.244,236502
-0.3,-0.006,-0.957,-0.183,236506
-0.3,-0.004,-0.958,-0.183,236510
-0.3,-0.004,-0.958,-0.183,236514
-0.3,-0.004,-0.958,-0.244,236518
-0.297,-0.007,-0.96,-0.244,236522
-0.297,-0.007,-0.96,-0.244,236526
-0.297,-0.007,-0.958,-0.183,236530
-0.297,-0.007,-0.958,-0.183,236534
-0.297,-0.007,-0.958,-0.183,236538
-0.301,-0.007,-0.958,-0.122,236542
-0.301,-0.007,-0.958,-0.183,236546
-0.299,-0.006,-0.957,-0.183,236550
-0.299,-0.006,-0.957,-0.183,236554
-0.299,-0.006,-0.957,-0.122,236558
-0.299,-0.005,-0.958,-0.183,236562
-0.299,-0.005,-0.958,-0.244,236566
-0.299,-0.005,-0.958,-0.122,236570
-0.299,-0.005,-0.958,-0.122,236574
-0.299,-0.005,-0.958,-0.183,236578
-0.298,-0.005,-0.96,-0.244,236582
-0.298,-0.005,-0.96,-0.183,236586
-0.3,-0.004,-0.959,-0.183,236590
-0.3,-0.004,-0.959,-0.244,236594
-0.3,-0.004,-0.959,-0.244,236598
-0.299,-0.004,-0.959,-0.305,236602
-0.299,-0.004,-0.959,-0.244,236606
-0.3,-0.004,-0.958,-0.183,236610
-0.3,-0.004,-0.958,-0.061,236614
-0.3,-0.004,-0.958,-0.061,236618
-0.3,-0.005,-0.957,-0.183,236622
-0.3,-0.005,-0.957,-0.366,236626
-0.3,-0.005,-0.957,-0.183,236630
-0.3,-0.005,-0.957,-0.244,236634
-0.3,-0.005,-0.957,-0.244,236638
-0.3,-0.005,-0.959,-0.244,236642
-0.3,-0.005,-0.959,-0.122,236646
-0.297,-0.006,-0.958,-0.122,236650
-0.297,-0.006,-0.958,-0.244,236654
-0.298,-0.007,-0.959,-0.183,236658
-0.298,-0.007,-0.959,-0.183,236662
-0.298,-0.007,-0.959,-0.244,236666
-0.298,-0.005,-0.958,-0.183,236671
-0.298,-0.005,-0.958,-0.183,236675
-0.299,-0.005,-0.958,-0.244,236679
-0.299,-0.005,-0.958,-0.244,236683
-0.299,-0.005,-0.958,-0.122,236687
-0.3,-0.006,-0.958,-0.122,236691
-0.3,-0.006,-0.958,-0.183,236695
-0.298,-0.005,-0.958,-0.183,236699
-0.298,-0.005,-0.958,-0.183,236703
-0.298,-0.005,-0.958,-0.305,236707
-0.298,-0.004,-0.958,-0.183,236711
-0.298,-0.004,-0.958,-0.183,236715
-0.299,-0.007,-0.958,-0.244,236719
-0.299,-0.007,-0.958,-0.244,236723
-0.299,-0.007,-0.958,-0.244,236727
-0.298,-0.006,-0.959,-0.183,236731
-0.298,-0.006,-0.959,-0.244,236735
-0.298,-0.006,-0.959,-0.244,236739
-0.298,-0.006,-0.959,-0.183,236743
-0.298,-0.006,-0.959,-0.183,236747
-0.296,-0.006,-0.957,-0.305,236751
-0.296,-0.006,-0.957,-0.244,236755
-0.297,-0.006,-0.957,-0.305,236759
-0.297,-0.006,-0.957,-0.305,236763
-0.297,-0.006,-0.957,-0.305,236767
-0.298,-0.006,-0.957,-0.183,236771
-0.298,-0.006,-0.957,-0.183,236775
-0.298,-0.006,-0.958,-0.305,236779
-0.298,-0.006,-0.958,-0.305,236783
-0.298,-0.006,-0.958,-0.305,236787
-0.298,-0.005,-0.959,-0.244,236791
-0.298,-0.005,-0.959,-0.183,236795
-0.297,-0.007,-0.958,-0.244,236799
-0.297,-0.007,-0.958,-0.244,236803
-0.298,-0.006,-0.959,-0.366,236807
-0.298,-0.006,-0.959,-0.366,236811
-0.298,-0.006,-0.959,-0.305,236815
-0.299,-0.005,-0.958,-0.305,236819
-0.299,-0.005,-0.958,-0.244,236823
-0.299,-0.006,-0.958,-0.183,236827
-0.299,-0.006,-0.958,-0.183,236831
-0.299,-0.006,-0.958,-0.183,236835
-0.299,-0.006,-0.958,-0.183,236839
-0.299,-0.006,-0.958,-0.305,236843
-0.299,-0.004,-0.958,-0.122,236847
-0.299,-0.004,-0.958,-0.122,236851
-0.299,-0.004,-0.958,-0.244,236856
-0.299,-0.006,-0.958,-0.183,236860
-0.299,-0.006,-0.958,-0.183,236864
-0.3,-0.006,-0.958,-0.305,236868
-0.3,-0.006,-0.958,-0.183,236872
-0.3,-0.006,-0.958,-0.183,236876
-0.299,-0.005,-0.958,-0.183,236880
-0.299,-0.005,-0.958,-0.122,236884
-0.299,-0.005,-0.958,0.0,236888
-0.299,-0.005,-0.958,-0.183,236892
-0.299,-0.005,-0.958,-0.183,236896
-0.299,-0.006,-0.958,-0.183,236900
-0.299,-0.006,-0.958,-0.122,236904
-0.299,-0.005,-0.959,-0.183,236908
-0.299,-0.005,-0.959,-0.183,236912
-0.299,-0.005,-0.959,-0.183,236916
-0.299,-0.003,-0.959,-0.183,236920
-0.299,-0.003,-0.959,-0.122,236924
-0.299,-0.004,-0.958,-0.061,236928
-0.299,-0.004,-0.958,-0.061,236932
-0.299,-0.004,-0.958,-0.061,236936
-0.299,-0.004,-0.958,-0.183,236940
-0.299,-0.004,-0.958,-0.244,236944
-0.3,-0.004,-0.959,-0.122,236948
-0.3,-0.004,-0.959,-0.183,236952
-0.298,-0.005,-0.957,-0.366,236956
-0.298,-0.005,-0.957,-0.366,236960
-0.298,-0.005,-0.957,-0.244,236964
-0.298,-0.005,-0.958,-0.244,236968
-0.298,-0.005,-0.958,-0.183,236972
-0.298,-0.006,-0.958,-0.183,236976
-0.298,-0.006,-0.958,-0.183,236980
-0.298,-0.006,-0.958,-0.305,236984
-0.299,-0.007,-0.959,-0.122,236988
-0.299,-0.007,-0.959,-0.122,236992
-0.299,-0.006,-0.96,-0.122,236996
-0.299,-0.006,-0.96,-0.122,237000
-0.299,-0.006,-0.96,-0.183,237004
-0.299,-0.005,-0.959,-0.244,237008
-0.299,-0.005,-0.959,-0.244,237013
-0.298,-0.004,-0.958,-0.183,237017
-0.298,-0.004,-0.958,-0.183,237021
-0.298,-0.004,-0.958,-0.183,237025
-0.296,-0.006,-0.959,-0.244,237029
-0.296,-0.006,-0.959,-0.122,237033
-0.297,-0.005,-0.959,-0.244,237037
-0.297,-0.005,-0.959,-0.244,237041
-0.297,-0.005,-0.959,-0.244,237045
-0.299,-0.005,-0.959,-0.183,237049
-0.299,-0.005,-0.959,-0.122,237053
-0.298,-0.006,-0.958,-0.183,237057
-0.298,-0.006,-0.958,-0.305,237061
-0.298,-0.006,-0.958,-0.305,237065
-0.297,-0.006,-0.959,-0.061,237069
-0.297,-0.006,-0.959,-0.183,237073
-0.298,-0.006,-0.959,-0.244,237077
-0.298,-0.006,-0.959,-0.183,237081
-0.299,-0.005,-0.958,-0.122,237085
-0.299,-0.005,-0.958,-0.122,237089
-0.299,-0.005,-0.958,-0.183,237093
-0.299,-0.006,-0.958,-0.122,237097
-0.299,-0.006,-0.958,-0.122,237101
-0.299,-0.006,-0.958,-0.244,237105
-0.299,-0.006,-0.958,-0.244,237109
-0.299,-0.006,-0.958,-0.244,237113
-0.298,-0.005,-0.957,-0.183,237117
-0.298,-0.005,-0.957,-0.244,237121
-0.299,-0.006,-0.958,-0.305,237125
-0.299,-0.006,-0.958,-0.305,237129
-0.299,-0.006,-0.958,-0.183,237133
-0.298,-0.005,-0.959,-0.061,237137
-0.298,-0.005,-0.959,-0.183,237141
-0.299,-0.004,-0.959,-0.305,237145
-0.299,-0.004,-0.959,-0.366,237149
-0.299,-0.004,-0.959,-0.366,237153
-0.297,-0.005,-0.959,-0.244,237157
-0.297,-0.005,-0.959,-0.061,237161
-0.3,-0.005,-0.957,-0.244,237165
-0.3,-0.005,-0.957,-0.122,237170
-0.3,-0.005,-0.957,-0.122,237174
-0.3,-0.004,-0.957,-0.244,237178
-0.3,-0.004,-0.957,-0.183,237182
-0.299,-0.003,-0.958,-0.122,237186
-0.299,-0.003,-0.958,-0.244,237190
-0.299,-0.003,-0.958,-0.244,237194
-0.298,-0.007,-0.958,-0.305,237198
-0.298,-0.007,-0.958,-0.366,237202
-0.299,-0.007,-0.959,-0.183,237206
-0.299,-0.007,-0.959,-0.122,237210
-0.299,-0.007,-0.959,-0.122,237214
-0.298,-0.006,-0.958,-0.244,237218
-0.298,-0.006,-0.958,-0.183,237222
-0.298,-0.005,-0.958,-0.061,237226
-0.298,-0.005,-0.958,-0.061,237230
-0.297,-0.005,-0.958,-0.183,237234
-0.297,-0.005,-0.958,-0.183,237238
-0.297,-0.005,-0.958,-0.244,237242
-0.298,-0.005,-0.956,-0.122,237246
-0.298,-0.005,-0.956,-0.183,237250
-0.298,-0.006,-0.958,-0.183,237254
-0.298,-0.006,-0.958,-0.183,237258
-0.298,-0.006,-0.958,-0.183,237262
-0.299,-0.005,-0.958,-0.122,237266
-0.299,-0.005,-0.958,-0.244,237270
-0.297,-0.006,-0.958,-0.244,237274
-0.297,-0.006,-0.958,-0.244,237278
-0.297,-0.006,-0.958,-0.244,237282
-0.299,-0.006,-0.959,-0.183,237286
-0.299,-0.006,-0.959,-0.244,237290
-0.298,-0.006,-0.957,-0.122,237294
-0.298,-0.006,-0.957,-0.305,237298
-0.298,-0.006,-0.957,-0.305,237302
-0.298,-0.006,-0.958,-0.183,237306
-0.298,-0.006,-0.958,-0.183,237310
-0.299,-0.006,-0.958,-0.244,237314
-0.299,-0.006,-0.958,-0.061,237318
-0.299,-0.006,-0.958,-0.061,237322
-0.298,-0.005,-0.958,-0.061,237327
-0.298,-0.005,-0.958,-0.122,237331
-0.298,-0.005,-0.957,-0.244,237335
-0.298,-0.005,-0.957,-0.183,237339
-0.298,-0.005,-0.957,-0.183,237343
-0.299,-0.006,-0.958,-0.183,237347
-0.299,-0.006,-0.958,-0.183,237351
-0.299,-0.005,-0.957,-0.244,237355
-0.299,-0.005,-0.957,-0.122,237359
-0.299,-0.005,-0.957,-0.183,237363
-0.299,-0.005,-0.957,-0.183,237367
-0.299,-0.005,-0.957,-0.183,237371
-0.298,-0.004,-0.959,-0.122,237375
-0.298,-0.004,-0.959,-0.183,237379
-0.299,-0.005,-0.959,-0.122,237383
-0.299,-0.005,-0.959,-0.122,237387
-0.299,-0.005,-0.959,-0.122,237391
-0.297,-0.003,-0.959,-0.122,237395
-0.297,-0.003,-0.959,-0.183,237399
-0.297,-0.006,-0.958,-0.183,237403
-0.297,-0.006,-0.958,-0.183,237407
-0.297,-0.006,-0.958,-0.305,237411
-0.297,-0.004,-0.958,-0.305,237415
-0.297,-0.004,-0.958,-0.305,237419
-0.299,-0.005,-0.958,-0.244,237423
-0.299,-0.005,-0.958,-0.244,237427
-0.299,-0.005,-0.958,-0.183,237431
-0.298,-0.006,-0.959,-0.427,237435
-0.298,-0.006,-0.959,-0.244,237439
-0.3,-0.006,-0.959,-0.183,237443
-0.3,-0.006,-0.959,-0.122,237447
-0.3,-0.006,-0.959,-0.122,237451
-0.299,-0.006,-0.957,-0.244,237455
-0.299,-0.006,-0.957,-0.244,237459
-0.298,-0.005,-0.957,-0.122,237463
-0.298,-0.005,-0.957,-0.183,237467
-0.298,-0.005,-0.957,-0.183,237471
-0.298,-0.007,-0.958,-0.183,237475
-0.298,-0.007,-0.958,-0.122,237479
-0.298,-0.005,-0.958,-0.183,237483
-0.298,-0.005,-0.958,-0.183,237487
-0.298,-0.005,-0.958,-0.183,237491
-0.298,-0.005,-0.957,-0.122,237495
-0.298,-0.005,-0.957,-0.183,237500
-0.299,-0.005,-0.958,-0.122,237504
-0.299,-0.005,-0.958,-0.122,237508
-0.297,-0.006,-0.958,-0.305,237512
-0.297,-0.006,-0.958,-0.305,237516
-0.297,-0.006,-0.958,-0.305,237520
-0.299,-0.006,-0.959,-0.122,237524
-0.299,-0.006,-0.959,-0.305,237528
-0.301,-0.006,-0.959,-0.244,237532
-0.301,-0.006,-0.959,-0.244,237536
-0.301,-0.006,-0.959,-0.183,237540
-0.299,-0.007,-0.958,-0.183,237544
-0.299,-0.007,-0.958,-0.122,237548
-0.298,-0.007,-0.958,-0.183,237552
-0.298,-0.007,-0.958,-0.183,237556
-0.298,-0.007,-0.958,-0.122,237560
-0.297,-0.005,-0.958,-0.244,237564
-0.297,-0.005,-0.958,-0.305,237568
-0.3,-0.004,-0.958,-0.183,237572
-0.3,-0.004,-0.958,-0.183,237576
-0.3,-0.004,-0.958,-0.183,237580
-0.3,-0.005,-0.958,-0.183,237584
-0.3,-0.005,-0.958,-0.122,237588
-0.298,-0.006,-0.958,-0.122,237592
-0.298,-0.006,-0.958,-0.183,237596
-0.298,-0.006,-0.958,-0.183,237600
-0.297,-0.006,-0.959,-0.183,237604
-0.297,-0.006,-0.959,-0.183,237608
-0.298,-0.006,-0.958,-0.122,237612
-0.298,-0.006,-0.958,-0.122,237616
-0.298,-0.006,-0.958,-0.122,237620
-0.299,-0.005,-0.958,-0.183,237624
-0.299,-0.005,-0.958,-0.183,237628
-0.3,-0.004,-0.958,-0.244,237632
-0.3,-0.004,-0.958,-0.366,237636
-0.3,-0.004,-0.958,-0.366,237640
-0.297,-0.003,-0.958,-0.183,237644
-0.297,-0.003,-0.958,-0.183,237648
-0.298,-0.005,-0.958,-0.244,237652
-0.298,-0.005,-0.958,-0.122,237656
-0.299,-0.005,-0.958,-0.244,237660
-0.299,-0.005,-0.958,-0.244,237665
-0.299,-0.005,-0.958,-0.244,237669
-0.299,-0.004,-0.959,-0.305,237673
-0.299,-0.004,-0.959,-0.244,237677
-0.299,-0.007,-0.958,-0.244,237681
-0.299,-0.007,-0.958,-0.244,237685
-0.299,-0.007,-0.958,-0.244,237689
-0.298,-0.004,-0.958,-0.122,237693
-0.298,-0.004,-0.958,-0.244,237697
-0.297,-0.004,-0.959,-0.305,237701
-0.297,-0.004,-0.959,-0.305,237705
-0.297,-0.004,-0.959,-0.244,237709
-0.298,-0.007,-0.958,-0.183,237713
-0.298,-0.007,-0.958,-0.305,237717
-0.3,-0.005,-0.958,-0.183,237721
-0.3,-0.005,-0.958,-0.244,237725
-0.3,-0.005,-0.958,-0.244,237729
-0.299,-0.006,-0.958,-0.183,237733
-0.299,-0.006,-0.958,-0.183,237737
-0.297,-0.005,-0.958,-0.183,237741
-0.297,-0.005,-0.958,-0.244,237745
-0.297,-0.005,-0.958,-0.244,237749
-0.298,-0.005,-0.959,-0.244,237753
-0.298,-0.005,-0.959,-0.183,237757
-0.301,-0.005,-0.959,-0.061,237761
-0.301,-0.005,-0.959,-0.183,237765
-0.301,-0.005,-0.959,-0.183,237769
-0.3,-0.004,-0.959,-0.183,237773
-0.3,-0.004,-0.959,-0.244,237777
-0.299,-0.005,-0.96,-0.305,237781
-0.299,-0.005,-0.96,-0.305,237785
-0.299,-0.006,-0.96,-0.244,237789
-0.299,-0.006,-0.96,-0.244,237793
-0.299,-0.006,-0.96,-0.183,237797
-0.3,-0.008,-0.959,-0.122,237801
-0.3,-0.008,-0.959,-0.244,237805
-0.299,-0.007,-0.958,-0.244,237809
-0.299,-0.007,-0.958,-0.244,237813
-0.299,-0.007,-0.958,-0.183,237817
-0.298,-0.005,-0.958,-0.122,237821
-0.298,-0.005,-0.958,-0.244,237825
-0.3,-0.006,-0.958,-0.244,237829
-0.3,-0.006,-0.958,-0.244,237833
-0.3,-0.006,-0.958,-0.244,237837
-0.298,-0.006,-0.959,-0.244,237841
-0.298,-0.006,-0.959,-0.183,237845
-0.298,-0.004,-0.958,-0.305,237850
-0.298,-0.004,-0.958,-0.305,237854
-0.298,-0.004,-0.958,-0.183,237858
-0.299,-0.006,-0.958,-0.183,237862
-0.299,-0.006,-0.958,-0.122,237866
-0.299,-0.005,-0.958,-0.122,237870
-0.299,-0.005,-0.958,-0.183,237874
-0.299,-0.005,-0.958,-0.183,237878
-0.299,-0.004,-0.958,-0.183,237882
-0.299,-0.004,-0.958,0.0,237886
-0.297,-0.005,-0.958,-0.122,237890
-0.297,-0.005,-0.958,-0.122,237894
-0.297,-0.005,-0.958,-0.122,237898
-0.299,-0.005,-0.959,-0.183,237902
-0.299,-0.005,-0.959,-0.305,237906
-0.298,-0.006,-0.958,-0.244,237910
-0.298,-0.006,-0.958,-0.305,237914
-0.298,-0.006,-0.958,-0.305,237918
-0.299,-0.005,-0.959,-0.244,237922
-0.299,-0.005,-0.959,-0.122,237926
-0.298,-0.004,-0.957,-0.183,237930
-0.298,-0.004,-0.957,-0.244,237934
-0.298,-0.005,-0.956,-0.183,237938
-0.298,-0.005,-0.956,-0.183,237942
-0.298,-0.005,-0.956,-0.183,237946
-0.299,-0.005,-0.958,-0.183,237950
-0.299,-0.005,-0.958,-0.183,237954
-0.3,-0.006,-0.958,-0.122,237958
-0.3,-0.006,-0.958,-0.122,237962
-0.3,-0.006,-0.958,-0.183,237966
-0.298,-0.006,-0.958,-0.305,237970
-0.298,-0.006,-0.958,-0.244,237974
-0.299,-0.006,-0.958,-0.183,237978
-0.299,-0.006,-0.958,-0.183,237982
-0.299,-0.006,-0.958,-0.183,237986
-0.299,-0.006,-0.958,-0.427,237990
-0.299,-0.006,-0.958,-0.427,237994
-0.298,-0.005,-0.958,-0.244,237998
-0.298,-0.005,-0.958,-0.244,238002
-0.298,-0.005,-0.958,-0.244,238006
-0.296,-0.005,-0.959,-0.244,238011
-0.296,-0.005,-0.959,-0.244,238015
-0.297,-0.007,-0.96,-0.183,238019
-0.297,-0.007,-0.96,-0.244,238023
-0.297,-0.007,-0.96,-0.244,238027
-0.297,-0.006,-0.959,-0.244,238031
-0.297,-0.006,-0.959,-0.183,238035
-0.299,-0.006,-0.96,-0.183,238039
-0.299,-0.006,-0.96,-0.061,238043
-0.299,-0.006,-0.96,-0.061,238047
-0.298,-0.005,-0.96,-0.244,238051
-0.298,-0.005,-0.96,-0.244,238055
-0.3,-0.006,-0.958,-0.061,238059
-0.3,-0.006,-0.958,-0.122,238063
-0.3,-0.006,-0.958,-0.122,238067
-0.299,-0.006,-0.958,-0.244,238071
-0.299,-0.006,-0.958,-0.366,238075
-0.299,-0.005,-0.958,-0.305,238079
-0.299,-0.005,-0.958,-0.366,238083
-0.298,-0.006,-0.957,-0.305,238087
-0.298,-0.006,-0.957,-0.305,238091
-0.298,-0.006,-0.957,-0.183,238095
-0.298,-0.005,-0.959,-0.244,238099
-0.298,-0.005,-0.959,-0.183,238103
-0.3,-0.005,-0.958,-0.183,238107
-0.3,-0.005,-0.958,-0.183,238111
-0.3,-0.005,-0.958,-0.183,238115
-0.301,-0.004,-0.958,-0.122,238119
-0.301,-0.004,-0.958,-0.183,238123
-0.298,-0.005,-0.958,-0.366,238127
-0.298,-0.005,-0.958,-0.366,238131
-0.298,-0.005,-0.958,-0.305,238135
-0.298,-0.005,-0.958,-0.244,238139
-0.298,-0.005,-0.958,-0.183,238143
-0.299,-0.006,-0.957,-0.183,238147
-0.299,-0.006,-0.957,-0.183,238151
-0.299,-0.006,-0.957,-0.183,238155
-0.299,-0.005,-0.957,-0.183,238159
-0.299,-0.005,-0.957,-0.183,238163
-0.297,-0.005,-0.957,-0.183,238167
-0.297,-0.005,-0.957,-0.183,238171
-0.297,-0.005,-0.957,-0.183,238175
-0.298,-0.006,-0.958,-0.122,238179
-0.298,-0.006,-0.958,-0.183,238183
-0.299,-0.006,-0.958,-0.244,238187
-0.299,-0.006,-0.958,-0.183,238192
-0.299,-0.006,-0.958,-0.183,238196
-0.299,-0.006,-0.959,-0.183,238200
-0.299,-0.006,-0.959,-0.244,238204
-0.299,-0.005,-0.959,-0.244,238208
-0.299,-0.005,-0.959,-0.305,238212
-0.299,-0.005,-0.959,-0.305,238216
-0.298,-0.005,-0.958,-0.244,238220
-0.298,-0.005,-0.958,-0.122,238224
-0.298,-0.005,-0.958,-0.183,238228
-0.298,-0.005,-0.958,-0.244,238232
-0.299,-0.005,-0.959,-0.244,238236
-0.299,-0.005,-0.959,-0.244,238240
-0.299,-0.005,-0.959,-0.122,238244
-0.298,-0.005,-0.957,-0.122,238248
-0.298,-0.005,-0.957,-0.183,238252
-0.298,-0.004,-0.958,-0.122,238256
-0.298,-0.004,-0.958,-0.122,238260
-0.298,-0.004,-0.958,-0.244,238264
-0.299,-0.006,-0.96,-0.183,238268
-0.299,-0.006,-0.96,-0.183,238272
-0.297,-0.006,-0.958,-0.305,238276
-0.297,-0.006,-0.958,-0.305,238280
-0.297,-0.006,-0.958,-0.366,238284
-0.298,-0.006,-0.958,-0.244,238288
-0.298,-0.006,-0.958,-0.244,238292
-0.299,-0.006,-0.958,-0.061,238296
-0.299,-0.006,-0.958,-0.366,238300
-0.299,-0.006,-0.958,-0.366,238304
-0.299,-0.004,-0.957,-0.244,238308
-0.299,-0.004,-0.957,-0.122,238312
-0.299,-0.005,-0.959,-0.305,238316
-0.299,-0.005,-0.959,-0.244,238320
-0.299,-0.005,-0.959,-0.244,238324
-0.298,-0.005,-0.958,-0.122,238328
-0.298,-0.005,-0.958,-0.244,238332
-0.298,-0.005,-0.96,-0.244,238336
-0.298,-0.005,-0.96,-0.183,238340
-0.298,-0.005,-0.96,-0.183,238344
-0.298,-0.005,-0.959,-0.183,238348
-0.298,-0.005,-0.959,-0.183,238352
-0.299,-0.007,-0.959,-0.305,238356
-0.299,-0.007,-0.959,-0.122,238360
-0.299,-0.007,-0.959,-0.122,238364
-0.298,-0.006,-0.959,-0.061,238369
-0.298,-0.006,-0.959,-0.366,238373
-0.298,-0.005,-0.957,-0.183,238377
-0.298,-0.005,-0.957,-0.305,238381
-0.298,-0.004,-0.958,-0.427,238385
-0.298,-0.004,-0.958,-0.427,238389
-0.298,-0.004,-0.958,-0.305,238393
-0.299,-0.005,-0.958,-0.183,238397
-0.299,-0.005,-0.958,-0.244,238401
-0.298,-0.005,-0.959,-0.305,238405
-0.298,-0.005,-0.959,-0.305,238409
-0.298,-0.005,-0.959,-0.122,238413
-0.299,-0.006,-0.958,-0.061,238417
-0.299,-0.006,-0.958,-0.183,238421
-0.3,-0.005,-0.958,-0.183,238425
-0.3,-0.005,-0.958,-0.183,238429
-0.3,-0.005,-0.958,-0.183,238433
-0.298,-0.004,-0.959,-0.244,238437
-0.298,-0.004,-0.959,-0.061,238441
-0.298,-0.005,-0.958,-0.244,238445
-0.298,-0.005,-0.958,-0.122,238449
-0.298,-0.005,-0.958,-0.122,238453
-0.3,-0.007,-0.956,-0.244,238457
-0.3,-0.007,-0.956,-0.305,238461
-0.3,-0.005,-0.96,-0.122,238465
-0.3,-0.005,-0.96,-0.183,238469
-0.3,-0.005,-0.96,-0.183,238473
-0.299,-0.006,-0.958,-0.305,238477
-0.299,-0.006,-0.958,-0.244,238481
-0.299,-0.005,-0.958,-0.183,238485
-0.299,-0.005,-0.958,-0.244,238489
-0.299,-0.005,-0.958,-0.244,238493
-0.298,-0.004,-0.959,-0.122,238497
-0.298,-0.004,-0.959,-0.183,238501
-0.299,-0.005,-0.959,-0.183,238505
-0.299,-0.005,-0.959,-0.244,238509
-0.298,-0.006,-0.958,-0.183,238513
-0.298,-0.006,-0.958,-0.183,238517
-0.298,-0.006,-0.958,-0.244,238521
-0.299,-0.005,-0.957,-0.183,238525
-0.299,-0.005,-0.957,-0.183,238529
-0.298,-0.005,-0.958,-0.244,238533
-0.298,-0.005,-0.958,-0.244,238538
-0.298,-0.005,-0.958,-0.183,238542
-0.297,-0.005,-0.959,-0.183,238546
-0.297,-0.005,-0.959,-0.305,238550
-0.297,-0.004,-0.958,-0.244,238554
-0.297,-0.004,-0.958,-0.244,238558
-0.297,-0.004,-0.958,-0.183,238562
-0.299,-0.005,-0.958,-0.244,238566
-0.299,-0.005,-0.958,-0.244,238570
-0.299,-0.004,-0.959,-0.244,238574
-0.299,-0.004,-0.959,-0.122,238578
-0.299,-0.004,-0.959,-0.122,238582
-0.299,-0.005,-0.958,-0.122,238586
-0.299,-0.005,-0.958,-0.244,238590
-0.297,-0.003,-0.958,-0.122,238594
-0.297,-0.003,-0.958,-0.061,238598
-0.297,-0.003,-0.958,-0.061,238602
-0.299,-0.005,-0.959,-0.183,238606
-0.299,-0.005,-0.959,-0.183,238610
-0.297,-0.006,-0.958,-0.244,238614
-0.297,-0.006,-0.958,-0.183,238618
-0.297,-0.006,-0.958,-0.183,238622
-0.297,-0.005,-0.957,-0.305,238626
-0.297,-0.005,-0.957,-0.244,238630
-0.299,-0.006,-0.959,-0.122,238634
-0.299,-0.006,-0.959,-0.122,238638
-0.299,-0.006,-0.959,-0.122,238642
-0.298,-0.006,-0.959,-0.305,238646
-0.298,-0.006,-0.959,-0.122,238650
-0.297,-0.005,-0.959,-0.122,238654
-0.297,-0.005,-0.959,-0.244,238658
-0.299,-0.005,-0.957,-0.366,238662
-0.299,-0.005,-0.957,-0.366,238666
-0.299,-0.005,-0.957,-0.244,238670
-0.298,-0.004,-0.958,-0.183,238674
-0.298,-0.004,-0.958,-0.183,238678
-0.299,-0.004,-0.958,-0.183,238682
-0.299,-0.004,-0.958,-0.183,238686
-0.299,-0.004,-0.958,-0.305,238690
-0.3,-0.005,-0.959,-0.183,238694
-0.3,-0.005,-0.959,-0.183,238698
-0.298,-0.006,-0.958,-0.122,238702
-0.298,-0.006,-0.958,-0.122,238707
-0.298,-0.006,-0.958,-0.183,238711
-0.298,-0.005,-0.957,-0.244,238715
-0.298,-0.005,-0.957,-0.183,238719
-0.299,-0.005,-0.958,-0.244,238723
-0.299,-0.005,-0.958,-0.183,238727
-0.299,-0.005,-0.958,-0.183,238731
-0.298,-0.006,-0.959,-0.183,238735
-0.298,-0.006,-0.959,-0.183,238739
-0.298,-0.006,-0.958,-0.244,238743
-0.298,-0.006,-0.958,-0.305,238747
-0.298,-0.006,-0.958,-0.305,238751
-0.3,-0.006,-0.959,-0.244,238755
-0.3,-0.006,-0.959,-0.305,238759
-0.299,-0.006,-0.958,-0.183,238763
-0.299,-0.006,-0.958,-0.244,238767
-0.299,-0.006,-0.958,-0.244,238771
-0.298,-0.007,-0.959,-0.183,238775
-0.298,-0.007,-0.959,-0.183,238779
-0.3,-0.006,-0.958,-0.183,238783
-0.3,-0.006,-0.958,-0.183,238787
-0.3,-0.006,-0.958,-0.183,238791
-0.298,-0.005,-0.958,-0.244,238795
-0.298,-0.005,-0.958,-0.183,238799
-0.299,-0.005,-0.958,-0.183,238803
-0.299,-0.005,-0.958,-0.122,238807
-0.298,-0.006,-0.958,-0.061,238811
-0.298,-0.006,-0.958,-0.061,238815
-0.298,-0.006,-0.958,-0.183,238819
-0.299,-0.005,-0.958,-0.183,238823
-0.299,-0.005,-0.958,-0.122,238827
-0.301,-0.004,-0.959,-0.122,238831
-0.301,-0.004,-0.959,-0.122,238835
-0.301,-0.004,-0.959,-0.122,238839
-0.298,-0.006,-0.958,-0.122,238843
-0.298,-0.006,-0.958,-0.183,238847
-0.299,-0.004,-0.958,-0.244,238851
-0.299,-0.004,-0.958,-0.244,238855
-0.299,-0.004,-0.958,-0.244,238859
-0.298,-0.005,-0.957,-0.244,238863
-0.298,-0.005,-0.957,-0.244,238867
-0.298,-0.006,-0.957,-0.244,238872
-0.298,-0.006,-0.957,-0.183,238876
-0.298,-0.006,-0.957,-0.183,238880
-0.296,-0.005,-0.959,-0.244,238884
-0.296,-0.005,-0.959,-0.183,238888
-0.298,-0.006,-0.961,-0.366,238892
-0.298,-0.006,-0.961,-0.244,238896
-0.298,-0.006,-0.961,-0.244,238900
-0.3,-0.006,-0.958,-0.122,238904
-0.3,-0.006,-0.958,-0.305,238908
-0.299,-0.005,-0.958,-0.244,238912
-0.299,-0.005,-0.958,-0.244,238916
-0.299,-0.005,-0.958,-0.244,238920
-0.298,-0.005,-0.959,-0.244,238924
-0.298,-0.005,-0.959,-0.244,238928
-0.299,-0.005,-0.959,-0.244,238932
-0.299,-0.005,-0.959,-0.183,238936
-0.298,-0.007,-0.959,-0.122,238940
-0.298,-0.007,-0.959,-0.122,238944
-0.298,-0.007,-0.959,-0.183,238948
-0.298,-0.005,-0.959,-0.183,238952
-0.298,-0.005,-0.959,-0.122,238956
-0.297,-0.005,-0.959,-0.183,238960
-0.297,-0.005,-0.959,-0.183,238964
-0.297,-0.005,-0.959,-0.244,238968
-0.299,-0.006,-0.958,-0.244,238972
-0.299,-0.006,-0.958,-0.244,238976
-0.299,-0.006,-0.958,-0.366,238980
-0.299,-0.006,-0.958,-0.366,238984
-0.299,-0.006,-0.958,-0.244,238988
-0.298,-0.006,-0.958,-0.183,238992
-0.298,-0.006,-0.958,-0.183,238996
-0.298,-0.005,-0.959,-0.183,239000
-0.298,-0.005,-0.959,-0.183,239005
-0.298,-0.005,-0.959,-0.183,239009
-0.299,-0.005,-0.959,-0.183,239013
-0.299,-0.005,-0.959,-0.244,239017
-0.299,-0.005,-0.958,-0.244,239021
-0.299,-0.005,-0.958,-0.183,239025
-0.299,-0.005,-0.958,-0.183,239029
-0.298,-0.006,-0.958,-0.305,239033
-0.298,-0.006,-0.958,-0.244,239037
-0.298,-0.005,-0.958,-0.183,239041
-0.298,-0.005,-0.958,-0.244,239045
-0.298,-0.005,-0.958,-0.244,239049
-0.298,-0.005,-0.958,-0.244,239053
-0.298,-0.005,-0.958,-0.061,239057
-0.3,-0.006,-0.958,-0.061,239061
-0.3,-0.006,-0.958,-0.183,239065
-0.299,-0.005,-0.957,-0.122,239069
-0.299,-0.005,-0.957,-0.122,239073
-0.299,-0.005,-0.957,-0.244,239077
-0.298,-0.005,-0.959,-0.305,239081
-0.298,-0.005,-0.959,-0.244,239085
-0.298,-0.005,-0.958,-0.244,239089
-0.298,-0.005,-0.958,-0.244,239093
-0.298,-0.005,-0.958,-0.244,239097
-0.298,-0.005,-0.957,-0.122,239101
-0.298,-0.005,-0.957,-0.061,239105
-0.298,-0.005,-0.957,-0.122,239109
-0.298,-0.005,-0.957,-0.122,239113
-0.298,-0.005,-0.957,-0.244,239117
-0.301,-0.005,-0.958,-0.183,239121
-0.301,-0.005,-0.958,-0.244,239125
-0.3,-0.006,-0.958,-0.244,239129
-0.3,-0.006,-0.958,-0.183,239133
-0.3,-0.006,-0.958,-0.183,239137
-0.298,-0.006,-0.957,-0.244,239141
-0.298,-0.006,-0.957,0.0,239145
-0.297,-0.005,-0.958,0.061,239149
-0.297,-0.005,-0.958,-0.305,239153
-0.297,-0.005,-0.958,-0.305,239157
-0.298,-0.006,-0.959,-0.183,239161
-0.298,-0.006,-0.959,-0.122,239165
-0.299,-0.005,-0.959,-0.183,239169
-0.299,-0.005,-0.959,-0.366,239174
-0.299,-0.005,-0.959,-0.366,239178
-0.298,-0.005,-0.958,-0.305,239182
-0.298,-0.005,-0.958,-0.244,239186
-0.299,-0.005,-0.959,-0.183,239190
-0.299,-0.005,-0.959,-0.366,239194
-0.299,-0.005,-0.959,-0.366,239198
-0.299,-0.006,-0.959,-0.305,239202
-0.299,-0.006,-0.959,-0.183,239206
-0.298,-0.008,-0.96,-0.244,239210
-0.298,-0.008,-0.96,-0.244,239214
-0.298,-0.007,-0.959,-0.305,239218
-0.298,-0.007,-0.959,-0.305,239222
-0.298,-0.007,-0.959,-0.244,239226
-0.298,-0.006,-0.959,-0.122,239230
-0.298,-0.006,-0.959,-0.244,239234
-0.299,-0.007,-0.958,-0.244,239238
-0.299,-0.007,-0.958,-0.244,239242
-0.299,-0.007,-0.958,-0.305,239246
-0.299,-0.007,-0.957,-0.244,239250
-0.299,-0.007,-0.957,-0.366,239254
-0.299,-0.006,-0.958,-0.183,239258
-0.299,-0.006,-0.958,-0.183,239262
-0.299,-0.006,-0.958,-0.183,239266
-0.297,-0.006,-0.958,-0.122,239270
-0.297,-0.006,-0.958,-0.122,239274
-0.297,-0.004,-0.958,-0.244,239278
-0.297,-0.004,-0.958,-0.183,239282
-0.297,-0.004,-0.958,-0.183,239286
-0.298,-0.005,-0.958,-0.061,239290
-0.298,-0.005,-0.958,-0.183,239294
-0.298,-0.006,-0.96,-0.061,239298
-0.298,-0.006,-0.96,-0.183,239302
-0.298,-0.006,-0.96,-0.183,239306
-0.3,-0.005,-0.958,-0.122,239310
-0.3,-0.005,-0.958,-0.183,239314
-0.299,-0.007,-0.958,-0.305,239318
-0.299,-0.007,-0.958,-0.183,239322
-0.299,-0.007,-0.958,-0.183,239326
-0.298,-0.006,-0.959,-0.183,239330
-0.298,-0.006,-0.959,-0.244,239334
-0.297,-0.005,-0.958,-0.244,239339
-0.297,-0.005,-0.958,-0.183,239343
-0.297,-0.005,-0.958,-0.183,239347
-0.3,-0.004,-0.958,-0.244,239351
-0.3,-0.004,-0.958,-0.305,239355
-0.298,-0.005,-0.957,-0.244,239359
-0.298,-0.005,-0.957,-0.244,239363
-0.298,-0.005,-0.958,-0.183,239367
-0.298,-0.005,-0.958,-0.183,239371
-0.298,-0.005,-0.958,-0.122,239375
-0.299,-0.004,-0.958,-0.183,239379
-0.299,-0.004,-0.958,-0.183,239383
-0.298,-0.005,-0.958,-0.183,239387
-0.298,-0.005,-0.958,-0.183,239391
-0.298,-0.005,-0.958,-0.244,239395
-0.299,-0.005,-0.958,-0.183,239399
-0.299,-0.005,-0.958,-0.244,239403
-0.299,-0.005,-0.96,-0.244,239407
-0.299,-0.005,-0.96,-0.244,239411
-0.299,-0.005,-0.96,-0.183,239415
-0.299,-0.006,-0.959,-0.183,239419
-0.299,-0.006,-0.959,-0.183,239423
-0.298,-0.006,-0.958,-0.244,239427
-0.298,-0.006,-0.958,-0.244,239431
-0.298,-0.006,-0.958,-0.244,239435
-0.299,-0.005,-0.958,-0.244,239439
-0.299,-0.005,-0.958,-0.305,239443
-0.298,-0.006,-0.959,-0.183,239447
-0.298,-0.006,-0.959,-0.366,239451
-0.298,-0.006,-0.959,-0.366,239455
-0.298,-0.006,-0.958,-0.122,239459
-0.298,-0.006,-0.958,-0.122,239463
-0.298,-0.007,-0.957,-0.061,239467
-0.298,-0.007,-0.957,-0.244,239471
-0.298,-0.007,-0.957,-0.244,239475
-0.299,-0.006,-0.957,-0.183,239479
-0.299,-0.006,-0.957,-0.244,239483
-0.298,-0.006,-0.958,-0.183,239487
-0.298,-0.006,-0.958,-0.244,239491
-0.298,-0.006,-0.959,-0.183,239495
-0.298,-0.006,-0.959,-0.183,239499
-0.298,-0.006,-0.959,-0.122,239503
-0.299,-0.006,-0.959,-0.244,239507
-0.299,-0.006,-0.959,-0.122,239511
-0.297,-0.006,-0.961,-0.244,239515
-0.297,-0.006,-0.961,-0.244,239519
-0.297,-0.006,-0.961,-0.244,239523
-0.297,-0.004,-0.959,-0.244,239528
-0.297,-0.004,-0.959,-0.183,239532
-0.299,-0.006,-0.96,-0.305,239536
-0.299,-0.006,-0.96,-0.305,239540
-0.299,-0.006,-0.96,-0.305,239544
-0.299,-0.005,-0.959,-0.183,239548
-0.299,-0.005,-0.959,-0.183,239552
-0.297,-0.005,-0.958,-0.305,239556
-0.297,-0.005,-0.958,-0.305,239560
-0.297,-0.005,-0.958,-0.183,239564
-0.299,-0.007,-0.959,-0.244,239568
-0.299,-0.007,-0.959,-0.244,239572
-0.299,-0.005,-0.959,-0.183,239576
-0.299,-0.005,-0.959,-0.122,239580
-0.299,-0.005,-0.959,-0.122,239584
-0.299,-0.005,-0.959,-0.183,239588
-0.299,-0.005,-0.959,-0.183,239592
-0.299,-0.005,-0.958,-0.183,239596
-0.299,-0.005,-0.958,-0.183,239600
-0.299,-0.005,-0.958,-0.183,239604
-0.299,-0.006,-0.958,-0.122,239608
-0.299,-0.006,-0.958,-0.122,239612
-0.298,-0.006,-0.958,-0.305,239616
-0.298,-0.006,-0.958,-0.244,239620
-0.298,-0.006,-0.958,-0.244,239624
-0.297,-0.006,-0.959,-0.122,239628
-0.297,-0.006,-0.959,-0.122,239632
-0.298,-0.005,-0.958,0.0,239636
-0.298,-0.005,-0.958,-0.122,239640
-0.299,-0.004,-0.958,-0.244,239644
-0.299,-0.004,-0.958,-0.244,239648
-0.299,-0.004,-0.958,-0.183,239652
-0.299,-0.004,-0.959,-0.122,239656
-0.299,-0.004,-0.959,-0.183,239660
-0.298,-0.006,-0.959,-0.122,239664
-0.298,-0.006,-0.959,-0.122,239668
-0.298,-0.006,-0.959,-0.183,239672
-0.299,-0.007,-0.959,-0.244,239676
-0.299,-0.007,-0.959,-0.244,239680
-0.298,-0.006,-0.959,-0.122,239684
-0.298,-0.006,-0.959,-0.122,239688
-0.298,-0.006,-0.959,0.0,239692
-0.297,-0.006,-0.959,-0.244,239696
-0.297,-0.006,-0.959,-0.122,239700
-0.298,-0.007,-0.958,-0.183,239704
-0.298,-0.007,-0.958,-0.183,239708
-0.298,-0.007,-0.958,-0.061,239712
-0.297,-0.005,-0.958,-0.244,239716
-0.297,-0.005,-0.958,-0.366,239720
-0.297,-0.006,-0.959,-0.305,239724
-0.297,-0.006,-0.959,-0.244,239729
-0.297,-0.006,-0.959,-0.244,239733
-0.299,-0.006,-0.957,-0.244,239737
-0.299,-0.006,-0.957,-0.244,239741
-0.296,-0.007,-0.957,-0.244,239745
-0.296,-0.007,-0.957,-0.183,239749
-0.296,-0.007,-0.957,-0.183,239753
-0.297,-0.006,-0.959,-0.244,239757
-0.297,-0.006,-0.959,-0.244,239761
-0.299,-0.005,-0.959,-0.061,239765
-0.299,-0.005,-0.959,-0.061,239769
-0.299,-0.005,-0.959,-0.061,239773
-0.298,-0.004,-0.959,-0.183,239777
-0.298,-0.004,-0.959,-0.183,239781
-0.297,-0.005,-0.957,-0.183,239785
-0.297,-0.005,-0.957,-0.122,239789
-0.297,-0.005,-0.957,-0.122,239793
-0.298,-0.006,-0.959,-0.305,239797
-0.298,-0.006,-0.959,-0.061,239801
-0.298,-0.006,-0.959,-0.061,239805
-0.298,-0.006,-0.959,-0.061,239809
-0.299,-0.006,-0.958,-0.305,239813
-0.299,-0.006,-0.958,-0.305,239817
-0.299,-0.006,-0.958,-0.061,239821
-0.3,-0.005,-0.959,-0.061,239825
-0.3,-0.005,-0.959,-0.183,239829
-0.299,-0.004,-0.959,-0.122,239833
-0.299,-0.004,-0.959,-0.122,239837
-0.299,-0.004,-0.959,-0.244,239841
-0.298,-0.005,-0.958,-0.244,239845
-0.298,-0.005,-0.958,-0.183,239849
-0.297,-0.005,-0.959,-0.183,239853
-0.297,-0.005,-0.959,-0.183,239857
-0.297,-0.005,-0.959,-0.183,239861
-0.298,-0.006,-0.959,-0.183,239865
-0.298,-0.006,-0.959,-0.122,239869
-0.298,-0.005,-0.959,-0.122,239873
-0.298,-0.005,-0.959,-0.244,239877
-0.298,-0.005,-0.959,-0.244,239881
-0.297,-0.006,-0.96,-0.244,239885
-0.297,-0.006,-0.96,-0.183,239889
-0.3,-0.006,-0.959,-0.122,239893
-0.3,-0.006,-0.959,-0.244,239897
-0.3,-0.006,-0.959,-0.244,239902
-0.3,-0.006,-0.958,-0.305,239906
-0.3,-0.006,-0.958,-0.244,239910
-0.298,-0.006,-0.959,-0.122,239914
-0.298,-0.006,-0.959,-0.183,239918
-0.298,-0.006,-0.959,-0.183,239922
-0.299,-0.006,-0.958,-0.244,239926
-0.299,-0.006,-0.958,-0.305,239930
-0.299,-0.005,-0.958,-0.366,239934
-0.299,-0.005,-0.958,-0.305,239938
-0.299,-0.005,-0.959,-0.122,239942
-0.299,-0.005,-0.959,-0.122,239946
-0.299,-0.005,-0.959,-0.244,239950
-0.298,-0.007,-0.959,-0.183,239954
-0.298,-0.007,-0.959,-0.183,239958
-0.297,-0.006,-0.958,-0.183,239962
-0.297,-0.006,-0.958,-0.183,239966
-0.297,-0.006,-0.958,-0.305,239970
-0.297,-0.005,-0.958,-0.244,239974
-0.297,-0.005,-0.958,-0.244,239978
-0.299,-0.005,-0.958,-0.244,239982
-0.299,-0.005,-0.958,-0.244,239986
-0.299,-0.005,-0.958,-0.122,239990
-0.298,-0.006,-0.957,-0.183,239994
-0.298,-0.006,-0.957,-0.244,239998
-0.298,-0.007,-0.957,-0.183,240002
-0.298,-0.007,-0.957,-0.183,240006
-0.298,-0.007,-0.957,-0.183,240010
-0.299,-0.005,-0.958,-0.061,240014
-0.299,-0.005,-0.958,-0.122,240018
-0.298,-0.005,-0.96,-0.244,240022
-0.298,-0.005,-0.96,-0.183,240026
-0.298,-0.005,-0.96,-0.183,240030
-0.298,-0.006,-0.959,-0.244,240034
-0.298,-0.006,-0.959,-0.244,240038
-0.298,-0.007,-0.958,-0.183,240042
-0.298,-0.007,-0.958,-0.244,240046
-0.298,-0.007,-0.958,-0.244,240050
-0.299,-0.005,-0.958,-0.183,240054
-0.299,-0.005,-0.958,-0.183,240058
-0.296,-0.006,-0.958,-0.244,240062
-0.296,-0.006,-0.958,-0.244,240066
-0.296,-0.006,-0.958,-0.244,240070
-0.296,-0.005,-0.958,-0.122,240075
-0.296,-0.005,-0.958,-0.061,240079
-0.299,-0.006,-0.96,-0.122,240083
-0.299,-0.006,-0.96,-0.061,240087
-0.298,-0.005,-0.958,-0.244,240091
-0.298,-0.005,-0.958,-0.244,240095
-0.298,-0.005,-0.958,-0.183,240099
-0.297,-0.006,-0.959,-0.122,240103
-0.297,-0.006,-0.959,-0.122,240107
-0.298,-0.005,-0.959,-0.122,240111
-0.298,-0.005,-0.959,-0.122,240115
-0.298,-0.005,-0.959,-0.244,240119
-0.299,-0.005,-0.958,-0.183,240123
-0.299,-0.005,-0.958,-0.183,240127
-0.299,-0.005,-0.958,-0.122,240131
-0.299,-0.005,-0.958,-0.122,240135
-0.299,-0.005,-0.958,-0.061,240139
-0.298,-0.004,-0.959,-0.183,240143
-0.298,-0.004,-0.959,-0.183,240147
-0.297,-0.005,-0.958,-0.122,240151
-0.297,-0.005,-0.958,-0.183,240155
-0.297,-0.005,-0.958,-0.183,240159
-0.298,-0.005,-0.958,-0.183,240163
-0.298,-0.005,-0.958,-0.183,240167
-0.297,-0.005,-0.958,-0.366,240171
-0.297,-0.005,-0.958,-0.244,240175
-0.297,-0.005,-0.958,-0.244,240179
-0.296,-0.006,-0.958,-0.244,240183
-0.296,-0.006,-0.958,-0.183,240187
-0.299,-0.004,-0.959,-0.183,240191
-0.299,-0.004,-0.959,-0.122,240195
-0.299,-0.004,-0.959,-0.122,240199
-0.299,-0.006,-0.958,-0.183,240203
-0.299,-0.006,-0.958,-0.244,240207
-0.298,-0.007,-0.958,-0.244,240211
-0.298,-0.007,-0.958,-0.305,240215
-0.298,-0.007,-0.958,-0.305,240219
-0.297,-0.005,-0.959,-0.305,240223
-0.297,-0.005,-0.959,-0.244,240227
-0.297,-0.005,-0.958,-0.244,240232
-0.297,-0.005,-0.958,-0.244,240236
-0.298,-0.005,-0.958,-0.061,240240
-0.298,-0.005,-0.958,-0.061,240244
-0.298,-0.005,-0.958,-0.244,240248
-0.298,-0.006,-0.958,-0.244,240252
-0.298,-0.006,-0.958,-0.305,240256
-0.298,-0.006,-0.958,-0.183,240260
-0.298,-0.006,-0.958,-0.183,240264
-0.298,-0.006,-0.958,-0.183,240268
-0.297,-0.005,-0.959,-0.305,240272
-0.297,-0.005,-0.959,-0.244,240276
-0.297,-0.006,-0.958,-0.183,240280
-0.297,-0.006,-0.958,-0.183,240284
-0.297,-0.006,-0.958,-0.244,240288
-0.298,-0.005,-0.957,-0.183,240292
-0.298,-0.005,-0.957,-0.183,240296
-0.298,-0.006,-0.959,-0.183,240300
-0.298,-0.006,-0.959,-0.366,240304
-0.298,-0.006,-0.959,-0.366,240308
-0.298,-0.005,-0.958,-0.183,240312
-0.298,-0.005,-0.958,-0.183,240316
-0.299,-0.005,-0.958,-0.183,240320
-0.299,-0.005,-0.958,-0.183,240324
-0.299,-0.005,-0.958,-0.183,240328
-0.299,-0.004,-0.958,0.0,240332
-0.299,-0.004,-0.958,-0.061,240336
-0.298,-0.005,-0.958,-0.366,240340
-0.298,-0.005,-0.958,-0.305,240344
-0.298,-0.005,-0.958,-0.305,240348
-0.299,-0.005,-0.957,-0.244,240352
-0.299,-0.005,-0.957,-0.244,240356
-0.298,-0.005,-0.958,-0.183,240360
-0.298,-0.005,-0.958,-0.244,240364
-0.299,-0.005,-0.957,-0.244,240368
-0.299,-0.005,-0.957,-0.244,240372
-0.299,-0.005,-0.957,-0.305,240376
-0.297,-0.005,-0.956,-0.122,240380
-0.297,-0.005,-0.956,-0.183,240384
-0.297,-0.005,-0.958,-0.244,240388
-0.297,-0.005,-0.958,-0.244,240392
-0.297,-0.005,-0.958,-0.244,240396
-0.299,-0.005,-0.958,-0.183,240400
-0.299,-0.005,-0.958,-0.244,240405
-0.299,-0.006,-0.958,-0.183,240409
-0.299,-0.006,-0.958,-0.183,240413
-0.299,-0.006,-0.958,-0.244,240417
-0.298,-0.005,-0.958,-0.183,240421
-0.298,-0.005,-0.958,-0.244,240425
-0.298,-0.006,-0.96,-0.122,240429
-0.298,-0.006,-0.96,-0.122,240433
-0.298,-0.006,-0.96,-0.183,240437
-0.298,-0.006,-0.958,-0.122,240441
-0.298,-0.006,-0.958,-0.122,240445
-0.298,-0.006,-0.958,-0.061,240449
-0.298,-0.006,-0.958,-0.061,240453
-0.298,-0.006,-0.958,-0.061,240457
-0.298,-0.005,-0.96,-0.244,240461
-0.298,-0.005,-0.96,-0.244,240465
-0.299,-0.005,-0.958,-0.183,240469
-0.299,-0.005,-0.958,-0.122,240473
-0.299,-0.005,-0.958,-0.122,240477
-0.299,-0.006,-0.961,-0.183,240481
-0.299,-0.006,-0.961,-0.244,240485
-0.299,-0.005,-0.959,-0.183,240489
-0.299,-0.005,-0.959,-0.061,240493
-0.299,-0.005,-0.959,-0.061,240497
-0.298,-0.006,-0.958,-0.122,240501
-0.298,-0.006,-0.958,-0.122,240505
-0.299,-0.006,-0.958,-0.244,240509
-0.299,-0.006,-0.958,-0.305,240513
-0.297,-0.005,-0.958,-0.061,240517
-0.297,-0.005,-0.958,-0.061,240521
-0.297,-0.005,-0.958,-0.244,240525
-0.298,-0.005,-0.958,-0.244,240529
-0.298,-0.005,-0.958,-0.183,240533
-0.299,-0.007,-0.958,-0.244,240537
-0.299,-0.007,-0.958,-0.244,240541
-0.299,-0.007,-0.958,-0.122,240545
-0.299,-0.005,-0.958,-0.122,240549
-0.299,-0.005,-0.958,-0.244,240553
-0.298,-0.004,-0.958,-0.244,240557
-0.298,-0.004,-0.958,-0.244,240561
-0.298,-0.004,-0.958,-0.183,240565
-0.299,-0.005,-0.958,-0.305,240569
-0.299,-0.005,-0.958,-0.183,240573
-0.298,-0.005,-0.958,-0.183,240577
-0.298,-0.005,-0.958,-0.183,240582
-0.298,-0.005,-0.958,-0.183,240586
-0.297,-0.004,-0.958,-0.305,240590
-0.297,-0.004,-0.958,-0.244,240594
-0.298,-0.006,-0.958,-0.183,240598
-0.298,-0.006,-0.958,-0.183,240602
-0.298,-0.006,-0.958,-0.183,240606
-0.299,-0.005,-0.957,-0.183,240610
-0.299,-0.005,-0.957,-0.244,240614
-0.298,-0.006,-0.957,-0.244,240618
-0.298,-0.006,-0.957,-0.122,240622
-0.298,-0.006,-0.957,-0.122,240626
-0.298,-0.005,-0.958,-0.183,240630
-0.298,-0.005,-0.958,-0.183,240634
-0.299,-0.006,-0.959,-0.244,240638
-0.299,-0.006,-0.959,-0.366,240642
-0.299,-0.006,-0.959,-0.366,240646
-0.299,-0.006,-0.958,-0.122,240650
-0.299,-0.006,-0.958,-0.305,240654
-0.3,-0.006,-0.958,-0.244,240658
-0.3,-0.006,-0.958,-0.427,240662
-0.299,-0.006,-0.958,-0.244,240666
-0.299,-0.006,-0.958,-0.244,240670
-0.299,-0.006,-0.958,-0.244,240674
-0.298,-0.006,-0.96,-0.305,240678
-0.298,-0.006,-0.96,-0.305,240682
-0.299,-0.005,-0.958,-0.183,240686
-0.299,-0.005,-0.958,-0.183,240690
-0.299,-0.005,-0.958,-0.183,240694
-0.298,-0.004,-0.957,-0.244,240698
-0.298,-0.004,-0.957,-0.244,240702
-0.299,-0.006,-0.958,-0.244,240706
-0.299,-0.006,-0.958,-0.244,240710
-0.299,-0.006,-0.958,-0.244,240714
-0.298,-0.007,-0.959,-0.244,240718
-0.298,-0.007,-0.959,-0.122,240722
-0.299,-0.007,-0.957,-0.122,240726
-0.299,-0.007,-0.957,-0.122,240730
-0.299,-0.007,-0.957,-0.122,240734
-0.298,-0.006,-0.958,-0.061,240738
-0.298,-0.006,-0.958,-0.061,240742
-0.297,-0.007,-0.958,-0.244,240747
-0.297,-0.007,-0.958,-0.183,240751
-0.297,-0.007,-0.958,-0.183,240755
-0.299,-0.006,-0.959,-0.305,240759
-0.299,-0.006,-0.959,-0.183,240763
-0.298,-0.004,-0.96,-0.122,240767
-0.298,-0.004,-0.96,-0.244,240771
-0.298,-0.004,-0.96,-0.244,240775
-0.299,-0.005,-0.958,-0.244,240779
-0.299,-0.005,-0.958,-0.244,240783
-0.299,-0.007,-0.957,-0.183,240787
-0.299,-0.007,-0.957,-0.305,240791
-0.299,-0.007,-0.957,-0.305,240795
-0.297,-0.006,-0.958,-0.183,240799
-0.297,-0.006,-0.958,-0.122,240803
-0.298,-0.007,-0.959,-0.122,240807
-0.298,-0.007,-0.959,-0.122,240811
-0.297,-0.005,-0.959,-0.183,240815
-0.297,-0.005,-0.959,-0.183,240819
-0.297,-0.005,-0.959,-0.244,240823
-0.297,-0.006,-0.957,-0.183,240827
-0.297,-0.006,-0.957,-0.244,240831
-0.298,-0.007,-0.957,-0.061,240835
-0.298,-0.007,-0.957,-0.061,240839
-0.298,-0.007,-0.957,-0.061,240843
-0.298,-0.006,-0.958,-0.183,240847
-0.298,-0.006,-0.958,-0.427,240851
-0.299,-0.006,-0.958,-0.305,240855
-0.299,-0.006,-0.958,-0.305,240859
-0.299,-0.006,-0.958,-0.244,240863
-0.298,-0.005,-0.958,-0.183,240867
-0.298,-0.005,-0.958,-0.183,240871
-0.301,-0.006,-0.958,-0.183,240875
-0.301,-0.006,-0.958,-0.122,240879
-0.301,-0.006,-0.958,-0.122,240883
-0.3,-0.005,-0.958,-0.244,240887
-0.3,-0.005,-0.958,-0.183,240891
-0.298,-0.005,-0.958,-0.122,240895
-0.298,-0.005,-0.958,-0.244,240899
-0.298,-0.005,-0.958,-0.244,240903
-0.298,-0.006,-0.96,-0.244,240907
-0.298,-0.006,-0.96,-0.244,240911
-0.3,-0.007,-0.96,-0.122,240915
-0.3,-0.007,-0.96,-0.244,240920
-0.3,-0.007,-0.96,-0.244,240924
-0.298,-0.006,-0.958,-0.244,240928
-0.298,-0.006,-0.958,-0.122,240932
-0.297,-0.006,-0.956,-0.305,240936
-0.297,-0.006,-0.956,-0.244,240940
-0.298,-0.006,-0.958,-0.183,240944
-0.298,-0.006,-0.958,-0.183,240948
-0.298,-0.006,-0.958,-0.122,240952
-0.299,-0.004,-0.958,-0.244,240956
-0.299,-0.004,-0.958,-0.183,240960
-0.298,-0.005,-0.958,-0.244,240964
-0.298,-0.005,-0.958,-0.244,240968
-0.298,-0.005,-0.958,-0.122,240972
-0.299,-0.008,-0.957,-0.183,240976
-0.299,-0.008,-0.957,-0.244,240980
-0.301,-0.005,-0.96,-0.183,240984
-0.301,-0.005,-0.96,-0.183,240988
-0.301,-0.005,-0.96,-0.183,240992
-0.298,-0.006,-0.96,-0.183,240996
-0.298,-0.006,-0.96,-0.061,241000
-0.298,-0.005,-0.959,-0.122,241004
-0.298,-0.005,-0.959,-0.061,241008
-0.298,-0.005,-0.959,-0.061,241012
-0.298,-0.007,-0.958,-0.061,241016
-0.298,-0.007,-0.958,-0.244,241020
-0.299,-0.005,-0.958,-0.122,241024
-0.299,-0.005,-0.958,-0.244,241028
-0.299,-0.005,-0.958,-0.244,241032
-0.297,-0.005,-0.957,-0.305,241036
-0.297,-0.005,-0.957,-0.244,241040
-0.298,-0.005,-0.958,-0.122,241044
-0.298,-0.005,-0.958,-0.305,241048
-0.298,-0.005,-0.958,-0.305,241052
-0.298,-0.005,-0.96,-0.244,241056
-0.298,-0.005,-0.96,-0.122,241060
-0.298,-0.006,-0.958,-0.122,241064
-0.298,-0.006,-0.958,-0.183,241068
-0.298,-0.006,-0.958,-0.183,241072
-0.299,-0.005,-0.957,-0.183,241076
-0.299,-0.005,-0.957,-0.183,241080
-0.298,-0.005,-0.958,-0.183,241085
-0.298,-0.005,-0.958,-0.122,241089
-0.298,-0.005,-0.958,-0.122,241093
-0.298,-0.005,-0.958,-0.122,241097
-0.298,-0.005,-0.958,-0.061,241101
-0.297,-0.006,-0.958,-0.061,241105
-0.297,-0.006,-0.958,-0.122,241109
-0.298,-0.005,-0.959,-0.305,241113
-0.298,-0.005,-0.959,-0.305,241117
-0.298,-0.005,-0.959,-0.366,241121
-0.297,-0.005,-0.958,-0.366,241125
-0.297,-0.005,-0.958,-0.366,241129
-0.298,-0.005,-0.957,0.0,241133
-0.298,-0.005,-0.957,0.0,241137
-0.298,-0.005,-0.957,-0.244,241141
-0.299,-0.004,-0.957,-0.244,241145
-0.299,-0.004,-0.957,-0.122,241149
-0.299,-0.006,-0.958,-0.244,241153
-0.299,-0.006,-0.958,-0.244,241157
-0.299,-0.006,-0.958,-0.244,241161
-0.299,-0.006,-0.958,-0.061,241165
-0.299,-0.006,-0.958,-0.061,241169
-0.297,-0.005,-0.958,-0.183,241173
-0.297,-0.005,-0.958,-0.183,241177
-0.297,-0.005,-0.958,-0.183,241181
-0.299,-0.005,-0.958,-0.244,241185
-0.299,-0.005,-0.958,-0.244,241189
-0.3,-0.005,-0.958,-0.061,241193
-0.3,-0.005,-0.958,0.0,241197
-0.3,-0.005,-0.958,0.0,241201
-0.298,-0.005,-0.959,-0.122,241205
-0.298,-0.005,-0.959,-0.244,241209
-0.299,-0.006,-0.958,-0.183,241213
-0.299,-0.006,-0.958,-0.366,241217
-0.299,-0.006,-0.958,-0.366,241221
-0.299,-0.005,-0.958,-0.488,241225
-0.299,-0.005,-0.958,-0.244,241229
-0.297,-0.006,-0.958,-0.183,241233
-0.297,-0.006,-0.958,-0.183,241237
-0.298,-0.005,-0.959,-0.183,241241
-0.298,-0.005,-0.959,-0.183,241245
-0.298,-0.005,-0.959,-0.244,241249
-0.299,-0.005,-0.958,-0.183,241253
-0.299,-0.005,-0.958,-0.183,241257
-0.297,-0.007,-0.958,-0.183,241261
-0.297,-0.007,-0.958,-0.183,241265
-0.297,-0.007,-0.958,-0.183,241269
-0.298,-0.005,-0.957,-0.244,241273
-0.298,-0.005,-0.957,-0.183,241278
-0.298,-0.005,-0.958,-0.183,241282
-0.298,-0.005,-0.958,-0.183,241286
-0.298,-0.005,-0.958,-0.183,241290
-0.298,-0.007,-0.958,-0.183,241294
-0.298,-0.007,-0.958,-0.183,241298
-0.297,-0.006,-0.958,-0.244,241302
-0.297,-0.006,-0.958,-0.244,241306
-0.297,-0.006,-0.958,-0.244,241310
-0.298,-0.006,-0.958,-0.183,241314
-0.298,-0.006,-0.958,-0.061,241318
-0.298,-0.006,-0.959,-0.122,241322
-0.298,-0.006,-0.959,-0.366,241326
-0.298,-0.006,-0.959,-0.366,241330
-0.298,-0.004,-0.957,-0.183,241334
-0.298,-0.004,-0.957,-0.244,241338
-0.298,-0.004,-0.956,-0.122,241342
-0.298,-0.004,-0.956,-0.122,241346
-0.298,-0.004,-0.956,-0.122,241350
-0.299,-0.006,-0.958,-0.122,241354
-0.299,-0.006,-0.958,-0.244,241358
-0.299,-0.005,-0.96,-0.244,241362
-0.299,-0.005,-0.96,-0.183,241366
-0.299,-0.005,-0.96,-0.183,241370
-0.299,-0.005,-0.957,-0.183,241374
-0.299,-0.005,-0.957,-0.183,241378
-0.299,-0.005,-0.959,-0.122,241382
-0.299,-0.005,-0.959,-0.183,241386
-0.298,-0.005,-0.959,-0.122,241390
-0.298,-0.005,-0.959,-0.122,241394
-0.298,-0.005,-0.959,-0.183,241398
-0.298,-0.005,-0.958,-0.305,241402
-0.298,-0.005,-0.958,-0.244,241406
-0.297,-0.007,-0.959,-0.122,241410
-0.297,-0.007,-0.959,-0.122,241414
-0.297,-0.007,-0.959,-0.183,241418
-0.297,-0.006,-0.959,-0.244,241422
-0.297,-0.006,-0.959,-0.244,241426
-0.298,-0.005,-0.957,-0.122,241430
-0.298,-0.005,-0.957,-0.122,241434
-0.298,-0.005,-0.957,-0.122,241438
-0.298,-0.005,-0.957,-0.305,241442
-0.298,-0.005,-0.957,-0.183,241446
-0.299,-0.006,-0.958,-0.244,241450
-0.299,-0.006,-0.958,-0.122,241455
-0.299,-0.006,-0.958,-0.122,241459
-0.299,-0.005,-0.957,-0.183,241463
-0.299,-0.005,-0.957,-0.305,241467
-0.297,-0.005,-0.958,-0.122,241471
-0.297,-0.005,-0.958,-0.244,241475
-0.297,-0.005,-0.958,-0.244,241479
-0.297,-0.006,-0.956,-0.244,241483
-0.297,-0.006,-0.956,-0.244,241487
-0.299,-0.006,-0.957,-0.244,241491
-0.299,-0.006,-0.957,-0.061,241495
-0.299,-0.006,-0.957,-0.061,241499
-0.299,-0.005,-0.958,-0.305,241503
-0.299,-0.005,-0.958,-0.305,241507
-0.299,-0.005,-0.96,-0.183,241511
-0.299,-0.005,-0.96,-0.183,241515
-0.299,-0.005,-0.96,-0.183,241519
-0.298,-0.005,-0.959,-0.305,241523
-0.298,-0.005,-0.959,-0.183,241527
-0.297,-0.006,-0.957,-0.183,241531
-0.297,-0.006,-0.957,-0.183,241535
-0.299,-0.004,-0.958,-0.244,241539
-0.299,-0.004,-0.958,-0.244,241543
-0.299,-0.004,-0.958,-0.183,241547
-0.299,-0.005,-0.958,-0.122,241551
-0.299,-0.005,-0.958,-0.183,241555
-0.298,-0.005,-0.958,-0.366,241559
-0.298,-0.005,-0.958,-0.366,241563
-0.298,-0.005,-0.958,-0.305,241567
-0.297,-0.004,-0.958,-0.305,241571
-0.297,-0.004,-0.958,-0.183,241575
-0.298,-0.005,-0.958,-0.122,241579
-0.298,-0.005,-0.958,-0.122,241583
-0.298,-0.005,-0.958,-0.366,241587
-0.299,-0.005,-0.957,-0.244,241591
-0.299,-0.005,-0.957,-0.061,241595
-0.3,-0.006,-0.958,-0.244,241599
-0.3,-0.006,-0.958,-0.183,241603
-0.3,-0.006,-0.958,-0.183,241607
-0.298,-0.005,-0.959,-0.183,241611
-0.298,-0.005,-0.959,-0.183,241615
-0.299,-0.006,-0.958,-0.122,241619
-0.299,-0.006,-0.958,-0.305,241623
-0.299,-0.006,-0.958,-0.305,241627
-0.298,-0.005,-0.959,-0.305,241631
-0.298,-0.005,-0.959,-0.183,241636
-0.297,-0.004,-0.957,-0.183,241640
-0.297,-0.004,-0.957,-0.244,241644
-0.297,-0.004,-0.957,-0.244,241648
-0.298,-0.004,-0.959,-0.183,241652
-0.298,-0.004,-0.959,-0.305,241656
-0.298,-0.005,-0.959,-0.122,241660
-0.298,-0.005,-0.959,-0.122,241664
-0.298,-0.005,-0.959,-0.122,241668
-0.299,-0.005,-0.958,-0.122,241672
-0.299,-0.005,-0.958,-0.305,241676
-0.299,-0.006,-0.958,-0.183,241680
-0.299,-0.006,-0.958,-0.244,241684
-0.298,-0.006,-0.959,-0.183,241688
-0.298,-0.006,-0.959,-0.183,241692
-0.298,-0.006,-0.959,-0.061,241696
-0.298,-0.005,-0.958,-0.183,241700
-0.298,-0.005,-0.958,-0.244,241704
-0.298,-0.003,-0.957,-0.183,241708
-0.298,-0.003,-0.957,-0.183,241712
-0.298,-0.003,-0.957,-0.122,241716
-0.299,-0.005,-0.957,-0.183,241720
-0.299,-0.005,-0.957,-0.244,241724
-0.299,-0.005,-0.958,-0.183,241728
-0.299,-0.005,-0.958,-0.183,241732
-0.299,-0.005,-0.958,-0.244,241736
-0.297,-0.006,-0.958,-0.244,241740
-0.297,-0.006,-0.958,-0.183,241744
-0.3,-0.005,-0.958,-0.244,241748
-0.3,-0.005,-0.958,-0.183,241752
-0.3,-0.005,-0.958,-0.183,241756
-0.298,-0.005,-0.959,-0.183,241760
-0.298,-0.005,-0.959,-0.183,241764
-0.298,-0.006,-0.958,-0.183,241768
-0.298,-0.006,-0.958,-0.183,241772
-0.298,-0.006,-0.958,-0.183,241776
-0.298,-0.006,-0.959,-0.183,241780
-0.298,-0.006,-0.959,-0.305,241784
-0.299,-0.006,-0.958,-0.366,241788
-0.299,-0.006,-0.958,-0.305,241792
-0.299,-0.006,-0.958,-0.305,241796
-0.298,-0.005,-0.958,-0.061,241800
-0.298,-0.005,-0.958,-0.122,241805
-0.297,-0.005,-0.959,-0.244,241809
-0.297,-0.005,-0.959,-0.122,241813
-0.299,-0.005,-0.957,-0.122,241817
-0.299,-0.005,-0.957,-0.122,241821
-0.299,-0.005,-0.957,-0.244,241825
-0.299,-0.005,-0.957,-0.183,241829
-0.299,-0.005,-0.957,-0.122,241833
-0.299,-0.004,-0.959,-0.122,241837
-0.299,-0.004,-0.959,-0.122,241841
-0.299,-0.004,-0.959,-0.244,241845
-0.3,-0.004,-0.958,-0.183,241849
-0.3,-0.004,-0.958,-0.183,241853
-0.298,-0.004,-0.958,-0.183,241857
-0.298,-0.004,-0.958,-0.183,241861
-0.298,-0.004,-0.958,-0.244,241865
-0.298,-0.005,-0.959,-0.366,241869
-0.298,-0.005,-0.959,-0.305,241873
-0.299,-0.005,-0.958,-0.366,241877
-0.299,-0.005,-0.958,-0.366,241881
-0.299,-0.005,-0.958,-0.183,241885
-0.298,-0.006,-0.958,-0.122,241889
-0.298,-0.006,-0.958,-0.244,241893
-0.297,-0.005,-0.958,-0.244,241897
-0.297,-0.005,-0.958,-0.061,241901
-0.297,-0.005,-0.958,-0.061,241905
-0.299,-0.005,-0.959,-0.305,241909
-0.299,-0.005,-0.959,-0.183,241913
-0.3,-0.004,-0.959,-0.244,241917
-0.3,-0.004,-0.959,-0.244,241921
-0.3,-0.004,-0.959,-0.244,241925
-0.298,-0.005,-0.958,-0.183,241929
-0.298,-0.005,-0.958,-0.122,241933
-0.299,-0.006,-0.959,-0.183,241937
-0.299,-0.006,-0.959,-0.122,241941
-0.299,-0.006,-0.959,-0.122,241945
-0.299,-0.005,-0.958,-0.122,241949
-0.299,-0.005,-0.958,-0.244,241953
-0.299,-0.007,-0.959,-0.183,241957
-0.299,-0.007,-0.959,-0.183,241961
-0.297,-0.006,-0.958,-0.305,241965
-0.297,-0.006,-0.958,-0.305,241969
-0.297,-0.006,-0.958,-0.244,241973
-0.299,-0.006,-0.956,-0.183,241977
-0.299,-0.006,-0.956,-0.183,241982
-0.301,-0.005,-0.957,-0.305,241986
-0.301,-0.005,-0.957,-0.305,241990
-0.301,-0.005,-0.957,-0.183,241994
-0.299,-0.004,-0.958,-0.122,241998
-0.299,-0.004,-0.958,-0.244,242002
-0.299,-0.005,-0.958,-0.183,242006
-0.299,-0.005,-0.958,-0.183,242010
-0.299,-0.005,-0.958,-0.183,242014
-0.298,-0.005,-0.957,-0.244,242018
-0.298,-0.005,-0.957,-0.183,242022
-0.297,-0.004,-0.958,-0.183,242026
-0.297,-0.004,-0.958,-0.183,242030
-0.297,-0.004,-0.958,-0.183,242034
-0.299,-0.006,-0.959,-0.122,242038
-0.299,-0.006,-0.959,-0.183,242042
-0.297,-0.006,-0.957,-0.244,242046
-0.297,-0.006,-0.957,-0.061,242050
-0.297,-0.006,-0.957,-0.061,242054
-0.297,-0.005,-0.958,-0.244,242058
-0.297,-0.005,-0.958,-0.183,242062
-0.299,-0.005,-0.958,-0.305,242066
-0.299,-0.005,-0.958,-0.122,242070
-0.299,-0.005,-0.958,-0.122,242074
-0.298,-0.005,-0.959,-0.244,242078
-0.298,-0.005,-0.959,-0.244,242082
-0.299,-0.005,-0.958,-0.183,242086
-0.299,-0.005,-0.958,-0.061,242090
-0.299,-0.005,-0.958,-0.061,242094
-0.3,-0.006,-0.958,-0.244,242098
-0.3,-0.006,-0.958,-0.183,242102
-0.297,-0.006,-0.958,-0.183,242106
-0.297,-0.006,-0.958,-0.183,242110
-0.297,-0.006,-0.959,-0.244,242114
-0.297,-0.006,-0.959,-0.244,242118
-0.297,-0.006,-0.959,-0.244,242122
-0.299,-0.006,-0.959,-0.061,242126
-0.299,-0.006,-0.959,-0.183,242130
-0.298,-0.006,-0.957,-0.122,242134
-0.298,-0.006,-0.957,-0.122,242138
-0.298,-0.006,-0.957,-0.244,242142
-0.298,-0.005,-0.958,-0.305,242146
-0.298,-0.005,-0.958,-0.183,242150
-0.299,-0.006,-0.958,-0.305,242155
-0.299,-0.006,-0.958,-0.305,242159
-0.299,-0.006,-0.958,-0.183,242163
-0.299,-0.006,-0.958,-0.244,242167
-0.299,-0.006,-0.958,-0.244,242171
-0.299,-0.005,-0.959,-0.244,242175
-0.299,-0.005,-0.959,-0.183,242179
-0.299,-0.005,-0.959,-0.183,242183
-0.298,-0.007,-0.958,-0.366,242187
-0.298,-0.007,-0.958,-0.366,242191
-0.299,-0.006,-0.958,-0.244,242195
-0.299,-0.006,-0.958,-0.244,242199
-0.299,-0.006,-0.958,-0.244,242203
-0.298,-0.005,-0.959,-0.305,242207
-0.298,-0.005,-0.959,-0.183,242211
-0.299,-0.005,-0.958,-0.122,242215
-0.299,-0.005,-0.958,-0.122,242219
-0.299,-0.005,-0.958,-0.122,242223
-0.298,-0.004,-0.959,-0.183,242227
-0.298,-0.004,-0.959,-0.183,242231
-0.298,-0.005,-0.959,-0.183,242235
-0.298,-0.005,-0.959,-0.122,242239
-0.298,-0.005,-0.959,-0.122,242243
-0.299,-0.006,-0.957,-0.061,242247
-0.299,-0.006,-0.957,-0.183,242251
-0.298,-0.006,-0.959,-0.366,242255
-0.298,-0.006,-0.959,-0.366,242259
-0.299,-0.006,-0.958,-0.061,242263
-0.299,-0.006,-0.958,-0.061,242267
-0.299,-0.006,-0.958,-0.183,242271
-0.299,-0.006,-0.958,-0.244,242275
-0.299,-0.006,-0.958,-0.183,242279
-0.299,-0.005,-0.957,-0.183,242283
-0.299,-0.005,-0.957,-0.183,242287
-0.299,-0.005,-0.957,-0.305,242291
-0.298,-0.006,-0.957,-0.305,242295
-0.298,-0.006,-0.957,-0.183,242299
-0.298,-0.005,-0.957,-0.244,242303
-0.298,-0.005,-0.957,-0.244,242307
-0.298,-0.005,-0.957,-0.244,242311
-0.298,-0.005,-0.958,-0.244,242315
-0.298,-0.005,-0.958,-0.183,242319
-0.297,-0.006,-0.956,-0.122,242323
-0.297,-0.006,-0.956,-0.244,242328
-0.297,-0.006,-0.956,-0.244,242332
-0.299,-0.005,-0.957,-0.244,242336
-0.299,-0.005,-0.957,-0.122,242340
-0.3,-0.005,-0.959,-0.183,242344
-0.3,-0.005,-0.959,-0.122,242348
-0.3,-0.005,-0.959,-0.122,242352
-0.299,-0.004,-0.958,-0.183,242356
-0.299,-0.004,-0.958,-0.122,242360
-0.298,-0.005,-0.958,-0.122,242364
-0.298,-0.005,-0.958,-0.244,242368
-0.298,-0.005,-0.958,-0.244,242372
-0.298,-0.007,-0.957,-0.183,242376
-0.298,-0.007,-0.957,-0.122,242380
-0.299,-0.006,-0.958,-0.244,242384
-0.299,-0.006,-0.958,-0.122,242388
-0.297,-0.006,-0.957,-0.244,242392
-0.297,-0.006,-0.957,-0.244,242396
-0.297,-0.006,-0.957,-0.183,242400
-0.298,-0.006,-0.958,-0.183,242404
-0.298,-0.006,-0.958,-0.122,242408
-0.297,-0.005,-0.958,-0.122,242412
-0.297,-0.005,-0.958,-0.122,242416
-0.297,-0.005,-0.958,-0.244,242420
-0.299,-0.003,-0.959,-0.183,242424
-0.299,-0.003,-0.959,-0.244,242428
-0.298,-0.006,-0.959,-0.244,242432
-0.298,-0.006,-0.959,-0.244,242436
-0.298,-0.006,-0.959,-0.244,242440
-0.3,-0.007,-0.958,-0.183,242444
-0.3,-0.007,-0.958,-0.366,242448
-0.298,-0.006,-0.958,-0.244,242452
-0.298,-0.006,-0.958,-0.244,242456
-0.298,-0.006,-0.958,-0.122,242460
-0.298,-0.005,-0.957,-0.244,242464
-0.298,-0.005,-0.957,-0.244,242468
-0.298,-0.006,-0.958,-0.244,242472
-0.298,-0.006,-0.958,-0.244,242476
-0.298,-0.006,-0.958,-0.244,242480
-0.3,-0.006,-0.959,-0.244,242485
-0.3,-0.006,-0.959,-0.244,242489
-0.298,-0.005,-0.959,-0.183,242493
-0.298,-0.005,-0.959,-0.183,242497
-0.298,-0.005,-0.959,-0.183,242501
-0.299,-0.004,-0.958,-0.183,242505
-0.299,-0.004,-0.958,-0.183,242509
-0.3,-0.004,-0.958,-0.244,242513
-0.3,-0.004,-0.958,-0.122,242517
-0.3,-0.004,-0.958,-0.122,242521
-0.299,-0.006,-0.958,-0.244,242525
-0.299,-0.006,-0.958,-0.183,242529
-0.298,-0.004,-0.958,-0.061,242533
-0.298,-0.004,-0.958,-0.061,242537
-0.298,-0.007,-0.958,-0.183,242541
-0.298,-0.007,-0.958,-0.183,242545
-0.298,-0.007,-0.958,-0.244,242549
-0.297,-0.006,-0.959,-0.305,242553
-0.297,-0.006,-0.959,-0.366,242557
-0.298,-0.006,-0.958,-0.305,242561
-0.298,-0.006,-0.958,-0.305,242565
-0.298,-0.006,-0.958,-0.122,242569
-0.298,-0.004,-0.958,-0.244,242573
-0.298,-0.004,-0.958,-0.244,242577
-0.298,-0.004,-0.958,-0.183,242581
-0.298,-0.004,-0.958,-0.183,242585
-0.298,-0.004,-0.958,-0.122,242589
-0.3,-0.004,-0.959,-0.122,242593
-0.3,-0.004,-0.959,-0.244,242597
-0.3,-0.006,-0.958,-0.244,242601
-0.3,-0.006,-0.958,-0.244,242605
-0.3,-0.006,-0.958,-0.244,242609
-0.298,-0.006,-0.959,-0.183,242613
-0.298,-0.006,-0.959,-0.183,242617
-0.297,-0.005,-0.959,-0.244,242621
-0.297,-0.005,-0.959,-0.427,242625
-0.297,-0.005,-0.959,-0.427,242629
-0.298,-0.007,-0.958,-0.244,242633
-0.298,-0.007,-0.958,-0.061,242637
-0.298,-0.005,-0.959,-0.122,242642
-0.298,-0.005,-0.959,-0.305,242646
-0.298,-0.005,-0.959,-0.305,242650
-0.297,-0.005,-0.958,-0.427,242654
-0.297,-0.005,-0.958,-0.122,242658
-0.298,-0.006,-0.958,-0.061,242662
-0.298,-0.006,-0.958,-0.183,242666
-0.297,-0.006,-0.959,-0.183,242670
-0.297,-0.006,-0.959,-0.183,242674
-0.297,-0.006,-0.959,-0.183,242678
-0.298,-0.006,-0.959,-0.366,242682
-0.298,-0.006,-0.959,-0.244,242686
-0.299,-0.006,-0.957,-0.122,242690
-0.299,-0.006,-0.957,-0.122,242694
-0.299,-0.006,-0.957,-0.183,242698
-0.299,-0.005,-0.958,-0.244,242702
-0.299,-0.005,-0.958,-0.183,242706
-0.299,-0.006,-0.959,-0.244,242710
-0.299,-0.006,-0.959,-0.244,242714
-0.299,-0.006,-0.959,-0.183,242718
-0.298,-0.004,-0.959,-0.366,242722
-0.298,-0.004,-0.959,-0.244,242726
-0.297,-0.004,-0.958,-0.244,242730
-0.297,-0.004,-0.958,-0.244,242734
-0.297,-0.004,-0.958,-0.122,242738
-0.299,-0.005,-0.957,-0.183,242742
-0.299,-0.005,-0.957,-0.305,242746
-0.298,-0.005,-0.958,-0.305,242750
-0.298,-0.005,-0.958,-0.183,242754
-0.298,-0.005,-0.958,-0.183,242758
-0.298,-0.006,-0.958,-0.183,242762
-0.298,-0.006,-0.958,-0.244,242766
-0.299,-0.006,-0.958,-0.183,242770
-0.299,-0.006,-0.958,-0.244,242774
-0.299,-0.006,-0.958,-0.244,242778
-0.298,-0.006,-0.959,-0.305,242782
-0.298,-0.006,-0.959,-0.244,242786
-0.297,-0.005,-0.958,-0.122,242790
-0.297,-0.005,-0.958,-0.183,242794
-0.297,-0.005,-0.958,-0.183,242798
-0.297,-0.005,-0.959,-0.183,242802
-0.297,-0.005,-0.959,-0.122,242806
-0.299,-0.005,-0.958,-0.061,242811
-0.299,-0.005,-0.958,-0.122,242815
-0.298,-0.004,-0.958,-0.183,242819
-0.298,-0.004,-0.958,-0.183,242823
-0.298,-0.004,-0.958,-0.183,242827
-0.299,-0.005,-0.959,-0.183,242831
-0.299,-0.005,-0.959,-0.183,242835
-0.299,-0.005,-0.959,-0.427,242839
-0.299,-0.005,-0.959,-0.427,242843
-0.299,-0.005,-0.959,-0.244,242847
-0.296,-0.006,-0.958,-0.183,242851
-0.296,-0.006,-0.958,-0.366,242855
-0.297,-0.005,-0.957,-0.366,242859
-0.297,-0.005,-0.957,-0.366,242863
-0.297,-0.005,-0.957,-0.244,242867
-0.298,-0.004,-0.957,-0.183,242871
-0.298,-0.004,-0.957,-0.183,242875
-0.299,-0.004,-0.957,-0.122,242879
-0.299,-0.004,-0.957,-0.183,242883
-0.299,-0.004,-0.957,-0.183,242887
-0.299,-0.005,-0.958,-0.183,242891
-0.299,-0.005,-0.958,-0.183,242895
-0.297,-0.006,-0.959,-0.122,242899
-0.297,-0.006,-0.959,-0.183,242903
-0.297,-0.006,-0.959,-0.183,242907
-0.298,-0.006,-0.958,-0.122,242911
-0.298,-0.006,-0.958,-0.183,242915
-0.298,-0.008,-0.959,-0.244,242919
-0.298,-0.008,-0.959,-0.305,242923
-0.298,-0.008,-0.959,-0.305,242927
-0.299,-0.006,-0.957,-0.244,242931
-0.299,-0.006,-0.957,-0.183,242935
-0.296,-0.005,-0.957,-0.061,242939
-0.296,-0.005,-0.957,-0.122,242943
-0.297,-0.005,-0.958,-0.244,242947
-0.297,-0.005,-0.958,-0.244,242951
-0.297,-0.005,-0.958,-0.244,242955
-0.297,-0.006,-0.958,-0.244,242959
-0.297,-0.006,-0.958,-0.244,242963
-0.299,-0.004,-0.96,-0.183,242968
-0.299,-0.004,-0.96,-0.183,242972
-0.299,-0.004,-0.96,-0.244,242976
-0.298,-0.005,-0.958,-0.244,242980
-0.298,-0.005,-0.958,-0.183,242984
-0.299,-0.006,-0.957,-0.183,242988
-0.299,-0.006,-0.957,-0.183,242992
-0.299,-0.006,-0.957,-0.244,242996
-0.3,-0.005,-0.958,-0.305,243000
-0.3,-0.005,-0.958,-0.305,243004
-0.298,-0.006,-0.958,-0.305,243008
-0.298,-0.006,-0.958,-0.305,243012
-0.298,-0.006,-0.958,-0.183,243016
-0.298,-0.005,-0.959,-0.244,243020
-0.298,-0.005,-0.959,-0.366,243024
-0.299,-0.006,-0.958,-0.305,243028
-0.299,-0.006,-0.958,-0.244,243032
-0.299,-0.006,-0.958,-0.244,243036
-0.298,-0.004,-0.958,-0.122,243040
-0.298,-0.004,-0.958,-0.244,243044
-0.298,-0.005,-0.959,-0.183,243048
-0.298,-0.005,-0.959,-0.183,243052
-0.298,-0.005,-0.959,-0.183,243056
-0.298,-0.007,-0.957,-0.183,243060
-0.298,-0.007,-0.957,-0.244,243064
-0.297,-0.006,-0.958,-0.244,243068
-0.297,-0.006,-0.958,-0.183,243072
-0.297,-0.006,-0.958,-0.183,243076
-0.299,-0.005,-0.958,-0.183,243080
-0.299,-0.005,-0.958,-0.183,243084
-0.298,-0.005,-0.958,-0.244,243088
-0.298,-0.005,-0.958,-0.305,243092
-0.298,-0.006,-0.958,-0.244,243096
-0.298,-0.006,-0.958,-0.244,243100
-0.298,-0.006,-0.958,-0.305,243104
-0.298,-0.006,-0.959,-0.183,243108
-0.298,-0.006,-0.959,-0.427,243112
-0.298,-0.004,-0.96,-0.244,243116
-0.298,-0.004,-0.96,-0.244,243120
-0.298,-0.004,-0.96,-0.122,243124
-0.298,-0.006,-0.959,-0.183,243129
-0.298,-0.006,-0.959,-0.183,243133
-0.298,-0.005,-0.959,-0.305,243137
-0.298,-0.005,-0.959,-0.305,243141
-0.298,-0.005,-0.959,-0.061,243145
-0.297,-0.006,-0.959,-0.122,243149
-0.297,-0.006,-0.959,-0.122,243153
-0.296,-0.005,-0.956,-0.183,243157
-0.296,-0.005,-0.956,-0.183,243161
-0.296,-0.005,-0.956,-0.183,243165
-0.299,-0.006,-0.958,-0.305,243169
-0.299,-0.006,-0.958,-0.183,243173
-0.298,-0.006,-0.958,-0.122,243177
-0.298,-0.006,-0.958,-0.183,243181
-0.298,-0.006,-0.958,-0.183,243185
-0.297,-0.006,-0.958,-0.244,243189
-0.297,-0.006,-0.958,-0.366,243193
-0.298,-0.007,-0.959,-0.244,243197
-0.298,-0.007,-0.959,-0.366,243201
-0.298,-0.007,-0.959,-0.366,243205
-0.299,-0.006,-0.959,-0.183,243209
-0.299,-0.006,-0.959,-0.305,243213
-0.298,-0.005,-0.958,-0.305,243217
-0.298,-0.005,-0.958,-0.122,243221
-0.298,-0.005,-0.957,-0.183,243225
-0.298,-0.005,-0.957,-0.183,243229
-0.298,-0.005,-0.957,-0.366,243233
-0.299,-0.004,-0.957,-0.305,243237
-0.299,-0.004,-0.957,-0.183,243241
-0.301,-0.006,-0.959,-0.122,243245
-0.301,-0.006,-0.959,-0.122,243249
-0.301,-0.006,-0.959,-0.244,243253
-0.3,-0.006,-0.958,-0.244,243257
-0.3,-0.006,-0.958,-0.244,243261
-0.298,-0.007,-0.957,-0.244,243265
-0.298,-0.007,-0.957,-0.244,243269
-0.298,-0.007,-0.957,-0.183,243273
-0.299,-0.005,-0.958,-0.183,243277
-0.299,-0.005,-0.958,-0.183,243282
-0.299,-0.006,-0.957,-0.244,243286
-0.299,-0.006,-0.957,-0.244,243290
-0.299,-0.006,-0.957,-0.244,243294
-0.3,-0.007,-0.959,-0.122,243298
-0.3,-0.007,-0.959,-0.305,243302
-0.299,-0.006,-0.959,-0.244,243306
-0.299,-0.006,-0.959,-0.305,243310
-0.299,-0.006,-0.959,-0.305,243314
-0.297,-0.005,-0.958,-0.305,243318
-0.297,-0.005,-0.958,-0.122,243322
-0.298,-0.005,-0.958,-0.183,243326
-0.298,-0.005,-0.958,-0.183,243330
-0.298,-0.005,-0.958,-0.183,243334
-0.299,-0.005,-0.959,-0.183,243338
-0.299,-0.005,-0.959,-0.244,243342
-0.298,-0.006,-0.958,-0.183,243346
-0.298,-0.006,-0.958,-0.244,243350
-0.298,-0.006,-0.958,-0.244,243354
-0.298,-0.006,-0.956,-0.183,243358
-0.298,-0.006,-0.956,-0.183,243362
-0.299,-0.006,-0.957,-0.122,243366
-0.299,-0.006,-0.957,-0.122,243370
-0.3,-0.006,-0.957,-0.183,243374
-0.3,-0.006,-0.957,-0.183,243378
-0.3,-0.006,-0.957,-0.122,243382
-0.298,-0.006,-0.958,-0.305,243386
-0.298,-0.006,-0.958,-0.183,243390
-0.298,-0.006,-0.959,-0.244,243394
-0.298,-0.006,-0.959,-0.244,243398
-0.298,-0.006,-0.959,-0.122,243402
-0.298,-0.006,-0.959,-0.305,243406
-0.298,-0.006,-0.959,-0.305,243410
-0.299,-0.006,-0.959,-0.061,243414
-0.299,-0.006,-0.959,-0.061,243418
-0.299,-0.006,-0.959,-0.122,243422
-0.298,-0.005,-0.958,-0.366,243426
-0.298,-0.005,-0.958,-0.305,243430
-0.298,-0.006,-0.957,-0.183,243434
-0.298,-0.006,-0.957,-0.183,243438
-0.298,-0.006,-0.957,-0.183,243442
-0.299,-0.006,-0.957,-0.183,243446
-0.299,-0.006,-0.957,-0.183,243450
-0.299,-0.005,-0.958,-0.183,243455
-0.299,-0.005,-0.958,-0.122,243459
-0.299,-0.005,-0.958,-0.122,243463
-0.298,-0.006,-0.958,-0.183,243467
-0.298,-0.006,-0.958,-0.183,243471
-0.299,-0.006,-0.958,-0.244,243475
-0.299,-0.006,-0.958,-0.183,243479
-0.299,-0.006,-0.958,-0.183,243483
-0.298,-0.007,-0.957,-0.305,243487
-0.298,-0.007,-0.957,-0.244,243491
-0.297,-0.005,-0.957,-0.122,243495
-0.297,-0.005,-0.957,-0.183,243499
-0.297,-0.005,-0.957,-0.183,243503
-0.297,-0.005,-0.959,-0.244,243507
-0.297,-0.005,-0.959,-0.244,243511
-0.299,-0.004,-0.958,-0.183,243515
-0.299,-0.004,-0.958,-0.122,243519
-0.296,-0.005,-0.957,-0.183,243523
-0.296,-0.005,-0.957,-0.183,243527
-0.296,-0.005,-0.957,-0.183,243531
-0.297,-0.005,-0.958,-0.244,243535
-0.297,-0.005,-0.958,-0.244,243539
-0.299,-0.006,-0.959,-0.122,243543
-0.299,-0.006,-0.959,-0.122,243547
-0.299,-0.006,-0.959,-0.183,243551
-0.299,-0.005,-0.958,-0.244,243555
-0.299,-0.005,-0.958,-0.122,243559
-0.298,-0.005,-0.956,-0.122,243563
-0.298,-0.005,-0.956,-0.122,243567
-0.298,-0.005,-0.956,-0.305,243571
-0.298,-0.005,-0.956,-0.244,243575
-0.298,-0.005,-0.956,-0.244,243579
-0.297,-0.006,-0.955,-0.305,243583
-0.297,-0.006,-0.955,-0.305,243587
-0.297,-0.006,-0.955,-0.305,243591
-0.298,-0.005,-0.951,-0.305,243595
-0.298,-0.005,-0.951,-0.122,243599
-0.3,-0.005,-0.957,-0.122,243603
-0.3,-0.005,-0.957,-0.305,243607
-0.3,-0.005,-0.957,-0.305,243611
-0.302,-0.004,-0.964,-0.305,243615
-0.302,-0.004,-0.964,-0.244,243619
-0.3,-0.005,-0.961,-0.183,243623
-0.3,-0.005,-0.961,-0.244,243628
-0.3,-0.005,-0.961,-0.244,243632
-0.299,-0.005,-0.955,-0.305,243636
-0.299,-0.005,-0.955,-0.244,243640
-0.298,-0.005,-0.96,-0.244,243644
-0.298,-0.005,-0.96,-0.122,243648
-0.298,-0.005,-0.96,-0.122,243652
-0.3,-0.006,-0.963,-0.183,243656
-0.3,-0.006,-0.963,-0.244,243660
-0.299,-0.005,-0.953,-0.183,243664
-0.299,-0.005,-0.953,-0.183,243668
-0.298,-0.006,-0.95,-0.122,243672
-0.298,-0.006,-0.95,-0.122,243676
-0.298,-0.006,-0.95,-0.183,243680
-0.301,-0.004,-0.96,-0.244,243684
-0.301,-0.004,-0.96,-0.122,243688
-0.297,-0.004,-0.963,-0.244,243692
-0.297,-0.004,-0.963,-0.244,243696
-0.297,-0.004,-0.963,-0.183,243700
-0.295,-0.007,-0.957,-0.183,243704
-0.295,-0.007,-0.957,-0.061,243708
-0.294,-0.006,-0.957,-0.061,243712
-0.294,-0.006,-0.957,-0.061,243716
-0.294,-0.006,-0.957,-0.122,243720
-0.298,-0.005,-0.962,-0.183,243724
-0.298,-0.005,-0.962,-0.183,243728
-0.299,-0.005,-0.963,-0.183,243732
-0.299,-0.005,-0.963,-0.244,243736
-0.299,-0.005,-0.963,-0.244,243740
-0.295,-0.005,-0.952,-0.244,243744
-0.295,-0.005,-0.952,-0.244,243748
-0.295,-0.005,-0.953,-0.305,243752
-0.295,-0.005,-0.953,-0.122,243756
-0.295,-0.005,-0.953,-0.122,243760
-0.297,-0.006,-0.962,-0.183,243764
-0.297,-0.006,-0.962,-0.122,243768
-0.298,-0.006,-0.962,-0.305,243772
-0.298,-0.006,-0.962,-0.122,243776
-0.298,-0.006,-0.962,-0.122,243780
-0.294,-0.007,-0.956,0.061,243784
-0.294,-0.007,-0.956,-0.183,243789
-0.295,-0.006,-0.955,-0.244,243793
-0.295,-0.006,-0.955,0.0,243797
-0.299,-0.005,-0.965,-0.183,243801
-0.299,-0.005,-0.965,-0.183,243805
-0.299,-0.005,-0.965,-0.183,243809
-0.297,-0.005,-0.963,-0.183,243813
-0.297,-0.005,-0.963,-0.183,243817
-0.295,-0.005,-0.953,-0.244,243821
-0.295,-0.005,-0.953,-0.244,243825
-0.295,-0.005,-0.953,-0.183,243829
-0.297,-0.005,-0.957,-0.183,243833
-0.297,-0.005,-0.957,-0.244,243837
-0.299,-0.005,-0.964,-0.244,243841
-0.299,-0.005,-0.964,-0.244,243845
-0.299,-0.005,-0.964,-0.183,243849
-0.298,-0.005,-0.961,-0.183,243853
-0.298,-0.005,-0.961,-0.244,243857
-0.299,-0.004,-0.955,-0.183,243861
-0.299,-0.004,-0.955,-0.183,243865
-0.299,-0.004,-0.955,-0.183,243869
-0.3,-0.006,-0.957,-0.305,243873
-0.3,-0.006,-0.957,-0.244,243877
-0.3,-0.004,-0.962,-0.122,243881
-0.3,-0.004,-0.962,-0.061,243885
-0.3,-0.004,-0.962,-0.061,243889
-0.299,-0.006,-0.958,-0.244,243893
-0.299,-0.006,-0.958,-0.244,243897
-0.299,-0.007,-0.953,-0.244,243901
-0.299,-0.007,-0.953,-0.244,243905
-0.299,-0.007,-0.953,-0.244,243909
-0.299,-0.006,-0.956,-0.122,243913
-0.299,-0.006,-0.956,-0.122,243917
-0.301,-0.006,-0.961,-0.244,243921
-0.301,-0.006,-0.961,-0.122,243925
-0.301,-0.006,-0.961,-0.122,243929
-0.299,-0.005,-0.957,-0.183,243933
-0.299,-0.005,-0.957,-0.305,243937
-0.298,-0.004,-0.957,-0.305,243941
-0.298,-0.004,-0.957,-0.244,243945
-0.299,-0.005,-0.959,-0.183,243949
-0.299,-0.005,-0.959,-0.183,243953
-0.299,-0.005,-0.959,-0.122,243957
-0.299,-0.006,-0.96,-0.244,243962
-0.299,-0.006,-0.96,-0.305,243966
-0.298,-0.007,-0.955,-0.366,243970
-0.298,-0.007,-0.955,-0.366,243974
-0.298,-0.007,-0.955,-0.305,243978
-0.298,-0.006,-0.955,-0.122,243982
-0.298,-0.006,-0.955,-0.183,243986
-0.299,-0.005,-0.958,-0.244,243990
-0.299,-0.005,-0.958,-0.244,243994
-0.299,-0.005,-0.958,-0.305,243998
-0.298,-0.005,-0.959,-0.183,244002
-0.298,-0.005,-0.959,-0.244,244006
-0.297,-0.006,-0.958,-0.183,244010
-0.297,-0.006,-0.958,-0.244,244014
-0.297,-0.006,-0.958,-0.244,244018
-0.296,-0.007,-0.959,-0.183,244022
-0.296,-0.007,-0.959,-0.061,244026
-0.297,-0.006,-0.96,-0.183,244030
-0.297,-0.006,-0.96,-0.244,244034
-0.297,-0.006,-0.96,-0.244,244038
-0.297,-0.005,-0.958,-0.244,244042
-0.297,-0.005,-0.958,-0.183,244046
-0.297,-0.005,-0.957,-0.305,244050
-0.297,-0.005,-0.957,-0.183,244054
-0.297,-0.005,-0.957,-0.183,244058
-0.299,-0.005,-0.956,-0.244,244062
-0.299,-0.005,-0.956,-0.183,244066
-0.298,-0.005,-0.956,-0.183,244070
-0.298,-0.005,-0.956,-0.183,244074
-0.298,-0.006,-0.957,-0.183,244078
-0.298,-0.006,-0.957,-0.183,244082
-0.298,-0.006,-0.957,-0.122,244086
-0.298,-0.006,-0.959,-0.183,244090
-0.298,-0.006,-0.959,-0.305,244094
-0.299,-0.006,-0.96,-0.366,244098
-0.299,-0.006,-0.96,-0.366,244102
-0.299,-0.006,-0.96,-0.183,244106
-0.299,-0.004,-0.959,-0.244,244110
-0.299,-0.004,-0.959,-0.305,244114
-0.3,-0.005,-0.958,-0.183,244119
-0.3,-0.005,-0.958,-0.183,244123
-0.3,-0.005,-0.958,-0.305,244127
-0.299,-0.007,-0.957,-0.305,244131
-0.299,-0.007,-0.957,-0.244,244135
-0.3,-0.006,-0.958,-0.122,244139
-0.3,-0.006,-0.958,-0.122,244143
-0.3,-0.006,-0.958,-0.183,244147
-0.3,-0.005,-0.954,-0.305,244151
-0.3,-0.005,-0.954,-0.244,244155
-0.298,-0.005,-0.956,-0.183,244159
-0.298,-0.005,-0.956,-0.244,244163
-0.298,-0.005,-0.956,-0.244,244167
-0.301,-0.005,-0.962,-0.305,244171
-0.301,-0.005,-0.962,-0.244,244175
-0.302,-0.004,-0.964,-0.244,244179
-0.302,-0.004,-0.964,-0.244,244183
-0.302,-0.004,-0.964,-0.244,244187
-0.298,-0.005,-0.958,-0.244,244191
-0.298,-0.005,-0.958,-0.183,244195
-0.297,-0.005,-0.954,-0.244,244199
-0.297,-0.005,-0.954,-0.122,244203
-0.297,-0.005,-0.954,-0.122,244207
-0.298,-0.007,-0.953,-0.061,244211
-0.298,-0.007,-0.953,-0.183,244215
-0.3,-0.005,-0.956,-0.183,244219
-0.3,-0.005,-0.956,-0.183,244223
-0.301,-0.004,-0.956,-0.122,244227
-0.301,-0.004,-0.956,-0.122,244231
-0.301,-0.004,-0.956,-0.122,244235
-0.298,-0.005,-0.956,-0.244,244239
-0.298,-0.005,-0.956,-0.305,244243
-0.299,-0.006,-0.962,-0.122,244247
-0.299,-0.006,-0.962,-0.122,244251
-0.299,-0.006,-0.962,-0.122,244255
-0.297,-0.007,-0.96,-0.122,244259
-0.297,-0.007,-0.96,-0.183,244263
-0.295,-0.006,-0.96,-0.244,244267
-0.295,-0.006,-0.96,-0.244,244271
-0.295,-0.006,-0.96,-0.122,244275
-0.297,-0.006,-0.96,0.0,244279
-0.297,-0.006,-0.96,-0.122,244283
-0.298,-0.005,-0.958,-0.183,244287
-0.298,-0.005,-0.958,-0.183,244291
-0.298,-0.005,-0.958,-0.183,244295
-0.296,-0.004,-0.956,-0.183,244299
-0.296,-0.004,-0.956,-0.183,244303
-0.295,-0.004,-0.956,-0.244,244308
-0.295,-0.004,-0.956,-0.244,244312
-0.295,-0.004,-0.956,-0.244,244316
-0.297,-0.006,-0.96,-0.305,244320
-0.297,-0.006,-0.96,-0.122,244324
-0.295,-0.005,-0.964,-0.183,244328
-0.295,-0.005,-0.964,-0.305,244332
-0.295,-0.005,-0.964,-0.305,244336
-0.296,-0.006,-0.96,-0.183,244340
-0.296,-0.006,-0.96,-0.122,244344
-0.296,-0.005,-0.957,-0.061,244348
-0.296,-0.005,-0.957,-0.244,244352
-0.296,-0.005,-0.957,-0.244,244356
-0.298,-0.004,-0.957,-0.183,244360
-0.298,-0.004,-0.957,-0.183,244364
-0.299,-0.005,-0.957,-0.366,244368
-0.299,-0.005,-0.957,-0.305,244372
-0.299,-0.005,-0.958,-0.183,244376
-0.299,-0.005,-0.958,-0.183,244380
-0.299,-0.005,-0.958,-0.183,244384
-0.297,-0.007,-0.956,-0.244,244388
-0.297,-0.007,-0.956,-0.305,244392
-0.296,-0.005,-0.959,-0.305,244396
-0.296,-0.005,-0.959,-0.305,244400
-0.296,-0.005,-0.959,-0.305,244404
-0.297,-0.006,-0.961,-0.244,244408
-0.297,-0.006,-0.961,-0.183,244412
-0.297,-0.004,-0.96,-0.244,244416
-0.297,-0.004,-0.96,-0.244,244420
-0.297,-0.004,-0.96,-0.122,244424
-0.298,-0.003,-0.958,-0.244,244428
-0.298,-0.003,-0.958,-0.244,244432
-0.3,-0.005,-0.958,-0.122,244436
-0.3,-0.005,-0.958,-0.244,244440
-0.3,-0.005,-0.958,-0.244,244444
-0.299,-0.006,-0.955,-0.244,244448
-0.299,-0.006,-0.955,-0.061,244452
-0.299,-0.006,-0.955,-0.183,244456
-0.299,-0.006,-0.955,-0.183,244460
-0.299,-0.006,-0.955,-0.183,244465
-0.299,-0.007,-0.958,-0.183,244469
-0.299,-0.007,-0.958,-0.122,244473
-0.301,-0.005,-0.959,-0.305,244477
-0.301,-0.005,-0.959,-0.305,244481
-0.301,-0.005,-0.959,-0.305,244485
-0.3,-0.005,-0.958,-0.244,244489
-0.3,-0.005,-0.958,-0.244,244493
-0.3,-0.004,-0.958,-0.183,244497
-0.3,-0.004,-0.958,-0.183,244501
-0.3,-0.004,-0.958,-0.183,244505
-0.299,-0.003,-0.957,-0.244,244509
-0.299,-0.003,-0.957,-0.244,244513
-0.301,-0.003,-0.958,-0.183,244517
-0.301,-0.003,-0.958,-0.122,244521
-0.3,-0.006,-0.957,-0.305,244525
-0.3,-0.006,-0.957,-0.305,244529
-0.3,-0.006,-0.957,-0.183,244533
-0.299,-0.006,-0.957,-0.244,244537
-0.299,-0.006,-0.957,-0.183,244541
-0.298,-0.007,-0.958,-0.244,244545
-0.298,-0.007,-0.958,-0.244,244549
-0.298,-0.007,-0.958,-0.122,244553
-0.299,-0.008,-0.96,-0.122,244557
-0.299,-0.008,-0.96,-0.305,244561
-0.299,-0.005,-0.959,-0.305,244565
-0.299,-0.005,-0.959,-0.305,244569
-0.299,-0.005,-0.959,-0.122,244573
-0.298,-0.007,-0.96,-0.183,244577
-0.298,-0.007,-0.96,-0.244,244581
-0.298,-0.007,-0.958,-0.366,244585
-0.298,-0.007,-0.958,-0.183,244589
-0.298,-0.007,-0.958,-0.183,244593
-0.296,-0.007,-0.959,-0.244,244597
-0.296,-0.007,-0.959,-0.305,244601
-0.296,-0.005,-0.958,-0.183,244605
-0.296,-0.005,-0.958,-0.183,244609
-0.296,-0.005,-0.958,-0.183,244613
-0.298,-0.006,-0.958,-0.122,244617
-0.298,-0.006,-0.958,-0.183,244621
-0.298,-0.006,-0.959,-0.122,244625
-0.298,-0.006,-0.959,-0.122,244629
-0.298,-0.006,-0.959,-0.122,244633
-0.297,-0.006,-0.959,-0.061,244638
-0.297,-0.006,-0.959,-0.122,244642
-0.296,-0.007,-0.959,-0.122,244646
-0.296,-0.007,-0.959,-0.122,244650
-0.297,-0.004,-0.958,-0.183,244654
-0.297,-0.004,-0.958,-0.183,244658
-0.297,-0.004,-0.958,-0.183,244662
-0.298,-0.004,-0.957,-0.122,244666
-0.298,-0.004,-0.957,-0.183,244670
-0.297,-0.004,-0.959,-0.183,244674
-0.297,-0.004,-0.959,-0.183,244678
-0.297,-0.004,-0.959,-0.244,244682
-0.297,-0.005,-0.958,-0.244,244686
-0.297,-0.005,-0.958,-0.244,244690
-0.298,-0.006,-0.959,-0.244,244694
-0.298,-0.006,-0.959,-0.244,244698
-0.298,-0.006,-0.959,-0.061,244702
-0.299,-0.005,-0.959,-0.122,244706
-0.299,-0.005,-0.959,-0.305,244710
-0.298,-0.004,-0.959,-0.305,244714
-0.298,-0.004,-0.959,-0.244,244718
-0.298,-0.004,-0.959,-0.244,244722
-0.298,-0.004,-0.959,-0.183,244726
-0.298,-0.004,-0.959,-0.183,244730
-0.299,-0.006,-0.959,-0.183,244734
-0.299,-0.006,-0.959,-0.305,244738
-0.299,-0.006,-0.959,-0.305,244742
-0.3,-0.004,-0.959,-0.244,244746
-0.3,-0.004,-0.959,-0.061,244750
-0.298,-0.006,-0.958,0.0,244754
-0.298,-0.006,-0.958,-0.061,244758
-0.298,-0.006,-0.958,-0.061,244762
-0.298,-0.007,-0.957,-0.183,244766
-0.298,-0.007,-0.957,-0.244,244770
-0.3,-0.007,-0.959,-0.244,244774
-0.3,-0.007,-0.959,-0.244,244778
-0.3,-0.007,-0.959,-0.244,244782
-0.298,-0.007,-0.96,-0.244,244786
-0.298,-0.007,-0.96,-0.305,244790
-0.298,-0.007,-0.958,-0.244,244794
-0.298,-0.007,-0.958,-0.183,244798
-0.297,-0.007,-0.959,-0.244,244802
-0.297,-0.007,-0.959,-0.244,244806
-0.297,-0.007,-0.959,-0.244,244810
-0.298,-0.006,-0.959,-0.366,244814
-0.298,-0.006,-0.959,-0.305,244818
-0.298,-0.007,-0.959,-0.244,244823
-0.298,-0.007,-0.959,-0.244,244827
-0.298,-0.007,-0.959,-0.244,244831
-0.297,-0.007,-0.958,-0.061,244835
-0.297,-0.007,-0.958,-0.183,244839
-0.3,-0.006,-0.958,-0.305,244843
-0.3,-0.006,-0.958,-0.305,244847
-0.3,-0.006,-0.958,-0.305,244851
-0.298,-0.007,-0.958,-0.366,244855
-0.298,-0.007,-0.958,-0.305,244859
-0.297,-0.005,-0.958,-0.183,244863
-0.297,-0.005,-0.958,-0.183,244867
-0.297,-0.005,-0.958,-0.183,244871
-0.298,-0.004,-0.96,0.0,244875
-0.298,-0.004,-0.96,-0.122,244879
-0.298,-0.006,-0.959,-0.305,244883
-0.298,-0.006,-0.959,-0.305,244887
-0.298,-0.006,-0.959,-0.305,244891
-0.298,-0.006,-0.959,-0.244,244895
-0.298,-0.006,-0.959,-0.183,244899
-0.297,-0.003,-0.958,-0.183,244903
-0.297,-0.003,-0.958,-0.244,244907
-0.297,-0.003,-0.958,-0.244,244911
-0.3,-0.004,-0.958,-0.183,244915
-0.3,-0.004,-0.958,-0.244,244919
-0.299,-0.004,-0.959,-0.183,244923
-0.299,-0.004,-0.959,-0.244,244927
-0.299,-0.004,-0.959,-0.244,244931
-0.298,-0.003,-0.956,-0.244,244935
-0.298,-0.003,-0.956,-0.244,244939
-0.299,-0.003,-0.957,-0.305,244943
-0.299,-0.003,-0.957,-0.244,244947
-0.301,-0.003,-0.958,-0.244,244951
-0.301,-0.003,-0.958,-0.244,244955
-0.301,-0.003,-0.958,-0.244,244959
-0.3,-0.005,-0.958,-0.244,244963
-0.3,-0.005,-0.958,-0.183,244967
-0.3,-0.005,-0.958,-0.244,244971
-0.3,-0.005,-0.958,-0.244,244975
-0.3,-0.005,-0.958,-0.305,244979
-0.3,-0.004,-0.959,-0.244,244983
-0.3,-0.004,-0.959,-0.183,244987
-0.3,-0.005,-0.956,-0.183,244991
-0.3,-0.005,-0.956,-0.183,244995
-0.3,-0.005,-0.956,-0.122,244999
-0.3,-0.006,-0.954,-0.183,245003
-0.3,-0.006,-0.954,-0.061,245007
-0.301,-0.006,-0.956,-0.183,245011
-0.301,-0.006,-0.956,-0.183,245016
-0.301,-0.006,-0.956,-0.244,245020
-0.3,-0.008,-0.96,-0.122,245024
-0.3,-0.008,-0.96,-0.183,245028
-0.3,-0.008,-0.963,-0.366,245032
-0.3,-0.008,-0.963,-0.183,245036
-0.3,-0.008,-0.963,-0.183,245040
-0.296,-0.008,-0.961,-0.305,245044
-0.296,-0.008,-0.961,-0.244,245048
-0.293,-0.007,-0.958,-0.061,245052
-0.293,-0.007,-0.958,-0.183,245056
-0.293,-0.007,-0.958,-0.183,245060
-0.296,-0.007,-0.96,-0.244,245064
-0.296,-0.007,-0.96,-0.183,245068
-0.297,-0.008,-0.962,-0.183,245072
-0.297,-0.008,-0.962,-0.244,245076
-0.297,-0.008,-0.962,-0.244,245080
-0.295,-0.006,-0.955,-0.183,245084
-0.295,-0.006,-0.955,-0.183,245088
-0.292,-0.005,-0.954,-0.183,245092
-0.292,-0.005,-0.954,-0.305,245096
-0.294,-0.006,-0.962,-0.244,245100
-0.294,-0.006,-0.962,-0.244,245104
-0.294,-0.006,-0.962,-0.244,245108
-0.295,-0.006,-0.965,-0.122,245112
-0.295,-0.006,-0.965,-0.061,245116
-0.292,-0.005,-0.96,-0.305,245120
-0.292,-0.005,-0.96,-0.305,245124
-0.292,-0.005,-0.96,-0.244,245128
-0.294,-0.004,-0.96,-0.061,245132
-0.294,-0.004,-0.96,-0.305,245136
-0.294,-0.002,-0.96,-0.305,245140
-0.294,-0.002,-0.96,-0.305,245144
-0.294,-0.002,-0.96,-0.244,245148
-0.298,-0.002,-0.957,-0.244,245152
-0.298,-0.002,-0.957,-0.305,245156
-0.299,-0.001,-0.955,-0.244,245160
-0.299,-0.001,-0.955,-0.244,245164
-0.299,-0.001,-0.955,-0.244,245168
-0.299,-0.003,-0.957,-0.244,245172
-0.299,-0.003,-0.957,-0.244,245177
-0.299,-0.002,-0.961,-0.305,245181
-0.299,-0.002,-0.961,-0.305,245185
-0.299,-0.002,-0.961,-0.305,245189
-0.299,-0.004,-0.96,-0.305,245193
-0.299,-0.004,-0.96,-0.244,245197
-0.298,-0.004,-0.957,-0.366,245201
-0.298,-0.004,-0.957,-0.244,245205
-0.298,-0.004,-0.957,-0.244,245209
-0.3,-0.004,-0.956,-0.244,245213
-0.3,-0.004,-0.956,-0.183,245217
-0.302,-0.003,-0.957,-0.183,245221
-0.302,-0.003,-0.957,-0.305,245225
-0.302,-0.003,-0.957,-0.305,245229
-0.302,-0.004,-0.954,-0.305,245233
-0.302,-0.004,-0.954,-0.366,245237
-0.301,-0.006,-0.953,-0.244,245241
-0.301,-0.006,-0.953,-0.305,245245
-0.301,-0.007,-0.956,-0.305,245249
-0.301,-0.007,-0.956,-0.305,245253
-0.301,-0.007,-0.956,-0.244,245257
-0.301,-0.009,-0.959,-0.183,245261
-0.301,-0.009,-0.959,-0.305,245265
-0.3,-0.009,-0.958,-0.305,245269
-0.3,-0.009,-0.958,-0.305,245273
-0.3,-0.009,-0.958,-0.183,245277
-0.301,-0.008,-0.956,-0.122,245281
-0.301,-0.008,-0.956,-0.183,245285
-0.302,-0.009,-0.956,-0.305,245289
-0.302,-0.009,-0.956,-0.305,245293
-0.302,-0.009,-0.956,-0.244,245297
-0.302,-0.009,-0.956,-0.122,245301
-0.302,-0.009,-0.956,-0.122,245305
-0.3,-0.007,-0.955,-0.122,245309
-0.3,-0.007,-0.955,-0.244,245313
-0.3,-0.007,-0.955,-0.244,245317
-0.297,-0.008,-0.958,-0.122,245321
-0.297,-0.008,-0.958,-0.122,245325
-0.299,-0.007,-0.96,-0.122,245329
-0.299,-0.007,-0.96,-0.061,245333
-0.299,-0.007,-0.96,-0.061,245338
-0.297,-0.006,-0.96,-0.061,245342
-0.297,-0.006,-0.96,-0.183,245346
-0.295,-0.005,-0.958,-0.183,245350
-0.295,-0.005,-0.958,-0.244,245354
-0.295,-0.005,-0.958,-0.244,245358
-0.296,-0.005,-0.957,-0.183,245362
-0.296,-0.005,-0.957,-0.305,245366
-0.297,-0.004,-0.96,-0.183,245370
-0.297,-0.004,-0.96,-0.122,245374
-0.298,-0.004,-0.959,-0.122,245378
-0.298,-0.004,-0.959,-0.122,245382
-0.298,-0.004,-0.959,-0.183,245386
-0.294,-0.004,-0.957,-0.244,245390
-0.294,-0.004,-0.957,-0.244,245394
-0.293,-0.003,-0.961,0.061,245398
-0.293,-0.003,-0.961,0.061,245402
-0.293,-0.003,-0.961,-0.183,245406
-0.295,-0.002,-0.962,-0.305,245410
-0.295,-0.002,-0.962,-0.305,245414
-0.296,-0.001,-0.962,-0.183,245418
-0.296,-0.001,-0.962,-0.183,245422
-0.296,-0.001,-0.962,-0.122,245426
-0.293,-0.003,-0.961,-0.305,245430
-0.293,-0.003,-0.961,-0.305,245434
-0.295,-0.002,-0.96,-0.305,245438
-0.295,-0.002,-0.96,-0.305,245442
-0.295,-0.002,-0.96,-0.244,245446
-0.296,-0.003,-0.957,-0.244,245450
-0.296,-0.003,-0.957,-0.122,245454
-0.296,-0.003,-0.958,-0.244,245458
-0.296,-0.003,-0.958,-0.122,245462
-0.296,-0.003,-0.958,-0.122,245466
-0.296,-0.005,-0.96,-0.183,245470
-0.296,-0.005,-0.96,-0.183,245474
-0.298,-0.005,-0.957,-0.183,245478
-0.298,-0.005,-0.957,-0.122,245482
-0.298,-0.005,-0.957,-0.122,245486
-0.298,-0.004,-0.958,-0.305,245490
-0.298,-0.004,-0.958,-0.183,245494
-0.299,-0.005,-0.959,-0.183,245498
-0.299,-0.005,-0.959,-0.305,245502
-0.299,-0.005,-0.959,-0.305,245507
-0.299,-0.008,-0.958,-0.427,245511
-0.299,-0.008,-0.958,-0.305,245515
-0.301,-0.008,-0.958,-0.183,245519
-0.301,-0.008,-0.958,-0.305,245523
-0.299,-0.008,-0.957,-0.305,245527
-0.299,-0.008,-0.957,-0.305,245531
-0.299,-0.008,-0.957,-0.122,245535
-0.302,-0.009,-0.957,-0.244,245539
-0.302,-0.009,-0.957,-0.244,245543
-0.302,-0.009,-0.957,-0.183,245547
-0.302,-0.009,-0.957,-0.183,245551
-0.302,-0.009,-0.957,-0.122,245555
-0.3,-0.01,-0.957,-0.244,245559
-0.3,-0.01,-0.957,-0.183,245563
-0.3,-0.009,-0.956,-0.183,245567
-0.3,-0.009,-0.956,-0.183,245571
-0.3,-0.009,-0.956,-0.183,245575
-0.302,-0.007,-0.956,-0.244,245579
-0.302,-0.007,-0.956,-0.244,245583
-0.301,-0.006,-0.958,-0.122,245587
-0.301,-0.006,-0.958,-0.244,245591
-0.301,-0.006,-0.958,-0.244,245595
-0.299,-0.006,-0.957,-0.427,245599
-0.299,-0.006,-0.957,-0.183,245603
-0.299,-0.007,-0.958,-0.183,245607
-0.299,-0.007,-0.958,-0.183,245611
-0.299,-0.007,-0.958,-0.183,245615
-0.3,-0.005,-0.957,-0.122,245619
-0.3,-0.005,-0.957,-0.244,245623
-0.3,-0.005,-0.956,-0.305,245627
-0.3,-0.005,-0.956,-0.244,245631
-0.3,-0.005,-0.956,-0.244,245635
-0.301,-0.005,-0.957,-0.183,245639
-0.301,-0.005,-0.957,-0.244,245643
-0.299,-0.002,-0.958,-0.183,245647
-0.299,-0.002,-0.958,-0.244,245651
-0.299,-0.002,-0.958,-0.244,245655
-0.294,-0.003,-0.958,-0.305,245659
-0.294,-0.003,-0.958,-0.183,245663
-0.297,-0.003,-0.961,-0.183,245667
-0.297,-0.003,-0.961,-0.183,245671
-0.296,-0.002,-0.959,-0.244,245675
-0.296,-0.002,-0.959,-0.244,245679
-0.296,-0.002,-0.959,-0.183,245683
-0.295,-0.002,-0.959,-0.183,245688
-0.295,-0.002,-0.959,-0.244,245692
-0.295,-0.003,-0.959,-0.244,245696
-0.295,-0.003,-0.959,-0.244,245700
-0.295,-0.003,-0.959,-0.183,245704
-0.294,-0.003,-0.96,-0.305,245708
-0.294,-0.003,-0.96,-0.305,245712
-0.295,-0.004,-0.959,-0.122,245716
-0.295,-0.004,-0.959,-0.122,245720
-0.295,-0.004,-0.959,-0.183,245724
-0.296,-0.005,-0.961,-0.244,245728
-0.296,-0.005,-0.961,-0.305,245732
-0.295,-0.006,-0.961,-0.305,245736
-0.295,-0.006,-0.961,-0.305,245740
-0.295,-0.006,-0.961,-0.305,245744
-0.295,-0.005,-0.96,-0.244,245748
-0.295,-0.005,-0.96,-0.122,245752
-0.295,-0.006,-0.959,-0.122,245756
-0.295,-0.006,-0.959,-0.244,245760
-0.295,-0.006,-0.959,-0.244,245764
-0.297,-0.007,-0.958,-0.244,245768
-0.297,-0.007,-0.958,-0.183,245772
-0.298,-0.007,-0.958,-0.244,245776
-0.298,-0.007,-0.958,-0.183,245780
-0.298,-0.007,-0.958,-0.183,245784
-0.298,-0.009,-0.959,-0.183,245788
-0.298,-0.009,-0.959,-0.305,245792
-0.298,-0.007,-0.957,-0.122,245796
-0.298,-0.007,-0.957,-0.244,245800
-0.298,-0.007,-0.957,-0.244,245804
-0.298,-0.007,-0.958,-0.244,245808
-0.298,-0.007,-0.958,-0.305,245812
-0.299,-0.008,-0.958,-0.305,245816
-0.299,-0.008,-0.958,-0.183,245820
-0.301,-0.007,-0.958,-0.305,245824
-0.301,-0.007,-0.958,-0.305,245828
-0.301,-0.007,-0.958,-0.305,245832
-0.302,-0.007,-0.957,-0.427,245836
-0.302,-0.007,-0.957,-0.183,245840
-0.3,-0.007,-0.957,-0.244,245844
-0.3,-0.007,-0.957,-0.244,245849
-0.3,-0.007,-0.957,-0.244,245853
-0.301,-0.006,-0.954,-0.183,245857
-0.301,-0.006,-0.954,-0.244,245861
-0.302,-0.005,-0.956,-0.244,245865
-0.302,-0.005,-0.956,-0.244,245869
-0.302,-0.005,-0.956,-0.122,245873
-0.302,-0.005,-0.958,-0.183,245877
-0.302,-0.005,-0.958,-0.183,245881
-0.299,-0.004,-0.957,-0.122,245885
-0.299,-0.004,-0.957,-0.366,245889
-0.299,-0.004,-0.957,-0.366,245893
-0.302,-0.005,-0.956,-0.183,245897
-0.302,-0.005,-0.956,-0.183,245901
-0.301,-0.005,-0.957,-0.305,245905
-0.301,-0.005,-0.957,-0.122,245909
-0.301,-0.005,-0.957,-0.122,245913
-0.301,-0.002,-0.957,-0.183,245917
-0.301,-0.002,-0.957,-0.183,245921
-0.301,-0.003,-0.956,-0.244,245925
-0.301,-0.003,-0.956,-0.244,245929
-0.301,-0.003,-0.956,-0.244,245933
-0.301,-0.005,-0.957,-0.305,245937
-0.301,-0.005,-0.957,-0.061,245941
-0.3,-0.004,-0.958,-0.244,245945
-0.3,-0.004,-0.958,-0.244,245949
-0.3,-0.003,-0.96,-0.122,245953
-0.3,-0.003,-0.96,-0.122,245957
-0.3,-0.003,-0.96,-0.183,245961
-0.298,-0.004,-0.96,-0.183,245965
-0.298,-0.004,-0.96,-0.183,245969
-0.297,-0.005,-0.958,-0.183,245973
-0.297,-0.005,-0.958,-0.183,245977
-0.297,-0.005,-0.958,-0.183,245981
-0.295,-0.007,-0.959,-0.183,245985
-0.295,-0.007,-0.959,-0.122,245989
-0.297,-0.008,-0.958,-0.244,245993
-0.297,-0.008,-0.958,-0.244,245997
-0.297,-0.008,-0.958,-0.305,246001
-0.296,-0.006,-0.959,-0.183,246005
-0.296,-0.006,-0.959,-0.122,246009
-0.296,-0.006,-0.959,-0.183,246013
-0.296,-0.006,-0.959,-0.183,246017
-0.296,-0.006,-0.959,-0.183,246021
-0.296,-0.007,-0.961,-0.122,246025
-0.296,-0.007,-0.961,-0.183,246030
-0.296,-0.007,-0.96,-0.244,246034
-0.296,-0.007,-0.96,-0.122,246038
-0.296,-0.007,-0.96,-0.122,246042
-0.295,-0.007,-0.96,-0.183,246046
-0.295,-0.007,-0.96,-0.183,246050
-0.295,-0.007,-0.96,-0.183,246054
-0.295,-0.007,-0.96,-0.183,246058
-0.295,-0.007,-0.96,-0.183,246062
-0.295,-0.007,-0.959,-0.183,246066
-0.295,-0.007,-0.959,-0.244,246070
-0.295,-0.008,-0.96,-0.244,246074
-0.295,-0.008,-0.96,-0.122,246078
-0.295,-0.008,-0.96,-0.122,246082
-0.295,-0.007,-0.96,-0.122,246086
-0.295,-0.007,-0.96,-0.244,246090
-0.297,-0.005,-0.959,-0.244,246094
-0.297,-0.005,-0.959,-0.122,246098
-0.297,-0.005,-0.959,-0.061,246102
-0.297,-0.005,-0.959,-0.061,246106
-0.297,-0.005,-0.959,-0.244,246110
-0.298,-0.004,-0.96,-0.305,246114
-0.298,-0.004,-0.96,-0.244,246118
-0.3,-0.003,-0.959,-0.305,246122
-0.3,-0.003,-0.959,-0.305,246126
-0.3,-0.003,-0.959,-0.244,246130
-0.299,-0.003,-0.958,-0.183,246134
-0.299,-0.003,-0.958,-0.183,246138
-0.297,-0.005,-0.957,-0.183,246142
-0.297,-0.005,-0.957,-0.183,246146
-0.297,-0.005,-0.957,-0.244,246150
-0.3,-0.004,-0.956,-0.183,246154
-0.3,-0.004,-0.956,-0.183,246158
-0.302,-0.004,-0.957,-0.183,246162
-0.302,-0.004,-0.957,-0.061,246166
-0.302,-0.004,-0.957,-0.061,246170
-0.302,-0.004,-0.957,-0.244,246174
-0.302,-0.004,-0.957,-0.366,246178
-0.302,-0.005,-0.957,-0.122,246182
-0.302,-0.005,-0.957,-0.183,246186
-0.302,-0.005,-0.957,-0.183,246191
-0.301,-0.004,-0.958,-0.366,246195
-0.301,-0.004,-0.958,-0.305,246199
-0.3,-0.006,-0.957,-0.183,246203
-0.3,-0.006,-0.957,-0.305,246207
-0.3,-0.006,-0.957,-0.305,246211
-0.3,-0.005,-0.955,-0.183,246215
-0.3,-0.005,-0.955,-0.061,246219
-0.301,-0.005,-0.957,-0.183,246223
-0.301,-0.005,-0.957,-0.244,246227
-0.301,-0.005,-0.957,-0.244,246231
-0.302,-0.006,-0.956,-0.244,246235
-0.302,-0.006,-0.956,-0.122,246239
-0.301,-0.007,-0.957,-0.244,246243
-0.301,-0.007,-0.957,-0.183,246247
-0.299,-0.008,-0.956,-0.244,246251
-0.299,-0.008,-0.956,-0.244,246255
-0.299,-0.008,-0.956,-0.122,246259
-0.298,-0.008,-0.958,-0.244,246263
-0.298,-0.008,-0.958,-0.366,246267
-0.298,-0.008,-0.958,-0.305,246271
-0.298,-0.008,-0.958,-0.305,246275
-0.298,-0.008,-0.958,-0.183,246279
-0.298,-0.007,-0.958,-0.122,246283
-0.298,-0.007,-0.958,-0.183,246287
-0.297,-0.008,-0.958,-0.122,246291
-0.297,-0.008,-0.958,-0.122,246295
-0.297,-0.008,-0.958,0.122,246299
-0.297,-0.008,-0.956,-0.061,246303
-0.297,-0.008,-0.956,-0.061,246307
-0.298,-0.007,-0.955,-0.122,246311
-0.298,-0.007,-0.955,-0.122,246315
-0.298,-0.007,-0.955,-0.122,246319
-0.298,-0.007,-0.958,-0.122,246323
-0.298,-0.007,-0.958,-0.122,246327
-0.297,-0.005,-0.958,-0.183,246331
-0.297,-0.005,-0.958,-0.183,246335
-0.297,-0.005,-0.958,-0.183,246339
-0.297,-0.005,-0.96,-0.183,246343
-0.297,-0.005,-0.96,-0.122,246347
-0.298,-0.005,-0.962,-0.183,246351
-0.298,-0.005,-0.962,-0.305,246355
-0.298,-0.005,-0.962,-0.305,246359
-0.297,-0.003,-0.963,-0.305,246363
-0.297,-0.003,-0.963,-0.122,246367
-0.294,-0.003,-0.959,-0.183,246371
-0.294,-0.003,-0.959,-0.366,246375
-0.294,-0.003,-0.959,-0.366,246379
-0.294,-0.004,-0.959,-0.183,246384
-0.294,-0.004,-0.959,-0.183,246388
-0.295,-0.003,-0.958,-0.122,246392
-0.295,-0.003,-0.958,-0.183,246396
-0.296,-0.003,-0.958,-0.305,246400
-0.296,-0.003,-0.958,-0.305,246404
-0.296,-0.003,-0.958,-0.244,246408
-0.295,-0.004,-0.956,-0.122,246412
-0.295,-0.004,-0.956,-0.122,246416
-0.297,-0.004,-0.955,-0.244,246420
-0.297,-0.004,-0.955,-0.244,246424
-0.297,-0.004,-0.955,-0.244,246428
-0.299,-0.005,-0.96,-0.183,246432
-0.299,-0.005,-0.96,-0.183,246436
-0.298,-0.006,-0.963,-0.183,246440
-0.298,-0.006,-0.963,-0.183,246444
-0.298,-0.006,-0.963,-0.183,246448
-0.298,-0.005,-0.959,-0.305,246452
-0.298,-0.005,-0.959,-0.183,246456
-0.298,-0.005,-0.959,-0.244,246460
-0.298,-0.005,-0.959,-0.305,246464
-0.298,-0.005,-0.959,-0.305,246468
-0.3,-0.006,-0.958,-0.183,246472
-0.3,-0.006,-0.958,-0.366,246476
-0.301,-0.006,-0.957,-0.183,246480
-0.301,-0.006,-0.957,-0.244,246484
-0.301,-0.006,-0.957,-0.244,246488
-0.3,-0.008,-0.955,-0.305,246492
-0.3,-0.008,-0.955,-0.183,246496
-0.297,-0.009,-0.958,-0.183,246500
-0.297,-0.009,-0.958,-0.183,246504
-0.297,-0.009,-0.958,-0.183,246508
-0.298,-0.006,-0.961,-0.244,246512
-0.298,-0.006,-0.961,-0.183,246516
-0.298,-0.008,-0.96,-0.183,246520
-0.298,-0.008,-0.96,-0.305,246524
-0.299,-0.008,-0.956,-0.183,246528
-0.299,-0.008,-0.956,-0.183,246532
-0.299,-0.008,-0.956,-0.061,246537
-0.3,-0.007,-0.958,-0.122,246541
-0.3,-0.007,-0.958,-0.122,246545
-0.299,-0.006,-0.957,-0.061,246549
-0.299,-0.006,-0.957,-0.061,246553
-0.299,-0.006,-0.957,-0.183,246557
-0.3,-0.007,-0.958,-0.183,246561
-0.3,-0.007,-0.958,-0.244,246565
-0.298,-0.007,-0.958,-0.305,246569
-0.298,-0.007,-0.958,-0.305,246573
-0.298,-0.007,-0.958,-0.305,246577
-0.298,-0.007,-0.96,-0.122,246581
-0.298,-0.007,-0.96,-0.244,246585
-0.296,-0.006,-0.961,-0.244,246589
-0.296,-0.006,-0.961,-0.183,246593
-0.296,-0.006,-0.961,-0.183,246597
-0.298,-0.006,-0.958,-0.305,246601
-0.298,-0.006,-0.958,-0.244,246605
-0.297,-0.005,-0.956,-0.305,246609
-0.297,-0.005,-0.956,-0.183,246613
-0.297,-0.005,-0.956,-0.183,246617
-0.295,-0.004,-0.958,-0.122,246621
-0.295,-0.004,-0.958,-0.183,246625
-0.295,-0.004,-0.959,-0.183,246629
-0.295,-0.004,-0.959,-0.183,246633
-0.295,-0.004,-0.959,-0.183,246637
-0.297,-0.003,-0.959,-0.183,246641
-0.297,-0.003,-0.959,-0.244,246645
-0.293,-0.006,-0.959,-0.244,246649
-0.293,-0.006,-0.959,-0.183,246653
-0.293,-0.006,-0.959,-0.183,246657
-0.296,-0.004,-0.962,-0.244,246661
-0.296,-0.004,-0.962,-0.366,246665
-0.297,-0.005,-0.962,-0.427,246669
-0.297,-0.005,-0.962,-0.183,246673
-0.297,-0.004,-0.958,-0.366,246677
-0.297,-0.004,-0.958,-0.366,246681
-0.297,-0.004,-0.958,-0.183,246685
-0.295,-0.004,-0.957,-0.366,246689
-0.295,-0.004,-0.957,-0.305,246693
-0.296,-0.004,-0.962,-0.244,246697
-0.296,-0.004,-0.962,-0.244,246701
-0.296,-0.004,-0.962,-0.366,246706
-0.296,-0.005,-0.958,-0.305,246710
-0.296,-0.005,-0.958,-0.244,246714
-0.296,-0.007,-0.955,-0.183,246718
-0.296,-0.007,-0.955,-0.183,246722
-0.296,-0.007,-0.955,-0.244,246726
-0.297,-0.005,-0.956,-0.244,246730
-0.297,-0.005,-0.956,-0.122,246734
-0.298,-0.007,-0.96,-0.183,246738
-0.298,-0.007,-0.96,-0.183,246742
-0.298,-0.007,-0.96,-0.183,246746
-0.298,-0.005,-0.958,-0.244,246750
-0.298,-0.005,-0.958,-0.244,246754
-0.297,-0.006,-0.957,-0.244,246758
-0.297,-0.006,-0.957,-0.061,246762
-0.297,-0.006,-0.957,-0.061,246766
-0.3,-0.007,-0.958,-0.183,246770
-0.3,-0.007,-0.958,-0.183,246774
-0.3,-0.008,-0.958,-0.183,246778
-0.3,-0.008,-0.958,-0.183,246782
-0.3,-0.008,-0.958,-0.183,246786
-0.301,-0.008,-0.957,-0.244,246790
-0.301,-0.008,-0.957,-0.183,246794
-0.302,-0.006,-0.954,-0.305,246798
-0.302,-0.006,-0.954,-0.183,246802
-0.301,-0.007,-0.956,-0.183,246806
-0.301,-0.007,-0.956,-0.183,246810
-0.301,-0.007,-0.956,-0.183,246814
-0.302,-0.007,-0.957,-0.122,246818
-0.302,-0.007,-0.957,-0.183,246822
-0.302,-0.006,-0.959,-0.122,246826
-0.302,-0.006,-0.959,-0.122,246830
-0.302,-0.006,-0.959,-0.183,246834
-0.3,-0.006,-0.959,-0.244,246838
-0.3,-0.006,-0.959,-0.244,246842
-0.3,-0.005,-0.959,-0.305,246846
-0.3,-0.005,-0.959,-0.305,246850
-0.3,-0.005,-0.959,-0.305,246854
-0.301,-0.005,-0.957,-0.244,246858
-0.301,-0.005,-0.957,-0.244,246862
-0.3,-0.006,-0.957,-0.366,246866
-0.3,-0.006,-0.957,-0.366,246870
-0.3,-0.006,-0.957,-0.244,246874
-0.299,-0.005,-0.958,0.0,246878
-0.299,-0.005,-0.958,-0.122,246882
-0.297,-0.004,-0.959,-0.183,246886
-0.297,-0.004,-0.959,-0.183,246890
-0.297,-0.004,-0.959,-0.183,246895
-0.297,-0.005,-0.96,-0.244,246899
-0.297,-0.005,-0.96,-0.183,246903
-0.297,-0.006,-0.959,-0.183,246907
-0.297,-0.006,-0.959,-0.183,246911
-0.297,-0.006,-0.959,-0.183,246915
-0.296,-0.004,-0.958,-0.183,246919
-0.296,-0.004,-0.958,-0.183,246923
-0.296,-0.005,-0.96,-0.122,246927
-0.296,-0.005,-0.96,-0.244,246931
-0.296,-0.005,-0.96,-0.244,246935
-0.296,-0.004,-0.96,-0.183,246939
-0.296,-0.004,-0.96,-0.244,246943
-0.295,-0.004,-0.958,-0.305,246947
-0.295,-0.004,-0.958,-0.244,246951
-0.295,-0.004,-0.959,-0.183,246955
-0.295,-0.004,-0.959,-0.183,246959
-0.295,-0.004,-0.959,-0.183,246963
-0.296,-0.005,-0.961,-0.122,246967
-0.296,-0.005,-0.961,-0.244,246971
-0.293,-0.005,-0.96,-0.122,246975
-0.293,-0.005,-0.96,-0.122,246979
-0.293,-0.005,-0.96,-0.305,246983
-0.295,-0.005,-0.958,-0.183,246987
-0.295,-0.005,-0.958,-0.305,246991
-0.296,-0.004,-0.96,-0.244,246995
-0.296,-0.004,-0.96,-0.244,246999
-0.296,-0.004,-0.96,-0.183,247003
-0.295,-0.004,-0.959,-0.305,247007
-0.295,-0.004,-0.959,-0.183,247011
-0.297,-0.005,-0.959,-0.122,247015
-0.297,-0.005,-0.959,-0.122,247019
-0.297,-0.005,-0.959,-0.183,247023
-0.295,-0.005,-0.959,-0.305,247027
-0.295,-0.005,-0.959,-0.366,247031
-0.295,-0.005,-0.959,-0.244,247035
-0.295,-0.005,-0.959,-0.427,247039
-0.295,-0.005,-0.959,-0.427,247043
-0.297,-0.007,-0.959,-0.366,247048
-0.297,-0.007,-0.959,-0.061,247052
-0.299,-0.006,-0.96,-0.183,247056
-0.299,-0.006,-0.96,-0.183,247060
-0.299,-0.006,-0.96,-0.183,247064
-0.299,-0.007,-0.957,-0.183,247068
-0.299,-0.007,-0.957,-0.183,247072
-0.3,-0.006,-0.957,-0.122,247076
-0.3,-0.006,-0.957,-0.122,247080
-0.3,-0.006,-0.957,-0.122,247084
-0.301,-0.005,-0.957,-0.183,247088
-0.301,-0.005,-0.957,-0.305,247092
-0.302,-0.006,-0.956,-0.305,247096
-0.302,-0.006,-0.956,-0.183,247100
-0.302,-0.007,-0.956,-0.183,247104
-0.302,-0.007,-0.956,-0.183,247108
-0.302,-0.007,-0.956,-0.183,247112
-0.301,-0.006,-0.956,-0.183,247116
-0.301,-0.006,-0.956,-0.183,247120
-0.302,-0.004,-0.957,-0.305,247124
-0.302,-0.004,-0.957,-0.305,247128
-0.302,-0.004,-0.957,-0.122,247132
-0.302,-0.004,-0.958,-0.183,247136
-0.302,-0.004,-0.958,-0.305,247140
-0.3,-0.005,-0.958,-0.244,247144
-0.3,-0.005,-0.958,-0.244,247148
-0.3,-0.005,-0.958,-0.183,247152
-0.299,-0.006,-0.956,-0.061,247156
-0.299,-0.006,-0.956,-0.183,247160
-0.3,-0.006,-0.95,-0.183,247164
-0.3,-0.006,-0.95,-0.183,247168
-0.3,-0.006,-0.95,-0.183,247172
-0.301,-0.004,-0.944,-0.244,247176
-0.301,-0.004,-0.944,-0.183,247180
-0.305,-0.004,-0.954,-0.244,247184
-0.305,-0.004,-0.954,-0.183,247188
-0.305,-0.004,-0.954,-0.183,247192
-0.308,-0.005,-0.971,-0.244,247196
-0.308,-0.005,-0.971,-0.244,247200
-0.303,-0.005,-0.967,-0.183,247204
-0.303,-0.005,-0.967,-0.122,247208
-0.303,-0.005,-0.967,-0.122,247212
-0.293,-0.007,-0.95,0.0,247216
-0.293,-0.007,-0.95,-0.244,247220
-0.296,-0.008,-0.959,-0.366,247224
-0.296,-0.008,-0.959,-0.305,247228
-0.296,-0.008,-0.959,-0.305,247232
-0.303,-0.009,-0.969,-0.122,247236
-0.303,-0.009,-0.969,-0.122,247240
-0.299,-0.007,-0.951,-0.183,247244
-0.299,-0.007,-0.951,-0.122,247248
-0.294,-0.009,-0.941,-0.061,247252
-0.294,-0.009,-0.941,-0.061,247256
-0.294,-0.009,-0.941,-0.183,247261
-0.294,-0.008,-0.96,-0.183,247265
-0.294,-0.008,-0.96,-0.122,247269
-0.298,-0.008,-0.989,-0.183,247273
-0.298,-0.008,-0.989,-0.183,247277
-0.298,-0.008,-0.989,-0.183,247281
-0.287,-0.009,-0.959,-0.061,247285
-0.287,-0.009,-0.959,-0.122,247289
-0.283,-0.007,-0.954,-0.183,247293
-0.283,-0.007,-0.954,-0.183,247297
-0.283,-0.007,-0.954,-0.244,247301
-0.293,-0.005,-0.974,-0.183,247305
-0.293,-0.005,-0.974,-0.305,247309
-0.293,-0.004,-0.966,-0.183,247313
-0.293,-0.004,-0.966,-0.183,247317
-0.293,-0.004,-0.966,-0.061,247321
-0.289,-0.002,-0.949,-0.061,247325
-0.289,-0.002,-0.949,-0.244,247329
-0.288,-0.001,-0.947,-0.366,247333
-0.288,-0.001,-0.947,-0.366,247337
-0.288,-0.001,-0.947,-0.366,247341
-0.292,-0.003,-0.967,-0.305,247345
-0.292,-0.003,-0.967,-0.305,247349
-0.291,-0.003,-0.976,-0.305,247353
-0.291,-0.003,-0.976,-0.366,247357
-0.291,-0.003,-0.976,-0.366,247361
-0.286,-0.005,-0.961,-0.427,247365
-0.286,-0.005,-0.961,-0.183,247369
-0.287,-0.003,-0.956,-0.122,247373
-0.287,-0.003,-0.956,-0.305,247377
-0.287,-0.003,-0.956,-0.305,247381
-0.295,-0.001,-0.963,-0.366,247385
-0.295,-0.001,-0.963,-0.427,247389
-0.302,0.0,-0.962,-0.366,247393
-0.302,0.0,-0.962,-0.366,247397
-0.302,0.0,-0.962,-0.366,247401
-0.299,-0.002,-0.946,-0.366,247405
-0.299,-0.002,-0.946,-0.366,247409
-0.301,-0.004,-0.948,-0.305,247413
-0.301,-0.004,-0.948,-0.183,247417
-0.302,-0.006,-0.958,-0.183,247421
-0.302,-0.006,-0.958,-0.183,247425
-0.302,-0.006,-0.958,-0.305,247429
-0.305,-0.007,-0.962,-0.305,247433
-0.305,-0.007,-0.962,-0.366,247437
-0.306,-0.009,-0.959,-0.366,247441
-0.306,-0.009,-0.959,-0.366,247445
-0.306,-0.009,-0.959,-0.244,247449
-0.305,-0.008,-0.95,-0.366,247453
-0.305,-0.008,-0.95,-0.305,247457
-0.311,-0.006,-0.953,-0.305,247461
-0.311,-0.006,-0.953,-0.305,247465
-0.311,-0.006,-0.953,-0.305,247469
-0.314,-0.006,-0.954,-0.183,247473
-0.314,-0.006,-0.954,-0.122,247478
-0.311,-0.006,-0.949,-0.305,247482
-0.311,-0.006,-0.949,-0.305,247486
-0.311,-0.006,-0.949,-0.305,247490
-0.307,-0.008,-0.948,-0.244,247494
-0.307,-0.008,-0.948,-0.061,247498
-0.306,-0.007,-0.953,-0.122,247502
-0.306,-0.007,-0.953,-0.244,247506
-0.306,-0.007,-0.953,-0.244,247510
-0.306,-0.005,-0.965,-0.305,247514
-0.306,-0.005,-0.965,-0.305,247518
-0.304,-0.006,-0.958,-0.244,247522
-0.304,-0.006,-0.958,-0.122,247526
-0.304,-0.006,-0.958,-0.122,247530
-0.303,-0.005,-0.952,-0.122,247534
-0.303,-0.005,-0.952,-0.122,247538
-0.303,-0.004,-0.958,-0.183,247542
-0.303,-0.004,-0.958,-0.183,247546
-0.303,-0.004,-0.958,-0.183,247550
-0.3,-0.006,-0.957,-0.183,247554
-0.3,-0.006,-0.957,-0.122,247558
-0.296,-0.008,-0.956,-0.122,247562
-0.296,-0.008,-0.956,-0.061,247566
-0.294,-0.006,-0.956,0.0,247570
-0.294,-0.006,-0.956,0.0,247574
-0.294,-0.006,-0.956,-0.122,247578
-0.291,-0.006,-0.963,-0.122,247582
-0.291,-0.006,-0.963,-0.244,247586
-0.29,-0.004,-0.968,-0.061,247590
-0.29,-0.004,-0.968,-0.061,247594
-0.29,-0.004,-0.968,0.0,247598
-0.287,-0.003,-0.966,-0.183,247602
-0.287,-0.003,-0.966,-0.122,247606
-0.285,-0.003,-0.963,-0.183,247610
-0.285,-0.003,-0.963,-0.183,247614
-0.285,-0.003,-0.963,0.0,247618
-0.286,-0.004,-0.965,-0.061,247622
-0.286,-0.004,-0.965,-0.183,247626
-0.286,-0.004,-0.967,-0.122,247630
-0.286,-0.004,-0.967,-0.122,247634
-0.286,-0.004,-0.967,-0.122,247638
-0.283,-0.004,-0.963,-0.305,247642
-0.283,-0.004,-0.963,-0.305,247646
-0.284,-0.004,-0.963,-0.366,247650
-0.284,-0.004,-0.963,-0.305,247654
-0.284,-0.004,-0.963,-0.305,247658
-0.288,-0.004,-0.966,-0.244,247662
-0.288,-0.004,-0.966,-0.244,247666
-0.289,-0.005,-0.965,-0.244,247670
-0.289,-0.005,-0.965,-0.244,247674
-0.289,-0.005,-0.965,-0.244,247678
-0.29,-0.005,-0.962,-0.244,247682
-0.29,-0.005,-0.962,-0.305,247686
-0.292,-0.004,-0.963,-0.305,247690
-0.292,-0.004,-0.963,-0.366,247694
-0.292,-0.004,-0.963,-0.366,247698
-0.295,-0.006,-0.964,-0.305,247702
-0.295,-0.006,-0.964,-0.244,247706
