Acc_X,Acc_Y,Acc_Z,Rot_Z,Millis
-0.306,-0.013,-0.956,-0.183,1445225
-0.306,-0.013,-0.956,-0.183,1445231
-0.307,-0.014,-0.957,-0.244,1445236
-0.307,-0.014,-0.957,-0.244,1445241
-0.307,-0.014,-0.957,-0.244,1445247
-0.307,-0.013,-0.957,-0.183,1445252
-0.307,-0.013,-0.957,-0.244,1445257
-0.306,-0.014,-0.957,-0.122,1445263
-0.306,-0.014,-0.957,-0.183,1445268
-0.305,-0.013,-0.956,-0.244,1445273
-0.305,-0.013,-0.956,-0.183,1445279
-0.308,-0.013,-0.956,-0.305,1445284
-0.308,-0.013,-0.956,-0.183,1445289
-0.307,-0.014,-0.955,-0.183,1445294
-0.307,-0.014,-0.955,-0.366,1445300
-0.308,-0.014,-0.954,-0.305,1445305
-0.308,-0.014,-0.954,-0.366,1445310
-0.307,-0.013,-0.956,-0.305,1445316
-0.307,-0.013,-0.956,-0.122,1445321
-0.306,-0.012,-0.958,-0.122,1445326
-0.305,-0.013,-0.957,-0.122,1445332
-0.305,-0.013,-0.957,-0.122,1445337
-0.306,-0.013,-0.955,-0.244,1445342
-0.306,-0.013,-0.955,-0.183,1445347
-0.307,-0.014,-0.956,-0.122,1445353
-0.307,-0.014,-0.956,-0.305,1445358
-0.306,-0.014,-0.957,-0.244,1445363
-0.306,-0.014,-0.957,-0.183,1445369
-0.306,-0.014,-0.956,-0.305,1445374
-0.306,-0.014,-0.956,-0.305,1445379
-0.308,-0.013,-0.955,-0.244,1445385
-0.308,-0.013,-0.955,-0.305,1445390
-0.306,-0.013,-0.956,-0.183,1445395
-0.306,-0.013,-0.955,-0.183,1445401
-0.306,-0.013,-0.955,-0.122,1445406
-0.306,-0.012,-0.959,-0.244,1445411
-0.306,-0.012,-0.959,-0.183,1445416
-0.308,-0.015,-0.958,-0.183,1445422
-0.308,-0.015,-0.958,-0.244,1445427
-0.307,-0.015,-0.956,-0.183,1445432
-0.307,-0.015,-0.956,-0.305,1445438
-0.307,-0.014,-0.955,-0.183,1445443
-0.307,-0.014,-0.955,-0.061,1445448
-0.305,-0.014,-0.958,-0.122,1445454
-0.305,-0.014,-0.958,-0.122,1445459
-0.305,-0.012,-0.955,-0.183,1445464
-0.305,-0.012,-0.955,-0.183,1445469
-0.306,-0.013,-0.955,-0.244,1445475
-0.306,-0.013,-0.957,-0.061,1445480
-0.306,-0.013,-0.957,-0.244,1445485
-0.306,-0.013,-0.957,-0.122,1445491
-0.306,-0.013,-0.957,-0.122,1445496
-0.305,-0.014,-0.956,-0.183,1445501
-0.305,-0.014,-0.956,-0.244,1445507
-0.306,-0.015,-0.955,-0.244,1445512
-0.306,-0.015,-0.955,-0.061,1445517
-0.306,-0.015,-0.954,-0.183,1445523
-0.306,-0.015,-0.954,-0.183,1445528
-0.306,-0.015,-0.955,-0.244,1445533
-0.306,-0.015,-0.955,-0.183,1445538
-0.306,-0.016,-0.956,-0.244,1445544
-0.306,-0.016,-0.956,-0.305,1445549
-0.306,-0.015,-0.955,-0.122,1445554
-0.305,-0.015,-0.957,-0.244,1445560
-0.305,-0.015,-0.957,-0.305,1445565
-0.308,-0.015,-0.956,-0.183,1445570
-0.308,-0.015,-0.956,-0.244,1445576
-0.307,-0.013,-0.955,-0.244,1445581
-0.307,-0.013,-0.955,-0.244,1445586
-0.305,-0.014,-0.956,-0.122,1445591
-0.305,-0.014,-0.956,-0.183,1445597
-0.307,-0.013,-0.956,-0.244,1445602
-0.307,-0.013,-0.956,-0.244,1445607
-0.307,-0.013,-0.955,-0.122,1445613
-0.307,-0.013,-0.955,-0.122,1445618
-0.305,-0.017,-0.955,-0.183,1445623
-0.305,-0.017,-0.955,-0.183,1445629
-0.306,-0.014,-0.956,-0.244,1445634
-0.307,-0.014,-0.958,-0.244,1445639
-0.307,-0.014,-0.958,-0.061,1445645
-0.307,-0.014,-0.957,-0.122,1445650
-0.307,-0.014,-0.957,-0.183,1445655
-0.306,-0.014,-0.955,-0.244,1445660
-0.306,-0.014,-0.955,-0.183,1445666
-0.307,-0.013,-0.956,-0.244,1445671
-0.307,-0.013,-0.956,-0.305,1445676
-0.304,-0.014,-0.956,-0.183,1445682
-0.304,-0.014,-0.956,-0.061,1445687
-0.305,-0.014,-0.956,-0.061,1445692
-0.305,-0.014,-0.956,-0.122,1445698
-0.305,-0.013,-0.957,-0.122,1445703
-0.305,-0.012,-0.957,-0.244,1445708
-0.305,-0.012,-0.957,-0.305,1445714
-0.307,-0.012,-0.955,-0.244,1445719
-0.307,-0.012,-0.955,-0.183,1445724
-0.306,-0.012,-0.957,-0.183,1445729
-0.306,-0.012,-0.957,-0.305,1445735
-0.305,-0.013,-0.956,-0.183,1445740
-0.305,-0.013,-0.956,-0.122,1445745
-0.306,-0.014,-0.956,-0.305,1445751
-0.306,-0.014,-0.956,-0.244,1445756
-0.306,-0.013,-0.955,-0.183,1445761
-0.306,-0.013,-0.955,-0.183,1445767
-0.307,-0.013,-0.956,-0.244,1445772
-0.307,-0.013,-0.956,-0.183,1445777
-0.308,-0.014,-0.956,-0.061,1445783
-0.307,-0.012,-0.956,-0.183,1445788
-0.307,-0.012,-0.956,-0.244,1445793
-0.306,-0.013,-0.957,-0.244,1445798
-0.306,-0.013,-0.957,-0.244,1445804
-0.305,-0.013,-0.955,-0.244,1445809
-0.305,-0.013,-0.955,-0.244,1445814
-0.307,-0.012,-0.956,-0.183,1445820
-0.307,-0.012,-0.956,-0.061,1445825
-0.308,-0.012,-0.955,0.0,1445830
-0.308,-0.012,-0.955,-0.122,1445835
-0.308,-0.012,-0.956,-0.183,1445841
-0.308,-0.012,-0.956,-0.244,1445846
-0.308,-0.012,-0.955,-0.244,1445851
-0.308,-0.012,-0.955,-0.244,1445857
-0.308,-0.013,-0.956,-0.122,1445862
-0.309,-0.012,-0.958,-0.244,1445867
-0.309,-0.012,-0.958,-0.305,1445873
-0.308,-0.013,-0.955,-0.244,1445878
-0.308,-0.013,-0.955,-0.183,1445883
-0.307,-0.012,-0.955,-0.244,1445888
-0.307,-0.012,-0.955,-0.183,1445894
-0.308,-0.014,-0.956,-0.183,1445899
-0.308,-0.014,-0.956,-0.244,1445904
-0.306,-0.013,-0.956,-0.183,1445910
-0.306,-0.013,-0.956,-0.183,1445915
-0.305,-0.013,-0.957,-0.122,1445920
-0.305,-0.013,-0.957,-0.183,1445926
-0.307,-0.014,-0.954,-0.244,1445931
-0.307,-0.014,-0.954,-0.183,1445936
-0.308,-0.013,-0.955,-0.244,1445941
-0.308,-0.014,-0.956,-0.122,1445947
-0.308,-0.014,-0.956,-0.183,1445952
-0.306,-0.013,-0.957,-0.183,1445957
-0.306,-0.013,-0.957,-0.122,1445963
-0.308,-0.011,-0.957,-0.183,1445968
-0.308,-0.011,-0.957,-0.183,1445973
-0.306,-0.013,-0.955,-0.183,1445979
-0.306,-0.013,-0.955,-0.244,1445984
-0.306,-0.016,-0.956,-0.305,1445989
-0.306,-0.016,-0.956,-0.244,1445995
-0.307,-0.015,-0.956,-0.244,1446000
-0.307,-0.015,-0.956,-0.183,1446005
-0.307,-0.015,-0.956,-0.183,1446010
-0.307,-0.015,-0.956,-0.122,1446016
-0.307,-0.015,-0.956,-0.244,1446021
-0.305,-0.015,-0.956,-0.244,1446026
-0.305,-0.015,-0.956,-0.122,1446032
-0.305,-0.014,-0.957,-0.183,1446037
-0.305,-0.014,-0.957,-0.305,1446042
-0.306,-0.014,-0.956,-0.183,1446048
-0.306,-0.014,-0.956,-0.244,1446053
-0.308,-0.013,-0.955,-0.183,1446058
-0.308,-0.013,-0.955,-0.244,1446063
-0.306,-0.013,-0.956,-0.122,1446069
-0.306,-0.013,-0.956,-0.183,1446074
-0.305,-0.013,-0.956,-0.244,1446079
-0.305,-0.013,-0.956,-0.244,1446085
-0.307,-0.014,-0.958,-0.305,1446090
-0.308,-0.012,-0.957,-0.183,1446095
-0.308,-0.012,-0.957,-0.061,1446101
-0.306,-0.013,-0.957,-0.183,1446106
-0.306,-0.013,-0.957,-0.183,1446111
-0.307,-0.013,-0.956,-0.183,1446117
-0.307,-0.013,-0.956,-0.244,1446122
-0.307,-0.014,-0.955,-0.183,1446127
-0.307,-0.014,-0.955,-0.305,1446132
-0.306,-0.015,-0.955,-0.366,1446138
-0.306,-0.015,-0.955,-0.244,1446143
-0.305,-0.016,-0.956,-0.183,1446148
-0.305,-0.016,-0.956,-0.122,1446154
-0.305,-0.014,-0.958,-0.183,1446159
-0.305,-0.014,-0.958,-0.366,1446164
-0.306,-0.014,-0.956,-0.305,1446170
-0.307,-0.016,-0.955,-0.244,1446175
-0.307,-0.016,-0.955,-0.183,1446180
-0.306,-0.013,-0.956,-0.183,1446186
-0.306,-0.013,-0.956,-0.183,1446191
-0.308,-0.016,-0.956,-0.122,1446196
-0.308,-0.016,-0.956,-0.183,1446201
-0.307,-0.014,-0.956,-0.244,1446207
-0.307,-0.014,-0.956,-0.305,1446212
-0.307,-0.015,-0.957,-0.244,1446217
-0.307,-0.015,-0.957,-0.122,1446223
-0.307,-0.014,-0.956,-0.183,1446228
-0.307,-0.014,-0.956,-0.122,1446233
-0.307,-0.014,-0.956,-0.244,1446239
-0.308,-0.013,-0.956,-0.305,1446244
-0.308,-0.013,-0.956,-0.305,1446249
-0.306,-0.013,-0.955,-0.244,1446254
-0.306,-0.013,-0.955,-0.305,1446260
-0.305,-0.013,-0.956,-0.244,1446265
-0.305,-0.013,-0.956,-0.183,1446270
-0.307,-0.014,-0.955,-0.122,1446276
-0.307,-0.014,-0.955,-0.244,1446281
-0.307,-0.014,-0.956,-0.183,1446286
-0.307,-0.014,-0.956,-0.244,1446292
-0.307,-0.014,-0.955,-0.244,1446297
-0.307,-0.014,-0.955,-0.122,1446302
-0.307,-0.014,-0.956,-0.183,1446308
-0.307,-0.014,-0.956,-0.122,1446313
-0.305,-0.014,-0.957,-0.183,1446318
-0.305,-0.013,-0.956,-0.305,1446323
-0.305,-0.013,-0.956,-0.488,1446329
-0.305,-0.012,-0.955,-0.244,1446334
-0.305,-0.012,-0.955,-0.122,1446339
-0.306,-0.012,-0.954,-0.305,1446345
-0.306,-0.012,-0.954,-0.305,1446350
-0.306,-0.015,-0.956,-0.244,1446355
-0.306,-0.015,-0.956,-0.244,1446361
-0.308,-0.014,-0.955,-0.244,1446366
-0.308,-0.014,-0.955,-0.244,1446371
-0.307,-0.013,-0.956,-0.122,1446376
-0.307,-0.013,-0.956,-0.122,1446382
-0.305,-0.013,-0.957,-0.122,1446387
-0.305,-0.013,-0.957,-0.122,1446392
-0.306,-0.014,-0.956,-0.244,1446398
-0.309,-0.015,-0.956,-0.183,1446403
-0.309,-0.015,-0.956,-0.183,1446408
-0.306,-0.016,-0.955,-0.183,1446414
-0.306,-0.016,-0.955,-0.244,1446419
-0.306,-0.016,-0.955,-0.122,1446424
-0.306,-0.016,-0.955,-0.061,1446430
-0.306,-0.014,-0.955,-0.183,1446435
-0.306,-0.014,-0.955,-0.183,1446440
-0.308,-0.015,-0.955,-0.183,1446445
-0.308,-0.015,-0.955,-0.244,1446451
-0.306,-0.015,-0.957,-0.183,1446456
-0.306,-0.015,-0.957,-0.305,1446461
-0.307,-0.014,-0.956,-0.244,1446467
-0.306,-0.015,-0.956,-0.122,1446472
-0.306,-0.015,-0.956,-0.183,1446477
-0.306,-0.014,-0.955,-0.244,1446483
-0.306,-0.014,-0.955,-0.061,1446488
-0.305,-0.013,-0.956,0.0,1446493
-0.305,-0.013,-0.956,-0.122,1446498
-0.306,-0.015,-0.956,-0.122,1446504
-0.306,-0.015,-0.956,-0.122,1446509
-0.306,-0.014,-0.955,-0.122,1446514
-0.306,-0.014,-0.955,-0.183,1446520
-0.305,-0.014,-0.957,-0.183,1446525
-0.305,-0.014,-0.957,-0.366,1446530
-0.307,-0.013,-0.956,-0.122,1446536
-0.307,-0.013,-0.956,-0.061,1446541
-0.307,-0.012,-0.955,-0.183,1446546
-0.309,-0.014,-0.955,-0.183,1446551
-0.309,-0.014,-0.955,-0.183,1446557
-0.308,-0.014,-0.954,-0.244,1446562
-0.308,-0.014,-0.954,-0.122,1446567
-0.307,-0.013,-0.956,-0.122,1446573
-0.307,-0.013,-0.956,-0.061,1446578
-0.307,-0.012,-0.957,-0.244,1446583
-0.307,-0.012,-0.957,-0.122,1446589
-0.306,-0.013,-0.957,0.0,1446594
-0.306,-0.013,-0.957,-0.122,1446599
-0.307,-0.016,-0.957,-0.183,1446604
-0.307,-0.016,-0.957,-0.305,1446610
-0.308,-0.011,-0.957,-0.183,1446615
-0.308,-0.011,-0.957,-0.122,1446620
-0.307,-0.012,-0.956,-0.183,1446626
-0.307,-0.012,-0.956,-0.122,1446631
-0.307,-0.012,-0.956,-0.122,1446636
-0.306,-0.014,-0.956,-0.183,1446642
-0.306,-0.014,-0.956,-0.244,1446647
-0.307,-0.015,-0.955,-0.061,1446652
-0.307,-0.015,-0.955,-0.061,1446657
-0.309,-0.013,-0.956,0.0,1446663
-0.309,-0.013,-0.956,-0.122,1446668
-0.307,-0.014,-0.956,-0.122,1446673
-0.307,-0.014,-0.956,-0.183,1446679
-0.306,-0.014,-0.956,-0.183,1446684
-0.306,-0.014,-0.956,-0.061,1446689
-0.306,-0.013,-0.956,-0.244,1446694
-0.306,-0.013,-0.956,-0.366,1446700
-0.306,-0.014,-0.957,-0.122,1446705
-0.308,-0.014,-0.956,-0.122,1446710
-0.308,-0.014,-0.956,-0.183,1446716
-0.308,-0.013,-0.955,-0.061,1446721
-0.308,-0.013,-0.955,-0.183,1446726
-0.307,-0.013,-0.957,-0.122,1446732
-0.307,-0.013,-0.957,-0.244,1446737
-0.308,-0.014,-0.956,-0.122,1446742
-0.308,-0.014,-0.956,-0.183,1446747
-0.306,-0.013,-0.956,-0.183,1446753
-0.306,-0.013,-0.956,-0.244,1446758
-0.306,-0.013,-0.956,-0.244,1446763
-0.306,-0.013,-0.956,-0.061,1446769
-0.306,-0.012,-0.956,-0.183,1446774
-0.306,-0.012,-0.956,-0.183,1446779
-0.308,-0.012,-0.957,-0.183,1446785
-0.307,-0.013,-0.958,-0.183,1446790
-0.307,-0.013,-0.958,-0.244,1446795
-0.307,-0.013,-0.956,-0.183,1446801
-0.307,-0.013,-0.956,-0.183,1446806
-0.309,-0.014,-0.955,-0.183,1446811
-0.309,-0.014,-0.955,-0.122,1446816
-0.308,-0.014,-0.955,-0.244,1446822
-0.308,-0.014,-0.955,-0.244,1446827
-0.308,-0.011,-0.955,-0.305,1446832
-0.308,-0.011,-0.955,-0.244,1446838
-0.307,-0.014,-0.956,-0.183,1446843
-0.307,-0.014,-0.956,-0.183,1446848
-0.306,-0.013,-0.956,-0.183,1446854
-0.306,-0.014,-0.957,-0.183,1446859
-0.306,-0.014,-0.957,-0.122,1446864
-0.306,-0.014,-0.956,-0.244,1446870
-0.306,-0.014,-0.956,-0.183,1446875
-0.306,-0.013,-0.956,-0.366,1446880
-0.306,-0.013,-0.956,-0.122,1446885
-0.307,-0.013,-0.958,-0.244,1446891
-0.307,-0.013,-0.958,-0.244,1446896
-0.306,-0.014,-0.956,-0.183,1446901
-0.306,-0.014,-0.956,-0.366,1446907
-0.308,-0.015,-0.956,-0.183,1446912
-0.308,-0.015,-0.956,-0.244,1446917
-0.309,-0.014,-0.956,-0.183,1446923
-0.309,-0.014,-0.956,-0.244,1446928
-0.307,-0.014,-0.955,-0.244,1446933
-0.308,-0.014,-0.955,-0.244,1446939
-0.308,-0.014,-0.955,-0.244,1446944
-0.306,-0.014,-0.955,-0.183,1446949
-0.306,-0.014,-0.955,-0.183,1446954
-0.307,-0.016,-0.955,-0.244,1446960
-0.307,-0.016,-0.955,-0.183,1446965
-0.306,-0.015,-0.957,-0.305,1446970
-0.306,-0.015,-0.957,-0.305,1446976
-0.306,-0.013,-0.956,-0.305,1446981
-0.306,-0.013,-0.956,-0.183,1446986
-0.307,-0.013,-0.956,-0.183,1446992
-0.307,-0.013,-0.956,-0.305,1446997
-0.307,-0.013,-0.956,-0.305,1447002
-0.307,-0.013,-0.956,-0.183,1447008
-0.308,-0.014,-0.956,-0.061,1447013
-0.309,-0.013,-0.958,-0.244,1447018
-0.309,-0.013,-0.958,-0.183,1447023
-0.307,-0.013,-0.956,-0.244,1447029
-0.307,-0.013,-0.956,-0.244,1447034
-0.306,-0.015,-0.955,-0.183,1447039
-0.306,-0.015,-0.955,-0.244,1447045
-0.306,-0.014,-0.956,-0.244,1447050
-0.306,-0.014,-0.956,-0.305,1447055
-0.307,-0.015,-0.956,-0.122,1447061
-0.307,-0.015,-0.956,-0.122,1447066
-0.308,-0.013,-0.955,-0.366,1447071
-0.308,-0.013,-0.955,-0.244,1447076
-0.307,-0.015,-0.955,-0.183,1447082
-0.308,-0.014,-0.955,-0.244,1447087
-0.308,-0.014,-0.955,-0.244,1447092
-0.308,-0.015,-0.955,-0.305,1447098
-0.308,-0.015,-0.955,-0.366,1447103
-0.306,-0.016,-0.955,-0.244,1447108
-0.306,-0.016,-0.955,-0.122,1447114
-0.306,-0.014,-0.954,-0.244,1447119
-0.306,-0.014,-0.954,-0.183,1447124
-0.308,-0.016,-0.956,-0.122,1447130
-0.308,-0.016,-0.956,-0.122,1447135
-0.307,-0.016,-0.956,-0.183,1447140
-0.307,-0.016,-0.956,-0.244,1447145
-0.307,-0.015,-0.957,-0.183,1447151
-0.307,-0.015,-0.957,-0.122,1447156
-0.308,-0.015,-0.956,-0.244,1447161
-0.306,-0.015,-0.956,-0.122,1447167
-0.306,-0.015,-0.956,-0.183,1447172
-0.307,-0.014,-0.956,-0.122,1447177
-0.307,-0.014,-0.956,-0.183,1447183
-0.305,-0.015,-0.956,-0.244,1447188
-0.305,-0.015,-0.956,-0.244,1447193
-0.308,-0.015,-0.956,-0.183,1447199
-0.308,-0.015,-0.956,-0.305,1447204
-0.307,-0.014,-0.955,-0.183,1447209
-0.307,-0.014,-0.955,-0.183,1447214
-0.308,-0.015,-0.956,-0.183,1447220
-0.308,-0.015,-0.956,-0.183,1447225
-0.307,-0.015,-0.956,-0.183,1447230
-0.307,-0.014,-0.955,-0.183,1447236
-0.307,-0.014,-0.955,-0.183,1447241
-0.306,-0.015,-0.957,-0.183,1447246
-0.306,-0.015,-0.957,-0.183,1447252
-0.306,-0.015,-0.957,-0.183,1447257
-0.306,-0.015,-0.957,-0.061,1447262
-0.307,-0.014,-0.957,-0.244,1447268
-0.307,-0.014,-0.957,-0.244,1447273
-0.305,-0.014,-0.956,-0.122,1447278
-0.305,-0.014,-0.956,-0.183,1447283
-0.308,-0.014,-0.956,-0.244,1447289
-0.308,-0.014,-0.956,-0.061,1447294
-0.307,-0.015,-0.956,-0.122,1447299
-0.307,-0.015,-0.956,-0.183,1447305
-0.307,-0.014,-0.955,-0.183,1447310
-0.308,-0.016,-0.955,-0.183,1447315
-0.308,-0.016,-0.955,-0.183,1447321
-0.308,-0.017,-0.956,-0.244,1447326
-0.308,-0.017,-0.956,-0.183,1447331
-0.308,-0.017,-0.956,-0.183,1447336
-0.308,-0.017,-0.956,-0.183,1447342
-0.31,-0.015,-0.956,-0.061,1447347
-0.31,-0.015,-0.956,-0.183,1447352
-0.309,-0.015,-0.956,-0.366,1447358
-0.309,-0.015,-0.956,-0.244,1447363
-0.305,-0.016,-0.955,0.0,1447368
-0.305,-0.016,-0.955,-0.122,1447374
-0.308,-0.016,-0.957,-0.183,1447379
-0.308,-0.016,-0.957,-0.122,1447384
-0.308,-0.016,-0.958,-0.122,1447389
-0.308,-0.012,-0.956,-0.305,1447395
-0.308,-0.012,-0.956,-0.244,1447400
-0.307,-0.014,-0.956,-0.183,1447405
-0.307,-0.014,-0.956,-0.122,1447411
-0.306,-0.014,-0.955,-0.122,1447416
-0.306,-0.014,-0.955,-0.122,1447421
-0.307,-0.015,-0.956,-0.183,1447427
-0.307,-0.015,-0.956,-0.183,1447432
-0.308,-0.015,-0.956,-0.244,1447437
-0.308,-0.015,-0.956,-0.183,1447442
-0.308,-0.013,-0.955,-0.061,1447448
-0.308,-0.013,-0.955,-0.244,1447453
-0.308,-0.013,-0.957,-0.244,1447458
-0.308,-0.013,-0.957,-0.366,1447464
-0.307,-0.013,-0.954,-0.244,1447469
-0.309,-0.013,-0.955,-0.244,1447474
-0.309,-0.013,-0.955,-0.305,1447480
-0.308,-0.013,-0.956,-0.122,1447485
-0.308,-0.013,-0.956,-0.122,1447490
-0.308,-0.012,-0.955,-0.244,1447496
-0.308,-0.012,-0.955,-0.183,1447501
-0.308,-0.013,-0.955,-0.122,1447506
-0.308,-0.013,-0.955,-0.122,1447511
-0.309,-0.012,-0.955,-0.122,1447517
-0.309,-0.012,-0.955,-0.183,1447522
-0.308,-0.013,-0.955,-0.183,1447527
-0.308,-0.013,-0.955,-0.183,1447533
-0.307,-0.014,-0.958,-0.122,1447538
-0.309,-0.015,-0.956,-0.122,1447543
-0.309,-0.015,-0.956,-0.366,1447549
-0.309,-0.015,-0.956,-0.183,1447554
-0.309,-0.015,-0.956,-0.183,1447559
-0.309,-0.012,-0.957,-0.488,1447564
-0.309,-0.012,-0.957,-0.183,1447570
-0.309,-0.012,-0.956,-0.122,1447575
-0.309,-0.012,-0.956,-0.183,1447580
-0.309,-0.014,-0.957,-0.305,1447586
-0.309,-0.014,-0.957,-0.244,1447591
-0.308,-0.014,-0.956,-0.305,1447596
-0.308,-0.014,-0.956,-0.244,1447602
-0.307,-0.013,-0.954,-0.244,1447607
-0.307,-0.013,-0.954,-0.244,1447612
-0.309,-0.014,-0.954,-0.183,1447618
-0.308,-0.017,-0.956,-0.305,1447623
-0.308,-0.017,-0.956,-0.183,1447628
-0.306,-0.017,-0.955,-0.244,1447633
-0.306,-0.017,-0.955,-0.305,1447639
-0.307,-0.016,-0.955,-0.305,1447644
-0.307,-0.016,-0.955,-0.366,1447649
-0.307,-0.015,-0.954,-0.488,1447655
-0.307,-0.015,-0.954,-0.427,1447660
-0.308,-0.015,-0.955,-0.244,1447665
-0.308,-0.015,-0.955,-0.305,1447671
-0.306,-0.016,-0.958,-0.305,1447676
-0.306,-0.016,-0.958,-0.366,1447681
-0.305,-0.018,-0.955,-0.305,1447686
-0.305,-0.018,-0.955,-0.183,1447692
-0.307,-0.016,-0.955,-0.061,1447697
-0.306,-0.017,-0.955,-0.183,1447702
-0.306,-0.017,-0.955,-0.244,1447708
-0.307,-0.018,-0.955,-0.244,1447713
-0.307,-0.018,-0.955,-0.244,1447718
-0.306,-0.019,-0.956,-0.305,1447724
-0.306,-0.019,-0.956,-0.305,1447729
-0.306,-0.017,-0.956,-0.183,1447734
-0.306,-0.017,-0.956,-0.122,1447740
-0.308,-0.018,-0.955,-0.122,1447745
-0.308,-0.018,-0.955,-0.183,1447750
-0.308,-0.017,-0.954,-0.244,1447755
-0.308,-0.017,-0.954,-0.305,1447761
-0.308,-0.017,-0.954,-0.305,1447766
-0.308,-0.016,-0.955,-0.244,1447771
-0.308,-0.016,-0.955,-0.183,1447777
-0.309,-0.015,-0.955,-0.122,1447782
-0.309,-0.015,-0.955,-0.244,1447787
-0.309,-0.014,-0.956,-0.244,1447793
-0.309,-0.014,-0.956,-0.183,1447798
-0.308,-0.017,-0.954,-0.122,1447803
-0.308,-0.017,-0.954,-0.244,1447809
-0.308,-0.014,-0.955,-0.305,1447814
-0.308,-0.014,-0.955,-0.183,1447819
-0.307,-0.014,-0.956,-0.244,1447824
-0.307,-0.014,-0.956,-0.183,1447830
-0.308,-0.015,-0.956,-0.244,1447835
-0.308,-0.015,-0.956,-0.183,1447840
-0.308,-0.014,-0.955,-0.061,1447846
-0.308,-0.013,-0.955,-0.183,1447851
-0.308,-0.013,-0.955,-0.183,1447856
-0.307,-0.013,-0.956,-0.366,1447862
-0.307,-0.013,-0.956,-0.244,1447867
-0.309,-0.013,-0.956,-0.244,1447872
-0.309,-0.013,-0.956,-0.305,1447877
-0.307,-0.014,-0.956,-0.183,1447883
-0.307,-0.014,-0.956,-0.183,1447888
-0.307,-0.013,-0.955,-0.244,1447893
-0.307,-0.013,-0.955,-0.183,1447899
-0.306,-0.014,-0.955,-0.244,1447904
-0.306,-0.014,-0.955,-0.244,1447909
-0.308,-0.014,-0.956,-0.244,1447915
-0.308,-0.014,-0.956,-0.183,1447920
-0.307,-0.013,-0.955,-0.122,1447925
-0.308,-0.015,-0.956,-0.244,1447931
-0.308,-0.015,-0.956,-0.305,1447936
-0.305,-0.014,-0.955,-0.183,1447941
-0.305,-0.014,-0.955,-0.183,1447946
-0.306,-0.014,-0.956,-0.244,1447952
-0.306,-0.014,-0.956,-0.244,1447957
-0.309,-0.015,-0.957,-0.305,1447962
-0.309,-0.015,-0.957,-0.305,1447968
-0.308,-0.014,-0.956,-0.122,1447973
-0.308,-0.014,-0.956,-0.244,1447978
-0.308,-0.014,-0.955,-0.183,1447984
-0.308,-0.014,-0.955,-0.183,1447989
-0.308,-0.014,-0.955,-0.122,1447994
-0.309,-0.015,-0.955,-0.183,1448000
-0.309,-0.015,-0.955,-0.122,1448005
-0.308,-0.015,-0.955,-0.122,1448010
-0.308,-0.015,-0.955,-0.244,1448015
-0.31,-0.013,-0.954,-0.183,1448021
-0.31,-0.013,-0.954,-0.183,1448026
-0.309,-0.015,-0.956,-0.305,1448031
-0.309,-0.015,-0.956,-0.305,1448037
-0.309,-0.014,-0.955,-0.244,1448042
-0.309,-0.014,-0.955,-0.122,1448047
-0.308,-0.016,-0.955,-0.183,1448053
-0.308,-0.016,-0.955,-0.244,1448058
-0.308,-0.015,-0.956,-0.244,1448063
-0.308,-0.015,-0.956,-0.244,1448068
-0.309,-0.015,-0.955,-0.488,1448074
-0.308,-0.017,-0.954,-0.244,1448079
-0.308,-0.017,-0.954,-0.244,1448084
-0.308,-0.015,-0.956,-0.122,1448090
-0.308,-0.015,-0.956,-0.061,1448095
-0.307,-0.014,-0.956,-0.183,1448100
-0.307,-0.014,-0.956,-0.244,1448106
-0.308,-0.016,-0.956,-0.244,1448111
-0.308,-0.016,-0.956,-0.183,1448116
-0.308,-0.012,-0.954,-0.305,1448122
-0.308,-0.012,-0.954,-0.122,1448127
-0.309,-0.015,-0.956,-0.122,1448132
-0.309,-0.015,-0.956,-0.305,1448137
-0.308,-0.014,-0.955,-0.183,1448143
-0.308,-0.014,-0.955,-0.061,1448148
-0.308,-0.012,-0.955,-0.244,1448153
-0.307,-0.013,-0.956,-0.366,1448159
-0.307,-0.013,-0.956,-0.366,1448164
-0.306,-0.013,-0.955,-0.244,1448169
-0.306,-0.013,-0.955,-0.122,1448175
-0.308,-0.013,-0.956,0.0,1448180
-0.308,-0.013,-0.956,-0.183,1448185
-0.307,-0.013,-0.958,-0.244,1448190
-0.307,-0.013,-0.958,-0.183,1448196
-0.306,-0.013,-0.957,-0.244,1448201
-0.306,-0.013,-0.957,-0.244,1448206
-0.307,-0.014,-0.957,-0.122,1448212
-0.307,-0.014,-0.957,-0.122,1448217
-0.307,-0.013,-0.955,-0.244,1448222
-0.307,-0.013,-0.955,-0.122,1448228
-0.307,-0.012,-0.957,-0.305,1448233
-0.307,-0.012,-0.958,-0.122,1448238
-0.307,-0.012,-0.958,-0.122,1448243
-0.307,-0.012,-0.956,-0.183,1448249
-0.307,-0.012,-0.956,-0.305,1448254
-0.307,-0.014,-0.957,-0.366,1448259
-0.307,-0.014,-0.957,-0.244,1448265
-0.307,-0.014,-0.958,-0.183,1448270
-0.307,-0.014,-0.958,-0.244,1448275
-0.308,-0.017,-0.955,-0.427,1448281
-0.308,-0.017,-0.955,-0.244,1448286
-0.307,-0.015,-0.955,-0.305,1448291
-0.307,-0.015,-0.955,-0.305,1448296
-0.309,-0.016,-0.955,-0.183,1448302
-0.309,-0.013,-0.956,-0.183,1448307
-0.309,-0.013,-0.956,-0.122,1448312
-0.306,-0.015,-0.955,-0.061,1448318
-0.306,-0.015,-0.955,-0.061,1448323
-0.308,-0.015,-0.956,-0.061,1448328
-0.308,-0.015,-0.956,-0.244,1448334
-0.308,-0.015,-0.955,-0.244,1448339
-0.308,-0.015,-0.955,-0.244,1448344
-0.309,-0.015,-0.956,-0.183,1448350
-0.309,-0.015,-0.956,-0.122,1448355
-0.308,-0.016,-0.955,-0.244,1448360
-0.308,-0.016,-0.955,-0.183,1448365
-0.306,-0.017,-0.957,-0.244,1448371
-0.306,-0.017,-0.957,-0.305,1448376
-0.307,-0.017,-0.957,-0.183,1448381
-0.307,-0.015,-0.954,-0.183,1448387
-0.307,-0.015,-0.954,-0.183,1448392
-0.307,-0.016,-0.953,-0.122,1448397
-0.307,-0.016,-0.953,-0.122,1448403
-0.308,-0.017,-0.956,-0.122,1448408
-0.308,-0.017,-0.956,-0.244,1448413
-0.308,-0.017,-0.956,-0.305,1448419
-0.308,-0.017,-0.956,-0.183,1448424
-0.307,-0.015,-0.957,-0.183,1448429
-0.307,-0.015,-0.957,-0.244,1448434
-0.307,-0.015,-0.956,-0.183,1448440
-0.307,-0.015,-0.956,0.0,1448445
-0.307,-0.014,-0.956,-0.183,1448450
-0.307,-0.014,-0.956,-0.183,1448456
-0.31,-0.015,-0.956,-0.122,1448461
-0.308,-0.015,-0.957,-0.122,1448466
-0.308,-0.015,-0.957,-0.122,1448471
-0.307,-0.015,-0.955,-0.244,1448477
-0.307,-0.015,-0.955,-0.122,1448482
-0.308,-0.013,-0.955,-0.122,1448487
-0.308,-0.013,-0.955,-0.122,1448493
-0.308,-0.013,-0.957,-0.122,1448498
-0.308,-0.013,-0.957,-0.244,1448503
-0.309,-0.014,-0.957,-0.244,1448509
-0.309,-0.014,-0.957,0.0,1448514
-0.309,-0.014,-0.954,-0.244,1448519
-0.309,-0.014,-0.954,-0.305,1448524
-0.308,-0.013,-0.956,-0.244,1448530
-0.308,-0.013,-0.956,-0.183,1448535
-0.307,-0.015,-0.957,-0.122,1448540
-0.308,-0.014,-0.954,-0.183,1448546
-0.308,-0.014,-0.954,-0.122,1448551
-0.308,-0.013,-0.956,-0.183,1448556
-0.308,-0.013,-0.956,-0.183,1448562
-0.307,-0.015,-0.956,-0.122,1448567
-0.307,-0.015,-0.956,-0.183,1448572
-0.31,-0.014,-0.956,-0.244,1448577
-0.31,-0.014,-0.956,-0.244,1448583
-0.308,-0.017,-0.956,-0.183,1448588
-0.308,-0.017,-0.956,-0.183,1448593
-0.308,-0.015,-0.953,-0.061,1448599
-0.308,-0.015,-0.953,-0.366,1448604
-0.308,-0.015,-0.955,-0.183,1448609
-0.307,-0.016,-0.957,-0.244,1448615
-0.307,-0.016,-0.957,-0.244,1448620
-0.307,-0.015,-0.956,-0.366,1448625
-0.307,-0.015,-0.956,-0.366,1448630
-0.307,-0.016,-0.956,-0.244,1448636
-0.307,-0.016,-0.956,-0.305,1448641
-0.305,-0.015,-0.956,-0.061,1448646
-0.305,-0.015,-0.956,-0.122,1448652
-0.307,-0.015,-0.956,-0.183,1448657
-0.307,-0.015,-0.956,-0.122,1448662
-0.307,-0.017,-0.956,-0.183,1448668
-0.307,-0.017,-0.956,-0.183,1448673
-0.308,-0.017,-0.954,-0.183,1448678
-0.308,-0.017,-0.954,-0.183,1448684
-0.307,-0.016,-0.956,-0.183,1448689
-0.307,-0.016,-0.958,-0.244,1448694
-0.307,-0.016,-0.958,-0.305,1448699
-0.308,-0.016,-0.956,-0.244,1448705
-0.308,-0.016,-0.956,-0.122,1448710
-0.307,-0.015,-0.956,-0.244,1448715
-0.307,-0.015,-0.956,-0.244,1448721
-0.308,-0.016,-0.955,-0.061,1448726
-0.308,-0.016,-0.955,-0.244,1448731
-0.308,-0.015,-0.956,-0.305,1448737
-0.308,-0.015,-0.956,-0.183,1448742
-0.308,-0.015,-0.956,-0.183,1448747
-0.308,-0.015,-0.956,-0.183,1448753
-0.309,-0.014,-0.955,-0.183,1448758
-0.309,-0.014,-0.955,-0.183,1448763
-0.307,-0.014,-0.957,-0.183,1448768
-0.309,-0.014,-0.957,-0.244,1448774
-0.309,-0.014,-0.957,-0.183,1448779
-0.309,-0.015,-0.957,-0.183,1448784
-0.309,-0.015,-0.957,-0.061,1448790
-0.309,-0.013,-0.956,-0.183,1448795
-0.309,-0.013,-0.956,-0.122,1448800
-0.308,-0.014,-0.954,-0.244,1448806
-0.308,-0.014,-0.954,-0.244,1448811
-0.309,-0.014,-0.956,-0.122,1448816
-0.309,-0.014,-0.956,-0.244,1448821
-0.308,-0.013,-0.955,-0.183,1448827
-0.308,-0.013,-0.955,-0.244,1448832
-0.307,-0.014,-0.956,-0.244,1448837
-0.308,-0.016,-0.955,-0.244,1448843
-0.308,-0.016,-0.955,-0.244,1448848
-0.309,-0.015,-0.955,-0.244,1448853
-0.309,-0.015,-0.955,-0.244,1448859
-0.308,-0.016,-0.956,-0.244,1448864
-0.308,-0.016,-0.956,-0.183,1448869
-0.307,-0.013,-0.956,-0.244,1448875
-0.307,-0.013,-0.956,-0.183,1448880
-0.307,-0.015,-0.955,-0.183,1448885
-0.307,-0.015,-0.955,-0.305,1448890
-0.307,-0.016,-0.955,-0.183,1448896
-0.307,-0.016,-0.955,-0.244,1448901
-0.309,-0.014,-0.957,-0.244,1448906
-0.309,-0.014,-0.957,-0.305,1448912
-0.307,-0.014,-0.956,-0.183,1448917
-0.307,-0.015,-0.955,-0.122,1448922
-0.307,-0.015,-0.955,-0.122,1448928
-0.306,-0.016,-0.954,-0.183,1448933
-0.306,-0.016,-0.954,-0.244,1448938
-0.307,-0.016,-0.955,-0.244,1448943
-0.307,-0.016,-0.955,-0.122,1448949
-0.309,-0.013,-0.956,-0.183,1448954
-0.309,-0.013,-0.956,-0.183,1448959
-0.308,-0.015,-0.955,-0.122,1448965
-0.308,-0.015,-0.955,-0.244,1448970
-0.308,-0.016,-0.955,-0.244,1448975
-0.308,-0.016,-0.955,-0.122,1448981
-0.309,-0.014,-0.956,-0.061,1448986
-0.309,-0.014,-0.956,-0.244,1448991
-0.309,-0.014,-0.955,-0.183,1448997
-0.307,-0.016,-0.956,-0.183,1449002
-0.307,-0.016,-0.956,-0.244,1449007
-0.306,-0.015,-0.956,-0.366,1449012
-0.306,-0.015,-0.956,-0.244,1449018
-0.308,-0.015,-0.956,-0.122,1449023
-0.308,-0.015,-0.956,-0.305,1449028
-0.308,-0.014,-0.955,-0.183,1449034
-0.308,-0.014,-0.955,-0.183,1449039
-0.309,-0.016,-0.955,-0.183,1449044
-0.309,-0.016,-0.955,-0.183,1449050
-0.308,-0.014,-0.955,-0.122,1449055
-0.308,-0.014,-0.955,-0.122,1449060
-0.307,-0.012,-0.956,-0.061,1449065
-0.308,-0.014,-0.954,-0.122,1449071
-0.308,-0.014,-0.954,-0.122,1449076
-0.309,-0.015,-0.955,-0.183,1449081
-0.309,-0.015,-0.955,-0.122,1449087
-0.309,-0.014,-0.956,-0.305,1449092
-0.309,-0.014,-0.956,-0.183,1449097
-0.307,-0.014,-0.957,-0.244,1449103
-0.307,-0.014,-0.957,-0.244,1449108
-0.308,-0.015,-0.958,-0.244,1449113
-0.308,-0.015,-0.958,-0.122,1449119
-0.307,-0.016,-0.956,-0.122,1449124
-0.307,-0.016,-0.956,-0.122,1449129
-0.307,-0.015,-0.954,-0.061,1449134
-0.307,-0.015,-0.954,-0.061,1449140
-0.308,-0.015,-0.953,-0.183,1449145
-0.307,-0.016,-0.957,-0.122,1449150
-0.307,-0.016,-0.957,0.0,1449156
-0.307,-0.016,-0.956,-0.122,1449161
-0.307,-0.016,-0.956,-0.305,1449166
-0.308,-0.014,-0.955,-0.183,1449171
-0.308,-0.014,-0.955,-0.183,1449177
-0.307,-0.016,-0.958,-0.122,1449182
-0.307,-0.016,-0.958,-0.122,1449187
-0.309,-0.016,-0.956,-0.183,1449193
-0.309,-0.016,-0.956,-0.122,1449198
-0.308,-0.016,-0.954,-0.122,1449203
-0.308,-0.016,-0.954,-0.244,1449209
-0.308,-0.015,-0.955,-0.061,1449214
-0.308,-0.015,-0.955,-0.122,1449219
-0.307,-0.016,-0.956,-0.183,1449225
-0.309,-0.016,-0.957,-0.183,1449230
-0.309,-0.016,-0.957,-0.244,1449235
-0.309,-0.015,-0.955,-0.183,1449240
-0.309,-0.015,-0.955,-0.183,1449246
-0.308,-0.015,-0.955,-0.244,1449251
-0.308,-0.015,-0.955,-0.244,1449256
-0.309,-0.016,-0.955,-0.122,1449262
-0.309,-0.016,-0.955,0.0,1449267
-0.309,-0.014,-0.956,-0.244,1449272
-0.309,-0.014,-0.956,-0.366,1449277
-0.308,-0.016,-0.956,-0.183,1449283
-0.308,-0.016,-0.956,-0.183,1449288
-0.308,-0.015,-0.956,-0.122,1449293
-0.308,-0.015,-0.956,-0.061,1449299
-0.307,-0.015,-0.957,-0.122,1449304
-0.308,-0.015,-0.956,-0.183,1449309
-0.308,-0.015,-0.956,-0.122,1449315
-0.307,-0.014,-0.957,-0.183,1449320
-0.307,-0.014,-0.957,-0.183,1449325
-0.308,-0.015,-0.956,-0.122,1449330
-0.308,-0.015,-0.956,-0.183,1449336
-0.309,-0.014,-0.953,-0.244,1449341
-0.309,-0.014,-0.953,-0.305,1449346
-0.308,-0.013,-0.956,-0.183,1449352
-0.308,-0.013,-0.956,-0.183,1449357
-0.308,-0.013,-0.956,0.0,1449362
-0.308,-0.013,-0.956,-0.122,1449368
-0.309,-0.013,-0.955,-0.122,1449373
-0.309,-0.013,-0.955,-0.061,1449378
-0.308,-0.012,-0.956,-0.061,1449383
-0.308,-0.013,-0.954,-0.122,1449389
-0.308,-0.013,-0.954,0.061,1449394
-0.31,-0.014,-0.957,0.122,1449399
-0.31,-0.014,-0.957,0.244,1449404
-0.311,-0.013,-0.957,0.0,1449410
-0.311,-0.013,-0.957,-0.183,1449415
-0.307,-0.013,-0.957,-0.244,1449420
-0.307,-0.013,-0.957,-0.122,1449426
-0.307,-0.014,-0.956,0.0,1449431
-0.307,-0.014,-0.956,0.061,1449436
-0.308,-0.012,-0.954,-0.244,1449441
-0.308,-0.012,-0.954,-0.244,1449447
-0.308,-0.014,-0.954,-0.244,1449452
-0.308,-0.014,-0.954,-0.244,1449457
-0.308,-0.015,-0.955,-0.244,1449463
-0.31,-0.014,-0.955,-0.183,1449468
-0.31,-0.014,-0.955,-0.183,1449473
-0.308,-0.016,-0.955,-0.183,1449478
-0.308,-0.016,-0.955,-0.122,1449484
-0.307,-0.014,-0.956,-0.122,1449489
-0.307,-0.014,-0.956,-0.183,1449494
-0.309,-0.013,-0.955,-0.122,1449500
-0.309,-0.013,-0.955,-0.061,1449505
-0.307,-0.016,-0.957,0.0,1449510
-0.307,-0.016,-0.957,-0.061,1449515
-0.307,-0.016,-0.957,0.061,1449521
-0.307,-0.016,-0.957,0.0,1449526
-0.308,-0.016,-0.955,0.0,1449531
-0.308,-0.016,-0.955,0.061,1449536
-0.309,-0.018,-0.954,-0.183,1449542
-0.308,-0.017,-0.953,0.0,1449547
-0.308,-0.017,-0.953,-0.122,1449552
-0.307,-0.018,-0.954,-0.183,1449558
-0.307,-0.018,-0.954,-0.061,1449563
-0.309,-0.018,-0.955,0.0,1449568
-0.309,-0.018,-0.955,-0.061,1449573
-0.31,-0.018,-0.954,-0.061,1449579
-0.31,-0.018,-0.954,-0.061,1449584
-0.309,-0.017,-0.954,-0.061,1449589
-0.309,-0.017,-0.954,0.061,1449595
-0.309,-0.017,-0.955,-0.061,1449600
-0.309,-0.017,-0.955,-0.183,1449605
-0.308,-0.016,-0.956,-0.122,1449610
-0.308,-0.016,-0.956,-0.122,1449616
-0.309,-0.019,-0.955,-0.122,1449621
-0.31,-0.019,-0.954,-0.122,1449626
-0.31,-0.019,-0.954,-0.122,1449632
-0.31,-0.018,-0.955,-0.244,1449637
-0.31,-0.018,-0.955,-0.122,1449642
-0.308,-0.015,-0.954,-0.122,1449648
-0.308,-0.015,-0.954,-0.183,1449653
-0.309,-0.016,-0.955,-0.183,1449658
-0.309,-0.016,-0.955,-0.122,1449663
-0.309,-0.017,-0.956,0.0,1449669
-0.309,-0.017,-0.956,-0.122,1449674
-0.308,-0.017,-0.955,-0.122,1449679
-0.308,-0.017,-0.955,-0.183,1449685
-0.308,-0.018,-0.954,-0.061,1449690
-0.308,-0.018,-0.954,0.0,1449695
-0.308,-0.017,-0.954,0.061,1449700
-0.308,-0.019,-0.954,0.0,1449706
-0.308,-0.019,-0.954,0.0,1449711
-0.309,-0.015,-0.955,-0.061,1449716
-0.309,-0.015,-0.955,0.0,1449721
-0.308,-0.015,-0.955,-0.122,1449727
-0.308,-0.015,-0.955,-0.183,1449732
-0.309,-0.015,-0.955,-0.061,1449737
-0.309,-0.015,-0.955,-0.061,1449742
-0.309,-0.015,-0.955,-0.061,1449748
-0.309,-0.015,-0.955,-0.061,1449753
-0.308,-0.015,-0.954,0.0,1449758
-0.308,-0.015,-0.954,0.061,1449764
-0.308,-0.018,-0.955,-0.122,1449769
-0.308,-0.018,-0.955,0.061,1449774
-0.309,-0.016,-0.956,-0.122,1449779
-0.309,-0.016,-0.956,-0.183,1449785
-0.308,-0.015,-0.955,-0.061,1449790
-0.309,-0.014,-0.955,-0.183,1449795
-0.309,-0.014,-0.955,-0.183,1449801
-0.308,-0.015,-0.956,0.0,1449806
-0.308,-0.015,-0.956,-0.122,1449811
-0.309,-0.013,-0.955,-0.122,1449816
-0.309,-0.013,-0.955,-0.122,1449822
-0.309,-0.013,-0.953,-0.061,1449827
-0.309,-0.013,-0.953,-0.244,1449832
-0.31,-0.013,-0.954,-0.061,1449838
-0.31,-0.013,-0.954,-0.061,1449843
-0.309,-0.011,-0.956,-0.183,1449848
-0.309,-0.011,-0.956,-0.122,1449854
-0.311,-0.012,-0.955,-0.183,1449859
-0.311,-0.013,-0.957,-0.244,1449864
-0.311,-0.013,-0.957,-0.122,1449869
-0.311,-0.012,-0.955,-0.061,1449875
-0.311,-0.012,-0.955,-0.122,1449880
-0.311,-0.011,-0.955,-0.122,1449885
-0.311,-0.011,-0.955,-0.061,1449891
-0.31,-0.011,-0.957,-0.183,1449896
-0.31,-0.011,-0.957,-0.183,1449901
-0.309,-0.01,-0.958,-0.183,1449907
-0.309,-0.01,-0.958,-0.183,1449912
-0.308,-0.012,-0.957,-0.183,1449917
-0.308,-0.012,-0.957,-0.305,1449922
-0.308,-0.012,-0.953,-0.183,1449928
-0.308,-0.012,-0.953,-0.244,1449933
-0.308,-0.012,-0.955,-0.244,1449938
-0.308,-0.015,-0.956,-0.244,1449944
-0.308,-0.015,-0.956,-0.122,1449949
-0.308,-0.014,-0.957,-0.183,1449954
-0.308,-0.014,-0.957,-0.183,1449960
-0.308,-0.013,-0.957,-0.305,1449965
-0.308,-0.013,-0.957,-0.122,1449970
-0.307,-0.015,-0.956,-0.122,1449976
-0.307,-0.015,-0.956,-0.244,1449981
-0.308,-0.015,-0.957,-0.244,1449986
-0.308,-0.015,-0.957,-0.122,1449991
-0.308,-0.014,-0.957,-0.244,1449997
-0.308,-0.014,-0.957,-0.183,1450002
-0.306,-0.014,-0.957,-0.244,1450007
-0.306,-0.014,-0.957,-0.366,1450013
-0.306,-0.014,-0.956,-0.305,1450018
-0.308,-0.014,-0.955,-0.122,1450023
-0.308,-0.014,-0.955,-0.183,1450029
-0.307,-0.015,-0.954,-0.244,1450034
-0.307,-0.015,-0.954,-0.183,1450039
-0.307,-0.014,-0.955,-0.244,1450045
-0.307,-0.014,-0.955,-0.244,1450050
-0.308,-0.015,-0.954,-0.183,1450055
-0.308,-0.015,-0.954,-0.122,1450060
-0.306,-0.016,-0.956,-0.183,1450066
-0.306,-0.016,-0.956,-0.244,1450071
-0.309,-0.015,-0.959,-0.183,1450076
-0.309,-0.015,-0.959,-0.244,1450082
-0.309,-0.015,-0.956,-0.183,1450087
-0.309,-0.015,-0.956,-0.183,1450092
-0.308,-0.014,-0.955,-0.183,1450098
-0.309,-0.015,-0.956,-0.183,1450103
-0.309,-0.015,-0.956,-0.183,1450108
-0.31,-0.016,-0.956,-0.183,1450113
-0.31,-0.016,-0.956,-0.183,1450119
-0.309,-0.015,-0.956,-0.122,1450124
-0.309,-0.015,-0.956,-0.183,1450129
-0.309,-0.014,-0.954,-0.183,1450135
-0.309,-0.014,-0.954,-0.305,1450140
-0.309,-0.013,-0.956,-0.122,1450145
-0.309,-0.013,-0.956,-0.061,1450151
-0.31,-0.014,-0.957,-0.061,1450156
-0.31,-0.014,-0.957,-0.244,1450161
-0.309,-0.014,-0.955,-0.061,1450167
-0.309,-0.014,-0.955,-0.244,1450172
-0.309,-0.014,-0.955,-0.183,1450177
-0.308,-0.014,-0.955,-0.122,1450182
-0.308,-0.014,-0.955,-0.183,1450188
-0.308,-0.013,-0.955,-0.244,1450193
-0.308,-0.013,-0.955,-0.183,1450198
-0.308,-0.014,-0.955,-0.061,1450204
-0.308,-0.014,-0.955,-0.061,1450209
-0.31,-0.014,-0.955,-0.183,1450214
-0.31,-0.014,-0.955,-0.183,1450220
-0.31,-0.015,-0.956,-0.244,1450225
-0.31,-0.015,-0.956,-0.183,1450230
-0.309,-0.013,-0.955,-0.122,1450236
-0.309,-0.013,-0.955,-0.183,1450241
-0.308,-0.016,-0.954,-0.183,1450246
-0.31,-0.015,-0.954,-0.366,1450251
-0.31,-0.015,-0.954,-0.244,1450257
-0.309,-0.014,-0.953,-0.244,1450262
-0.309,-0.014,-0.953,-0.244,1450267
-0.308,-0.016,-0.956,-0.244,1450273
-0.308,-0.016,-0.956,-0.244,1450278
-0.31,-0.016,-0.956,-0.183,1450283
-0.31,-0.016,-0.956,-0.061,1450289
-0.309,-0.015,-0.955,-0.183,1450294
-0.309,-0.015,-0.955,-0.183,1450299
-0.311,-0.017,-0.954,-0.183,1450304
-0.311,-0.017,-0.954,-0.244,1450310
-0.311,-0.016,-0.954,-0.122,1450315
-0.311,-0.016,-0.954,-0.061,1450320
-0.31,-0.017,-0.954,-0.183,1450326
-0.309,-0.018,-0.953,-0.122,1450331
-0.309,-0.018,-0.953,-0.183,1450336
-0.309,-0.016,-0.955,-0.244,1450342
-0.309,-0.016,-0.955,-0.183,1450347
-0.309,-0.017,-0.955,-0.122,1450352
-0.309,-0.017,-0.955,-0.183,1450358
-0.309,-0.017,-0.954,-0.183,1450363
-0.309,-0.017,-0.954,-0.244,1450368
-0.311,-0.017,-0.953,-0.244,1450373
-0.311,-0.017,-0.953,-0.244,1450379
-0.31,-0.016,-0.954,-0.183,1450384
-0.31,-0.016,-0.954,-0.061,1450389
-0.309,-0.015,-0.955,0.061,1450395
-0.31,-0.018,-0.955,-0.122,1450400
-0.31,-0.018,-0.955,-0.061,1450405
-0.31,-0.017,-0.955,-0.122,1450411
-0.31,-0.017,-0.955,0.0,1450416
-0.309,-0.016,-0.955,-0.305,1450421
-0.309,-0.016,-0.955,-0.122,1450426
-0.309,-0.015,-0.957,-0.061,1450432
-0.309,-0.015,-0.957,-0.305,1450437
-0.308,-0.017,-0.954,-0.061,1450442
-0.308,-0.017,-0.954,-0.061,1450448
-0.309,-0.016,-0.954,-0.122,1450453
-0.309,-0.016,-0.954,-0.183,1450458
-0.309,-0.015,-0.955,-0.122,1450464
-0.309,-0.015,-0.955,-0.122,1450469
-0.309,-0.015,-0.954,-0.122,1450474
-0.308,-0.015,-0.954,-0.244,1450479
-0.308,-0.015,-0.954,-0.244,1450485
-0.31,-0.014,-0.955,-0.122,1450490
-0.31,-0.014,-0.955,-0.305,1450495
-0.31,-0.014,-0.955,-0.244,1450501
-0.31,-0.014,-0.955,-0.183,1450506
-0.308,-0.015,-0.955,-0.061,1450511
-0.308,-0.015,-0.955,-0.366,1450517
-0.308,-0.016,-0.955,-0.122,1450522
-0.308,-0.016,-0.955,-0.061,1450527
-0.308,-0.015,-0.956,-0.183,1450533
-0.308,-0.015,-0.956,-0.183,1450538
-0.309,-0.015,-0.954,-0.122,1450543
-0.309,-0.015,-0.954,-0.061,1450548
-0.309,-0.014,-0.955,-0.183,1450554
-0.31,-0.015,-0.956,-0.244,1450559
-0.31,-0.015,-0.956,-0.122,1450564
-0.308,-0.016,-0.956,-0.122,1450570
-0.308,-0.016,-0.956,-0.122,1450575
-0.308,-0.014,-0.955,-0.244,1450580
-0.308,-0.014,-0.955,-0.122,1450586
-0.308,-0.014,-0.956,-0.183,1450591
-0.308,-0.014,-0.956,-0.061,1450596
-0.311,-0.015,-0.955,-0.244,1450601
-0.311,-0.015,-0.955,-0.183,1450607
-0.309,-0.014,-0.957,-0.122,1450612
-0.309,-0.014,-0.957,-0.183,1450617
-0.308,-0.013,-0.957,-0.061,1450623
-0.306,-0.015,-0.956,-0.244,1450628
-0.306,-0.015,-0.956,-0.183,1450633
-0.306,-0.015,-0.954,-0.122,1450639
-0.306,-0.015,-0.954,-0.183,1450644
-0.308,-0.012,-0.956,-0.183,1450649
-0.308,-0.012,-0.956,-0.183,1450655
-0.309,-0.013,-0.955,-0.183,1450660
-0.309,-0.013,-0.955,-0.183,1450665
-0.309,-0.011,-0.957,-0.244,1450670
-0.309,-0.011,-0.957,-0.305,1450676
-0.307,-0.012,-0.956,-0.305,1450681
-0.307,-0.012,-0.956,-0.244,1450686
-0.308,-0.012,-0.955,-0.305,1450692
-0.308,-0.012,-0.955,-0.122,1450697
-0.308,-0.013,-0.956,-0.305,1450702
-0.307,-0.013,-0.957,-0.122,1450708
-0.307,-0.013,-0.957,-0.305,1450713
-0.307,-0.013,-0.958,-0.305,1450718
-0.307,-0.013,-0.958,-0.183,1450723
-0.309,-0.012,-0.956,-0.183,1450729
-0.309,-0.012,-0.956,-0.244,1450734
-0.308,-0.013,-0.956,-0.305,1450739
-0.308,-0.013,-0.956,-0.305,1450745
-0.309,-0.013,-0.955,-0.061,1450750
-0.309,-0.013,-0.955,-0.183,1450755
-0.31,-0.013,-0.956,-0.366,1450761
-0.31,-0.013,-0.956,-0.427,1450766
-0.312,-0.015,-0.955,-0.244,1450771
-0.312,-0.015,-0.955,-0.244,1450777
-0.31,-0.014,-0.956,-0.183,1450782
-0.309,-0.015,-0.956,-0.244,1450787
-0.309,-0.015,-0.956,-0.366,1450792
-0.309,-0.015,-0.956,-0.244,1450798
-0.309,-0.015,-0.956,-0.244,1450803
-0.309,-0.016,-0.956,-0.366,1450808
-0.309,-0.016,-0.956,-0.366,1450814
-0.309,-0.016,-0.958,-0.244,1450819
-0.309,-0.016,-0.958,-0.122,1450824
-0.308,-0.016,-0.953,-0.122,1450830
-0.308,-0.016,-0.953,-0.244,1450835
-0.308,-0.017,-0.953,-0.305,1450840
-0.308,-0.017,-0.953,-0.183,1450845
-0.31,-0.017,-0.955,-0.183,1450851
-0.31,-0.017,-0.955,-0.244,1450856
-0.309,-0.017,-0.954,-0.305,1450861
-0.308,-0.015,-0.954,-0.244,1450867
-0.308,-0.015,-0.954,-0.366,1450872
-0.308,-0.017,-0.956,-0.366,1450877
-0.308,-0.017,-0.956,-0.122,1450883
-0.307,-0.017,-0.956,-0.183,1450888
-0.307,-0.017,-0.956,-0.305,1450893
-0.308,-0.018,-0.956,-0.305,1450899
-0.308,-0.018,-0.956,-0.244,1450904
-0.308,-0.016,-0.956,-0.183,1450909
-0.308,-0.016,-0.956,-0.305,1450914
-0.307,-0.016,-0.954,-0.305,1450920
-0.307,-0.016,-0.954,-0.244,1450925
-0.309,-0.016,-0.957,-0.244,1450930
-0.308,-0.017,-0.958,-0.122,1450936
-0.308,-0.017,-0.958,-0.122,1450941
-0.31,-0.017,-0.956,-0.183,1450946
-0.31,-0.017,-0.956,-0.183,1450952
-0.308,-0.017,-0.954,-0.122,1450957
-0.308,-0.017,-0.954,-0.061,1450962
-0.307,-0.017,-0.954,-0.122,1450967
-0.307,-0.017,-0.954,-0.122,1450973
-0.308,-0.018,-0.956,-0.183,1450978
-0.308,-0.018,-0.956,-0.305,1450983
-0.307,-0.017,-0.956,-0.183,1450989
-0.307,-0.017,-0.956,-0.244,1450994
-0.308,-0.015,-0.955,-0.183,1450999
-0.308,-0.015,-0.955,-0.122,1451005
-0.309,-0.016,-0.955,-0.183,1451010
-0.308,-0.016,-0.957,-0.122,1451015
-0.308,-0.016,-0.957,-0.183,1451021
-0.307,-0.015,-0.956,-0.183,1451026
-0.307,-0.015,-0.956,-0.183,1451031
-0.31,-0.015,-0.955,-0.183,1451036
-0.31,-0.015,-0.955,-0.244,1451042
-0.309,-0.014,-0.953,-0.122,1451047
-0.309,-0.014,-0.953,-0.061,1451052
-0.309,-0.015,-0.953,0.0,1451058
-0.309,-0.015,-0.953,-0.244,1451063
-0.31,-0.014,-0.954,-0.183,1451068
-0.31,-0.014,-0.954,-0.244,1451073
-0.309,-0.015,-0.958,-0.244,1451079
-0.309,-0.015,-0.958,-0.244,1451084
-0.312,-0.013,-0.955,-0.244,1451089
-0.31,-0.013,-0.953,-0.305,1451095
-0.31,-0.013,-0.953,-0.305,1451100
-0.308,-0.014,-0.955,-0.183,1451105
-0.308,-0.014,-0.955,-0.244,1451111
-0.311,-0.013,-0.957,-0.305,1451116
-0.311,-0.013,-0.957,-0.305,1451121
-0.307,-0.013,-0.956,-0.061,1451127
-0.307,-0.013,-0.956,-0.183,1451132
-0.308,-0.013,-0.952,-0.305,1451137
-0.308,-0.013,-0.952,-0.122,1451142
-0.309,-0.013,-0.955,-0.183,1451148
-0.309,-0.013,-0.955,-0.183,1451153
-0.309,-0.015,-0.957,-0.366,1451158
-0.308,-0.016,-0.956,-0.244,1451164
-0.308,-0.016,-0.956,-0.244,1451169
-0.307,-0.013,-0.953,-0.244,1451174
-0.307,-0.013,-0.953,-0.244,1451180
-0.309,-0.015,-0.954,-0.244,1451185
-0.309,-0.015,-0.954,-0.244,1451190
-0.308,-0.014,-0.957,-0.244,1451195
-0.308,-0.014,-0.957,-0.183,1451201
-0.308,-0.016,-0.954,-0.183,1451206
-0.308,-0.016,-0.954,-0.244,1451211
-0.307,-0.015,-0.954,-0.244,1451217
-0.307,-0.015,-0.954,-0.244,1451222
-0.309,-0.014,-0.956,-0.122,1451227
-0.309,-0.014,-0.956,-0.061,1451233
-0.307,-0.016,-0.955,-0.122,1451238
-0.307,-0.017,-0.955,-0.244,1451243
-0.307,-0.017,-0.955,-0.122,1451249
-0.309,-0.016,-0.956,-0.244,1451254
-0.309,-0.016,-0.956,-0.183,1451259
-0.308,-0.013,-0.956,-0.183,1451264
-0.308,-0.013,-0.956,-0.183,1451270
-0.307,-0.014,-0.956,-0.244,1451275
-0.307,-0.014,-0.956,-0.183,1451280
-0.307,-0.015,-0.955,-0.244,1451286
-0.307,-0.015,-0.955,-0.061,1451291
-0.308,-0.015,-0.955,0.0,1451296
-0.308,-0.015,-0.955,-0.122,1451301
-0.308,-0.014,-0.955,-0.122,1451307
-0.308,-0.014,-0.955,-0.183,1451312
-0.308,-0.013,-0.956,-0.244,1451317
-0.309,-0.015,-0.954,-0.183,1451323
-0.309,-0.015,-0.954,-0.183,1451328
-0.308,-0.014,-0.955,-0.122,1451333
-0.308,-0.014,-0.955,-0.122,1451339
-0.308,-0.015,-0.955,-0.122,1451344
-0.308,-0.015,-0.955,-0.244,1451349
-0.308,-0.014,-0.955,-0.061,1451355
-0.308,-0.014,-0.955,-0.122,1451360
-0.307,-0.013,-0.957,-0.122,1451365
-0.307,-0.013,-0.957,-0.183,1451370
-0.309,-0.013,-0.954,-0.244,1451376
-0.309,-0.013,-0.954,-0.244,1451381
-0.306,-0.014,-0.954,-0.244,1451386
-0.306,-0.014,-0.954,-0.244,1451392
-0.307,-0.014,-0.956,-0.244,1451397
-0.309,-0.013,-0.958,-0.244,1451402
-0.309,-0.013,-0.958,-0.183,1451408
-0.308,-0.013,-0.955,-0.183,1451413
-0.308,-0.013,-0.955,-0.183,1451418
-0.307,-0.012,-0.956,-0.244,1451424
-0.307,-0.012,-0.956,-0.244,1451429
-0.306,-0.013,-0.956,-0.244,1451434
-0.306,-0.013,-0.956,-0.244,1451439
-0.308,-0.015,-0.957,-0.305,1451445
-0.308,-0.015,-0.957,-0.427,1451450
-0.31,-0.012,-0.957,-0.366,1451455
-0.31,-0.012,-0.957,-0.183,1451461
-0.31,-0.014,-0.956,-0.122,1451466
-0.308,-0.015,-0.953,-0.244,1451471
-0.308,-0.015,-0.953,-0.244,1451477
-0.31,-0.015,-0.955,-0.244,1451482
-0.31,-0.015,-0.955,-0.122,1451487
-0.309,-0.015,-0.957,-0.183,1451493
-0.309,-0.015,-0.957,-0.244,1451498
-0.31,-0.014,-0.953,-0.244,1451503
-0.31,-0.014,-0.953,-0.244,1451508
-0.309,-0.014,-0.953,-0.122,1451514
-0.309,-0.014,-0.953,-0.183,1451519
-0.308,-0.014,-0.953,-0.305,1451524
-0.308,-0.014,-0.953,-0.244,1451530
-0.309,-0.016,-0.955,0.0,1451535
-0.309,-0.016,-0.955,-0.244,1451540
-0.309,-0.016,-0.956,-0.122,1451545
-0.31,-0.015,-0.954,-0.244,1451551
-0.31,-0.015,-0.954,-0.122,1451556
-0.31,-0.014,-0.954,-0.122,1451561
-0.31,-0.014,-0.954,-0.122,1451567
-0.309,-0.015,-0.956,-0.244,1451572
-0.309,-0.015,-0.956,-0.244,1451577
-0.308,-0.015,-0.956,-0.183,1451583
-0.308,-0.015,-0.956,-0.183,1451588
-0.31,-0.014,-0.954,-0.183,1451593
-0.31,-0.014,-0.954,-0.122,1451599
-0.309,-0.014,-0.952,-0.061,1451604
-0.309,-0.014,-0.952,-0.183,1451609
-0.308,-0.015,-0.955,-0.244,1451614
-0.308,-0.015,-0.955,-0.122,1451620
-0.308,-0.015,-0.955,-0.183,1451625
-0.308,-0.013,-0.956,-0.183,1451630
-0.308,-0.013,-0.956,-0.122,1451636
-0.307,-0.013,-0.955,0.0,1451641
-0.307,-0.013,-0.955,-0.305,1451646
-0.307,-0.014,-0.957,-0.305,1451651
-0.307,-0.014,-0.957,-0.305,1451657
-0.308,-0.014,-0.955,-0.122,1451662
-0.308,-0.014,-0.955,-0.122,1451667
-0.307,-0.014,-0.955,-0.183,1451673
-0.307,-0.014,-0.955,-0.305,1451678
-0.308,-0.013,-0.956,-0.305,1451683
-0.308,-0.013,-0.956,-0.183,1451689
-0.309,-0.014,-0.955,-0.183,1451694
-0.309,-0.014,-0.955,-0.244,1451699
-0.31,-0.014,-0.954,-0.244,1451705
-0.308,-0.013,-0.956,-0.244,1451710
-0.308,-0.013,-0.956,-0.244,1451715
-0.308,-0.015,-0.955,-0.244,1451720
-0.308,-0.015,-0.955,-0.244,1451726
-0.308,-0.014,-0.955,0.0,1451731
-0.308,-0.014,-0.955,-0.366,1451736
-0.308,-0.012,-0.955,-0.244,1451742
-0.308,-0.012,-0.955,-0.244,1451747
-0.309,-0.013,-0.956,-0.244,1451752
-0.309,-0.013,-0.956,-0.183,1451757
-0.309,-0.015,-0.956,-0.183,1451763
-0.309,-0.015,-0.956,-0.244,1451768
-0.309,-0.016,-0.954,-0.183,1451773
-0.31,-0.015,-0.954,-0.244,1451779
-0.31,-0.015,-0.954,-0.183,1451784
-0.309,-0.016,-0.954,-0.244,1451789
-0.309,-0.016,-0.954,-0.183,1451795
-0.309,-0.015,-0.955,-0.122,1451800
-0.309,-0.015,-0.955,-0.183,1451805
-0.309,-0.015,-0.957,-0.183,1451811
-0.309,-0.015,-0.957,-0.122,1451816
-0.308,-0.014,-0.954,-0.183,1451821
-0.308,-0.014,-0.954,-0.122,1451826
-0.309,-0.014,-0.955,0.0,1451832
-0.309,-0.014,-0.955,-0.122,1451837
-0.308,-0.014,-0.956,-0.061,1451842
-0.308,-0.014,-0.956,-0.244,1451848
-0.306,-0.015,-0.955,-0.183,1451853
-0.307,-0.015,-0.955,-0.122,1451858
-0.307,-0.015,-0.955,-0.122,1451863
-0.307,-0.014,-0.955,-0.244,1451869
-0.307,-0.014,-0.955,-0.122,1451874
-0.307,-0.015,-0.955,-0.122,1451879
-0.307,-0.015,-0.955,-0.183,1451885
-0.309,-0.015,-0.954,-0.061,1451890
-0.309,-0.015,-0.954,0.0,1451895
-0.308,-0.013,-0.955,-0.183,1451900
-0.308,-0.013,-0.955,-0.244,1451906
-0.308,-0.013,-0.955,-0.061,1451911
-0.308,-0.013,-0.955,-0.183,1451916
-0.309,-0.013,-0.954,-0.183,1451922
-0.309,-0.013,-0.954,0.0,1451927
-0.31,-0.015,-0.956,0.0,1451932
-0.307,-0.014,-0.955,-0.183,1451937
-0.307,-0.014,-0.955,-0.244,1451943
-0.308,-0.013,-0.955,-0.244,1451948
-0.308,-0.013,-0.955,-0.183,1451953
-0.309,-0.013,-0.955,-0.183,1451959
-0.309,-0.013,-0.955,-0.122,1451964
-0.307,-0.013,-0.957,-0.122,1451969
-0.307,-0.013,-0.957,-0.183,1451975
-0.307,-0.012,-0.955,-0.366,1451980
-0.307,-0.012,-0.955,-0.305,1451985
-0.308,-0.013,-0.955,-0.305,1451990
-0.308,-0.013,-0.955,-0.488,1451996
-0.309,-0.013,-0.954,-0.61,1452001
-0.309,-0.013,-0.954,-0.305,1452006
-0.308,-0.01,-0.954,-0.305,1452012
-0.308,-0.012,-0.955,-0.366,1452017
-0.308,-0.012,-0.955,-0.549,1452022
-0.309,-0.014,-0.955,-0.488,1452028
-0.309,-0.014,-0.955,-0.61,1452033
-0.306,-0.014,-0.955,-0.61,1452038
-0.306,-0.014,-0.955,-0.366,1452044
-0.309,-0.013,-0.956,-0.549,1452049
-0.309,-0.013,-0.956,-0.549,1452054
-0.308,-0.015,-0.957,-0.488,1452059
-0.308,-0.015,-0.957,-0.61,1452065
-0.308,-0.014,-0.955,-0.427,1452070
-0.308,-0.014,-0.955,-0.488,1452075
-0.307,-0.014,-0.954,-0.549,1452081
-0.307,-0.014,-0.954,-0.427,1452086
-0.307,-0.015,-0.956,-0.305,1452091
-0.306,-0.016,-0.955,-0.305,1452097
-0.306,-0.016,-0.955,-0.366,1452102
-0.307,-0.014,-0.957,-0.305,1452107
-0.307,-0.014,-0.957,-0.305,1452112
-0.307,-0.015,-0.956,-0.366,1452118
-0.307,-0.015,-0.956,-0.427,1452123
-0.305,-0.014,-0.955,-0.427,1452128
-0.305,-0.014,-0.955,-0.305,1452134
-0.308,-0.014,-0.957,-0.305,1452139
-0.308,-0.014,-0.957,-0.244,1452144
-0.306,-0.014,-0.955,-0.183,1452150
-0.306,-0.014,-0.955,-0.305,1452155
-0.306,-0.014,-0.954,-0.305,1452160
-0.307,-0.014,-0.956,-0.183,1452166
-0.307,-0.014,-0.956,-0.366,1452171
-0.308,-0.013,-0.955,-0.183,1452176
-0.308,-0.013,-0.955,-0.183,1452181
-0.307,-0.014,-0.956,-0.244,1452187
-0.307,-0.014,-0.956,-0.244,1452192
-0.308,-0.013,-0.956,-0.305,1452197
-0.308,-0.013,-0.956,-0.244,1452203
-0.308,-0.013,-0.957,-0.183,1452208
-0.308,-0.013,-0.957,-0.305,1452213
-0.306,-0.013,-0.955,-0.305,1452219
-0.306,-0.013,-0.955,-0.305,1452224
-0.307,-0.012,-0.956,-0.122,1452229
-0.307,-0.012,-0.956,-0.305,1452234
-0.308,-0.014,-0.956,-0.427,1452240
-0.307,-0.013,-0.955,-0.244,1452245
-0.307,-0.013,-0.955,-0.305,1452250
-0.307,-0.013,-0.956,-0.305,1452256
-0.307,-0.013,-0.956,-0.061,1452261
-0.307,-0.014,-0.955,-0.244,1452266
-0.307,-0.014,-0.955,-0.244,1452272
-0.308,-0.014,-0.956,-0.244,1452277
-0.308,-0.014,-0.956,-0.244,1452282
-0.309,-0.013,-0.954,-0.305,1452288
-0.309,-0.013,-0.954,-0.244,1452293
-0.308,-0.014,-0.954,-0.244,1452298
-0.308,-0.014,-0.954,-0.183,1452303
-0.306,-0.012,-0.955,-0.183,1452309
-0.306,-0.012,-0.955,-0.244,1452314
-0.306,-0.013,-0.956,-0.183,1452319
-0.308,-0.013,-0.955,-0.183,1452325
-0.308,-0.013,-0.955,-0.244,1452330
-0.307,-0.014,-0.955,-0.305,1452335
-0.307,-0.014,-0.955,-0.122,1452341
-0.308,-0.014,-0.954,-0.244,1452346
-0.308,-0.014,-0.954,-0.305,1452351
-0.306,-0.013,-0.955,-0.244,1452357
-0.306,-0.013,-0.955,-0.183,1452362
-0.306,-0.013,-0.956,-0.305,1452367
-0.306,-0.013,-0.956,-0.305,1452372
-0.307,-0.013,-0.957,-0.305,1452378
-0.307,-0.013,-0.957,-0.244,1452383
-0.305,-0.014,-0.955,-0.305,1452388
-0.306,-0.012,-0.956,-0.366,1452394
-0.306,-0.012,-0.956,-0.427,1452399
-0.306,-0.014,-0.957,-0.549,1452404
-0.306,-0.014,-0.957,-0.305,1452410
-0.306,-0.012,-0.955,-0.61,1452415
-0.306,-0.012,-0.955,-0.916,1452420
-0.307,-0.015,-0.955,-0.793,1452425
-0.307,-0.015,-0.955,-0.549,1452431
-0.308,-0.015,-0.956,-0.488,1452436
-0.308,-0.015,-0.956,-0.305,1452441
-0.306,-0.014,-0.954,-0.305,1452447
-0.306,-0.014,-0.954,-0.183,1452452
-0.305,-0.014,-0.956,-0.305,1452457
-0.305,-0.014,-0.956,-0.427,1452463
-0.305,-0.014,-0.956,-0.244,1452468
-0.306,-0.015,-0.956,-0.244,1452473
-0.306,-0.015,-0.956,-0.305,1452479
-0.307,-0.014,-0.957,-0.183,1452484
-0.307,-0.014,-0.957,-0.183,1452489
-0.304,-0.014,-0.956,-0.244,1452494
-0.304,-0.014,-0.956,-0.366,1452500
-0.306,-0.014,-0.954,-0.244,1452505
-0.306,-0.014,-0.954,-0.061,1452510
-0.307,-0.014,-0.954,-0.244,1452516
-0.307,-0.014,-0.954,-0.183,1452521
-0.305,-0.013,-0.956,-0.244,1452526
-0.305,-0.013,-0.956,-0.305,1452532
-0.308,-0.012,-0.956,-0.061,1452537
-0.308,-0.012,-0.956,-0.183,1452542
-0.306,-0.014,-0.957,-0.061,1452547
-0.304,-0.012,-0.956,-0.122,1452553
-0.304,-0.012,-0.956,-0.183,1452558
-0.305,-0.011,-0.957,-0.183,1452563
-0.305,-0.011,-0.957,-0.183,1452569
-0.304,-0.012,-0.956,-0.183,1452574
-0.304,-0.012,-0.956,-0.061,1452579
-0.305,-0.012,-0.956,-0.244,1452585
-0.305,-0.012,-0.956,-0.305,1452590
-0.304,-0.012,-0.957,-0.183,1452595
-0.304,-0.012,-0.957,-0.122,1452601
-0.305,-0.012,-0.956,-0.183,1452606
-0.305,-0.012,-0.956,-0.183,1452611
-0.305,-0.013,-0.956,-0.061,1452616
-0.305,-0.013,-0.956,-0.061,1452622
-0.305,-0.011,-0.957,-0.183,1452627
-0.306,-0.011,-0.957,-0.061,1452632
-0.306,-0.011,-0.957,-0.183,1452638
-0.306,-0.011,-0.956,-0.122,1452643
-0.306,-0.011,-0.956,-0.061,1452648
-0.305,-0.012,-0.958,-0.183,1452654
-0.305,-0.012,-0.958,-0.061,1452659
-0.306,-0.01,-0.957,-0.122,1452664
-0.306,-0.01,-0.957,-0.549,1452669
-0.304,-0.01,-0.956,-1.038,1452675
-0.304,-0.01,-0.956,-1.343,1452680
-0.308,-0.014,-0.956,-1.16,1452685
-0.308,-0.014,-0.956,-0.366,1452691
-0.306,-0.013,-0.956,-0.183,1452696
-0.306,-0.012,-0.955,-0.427,1452701
-0.306,-0.012,-0.955,-0.305,1452707
-0.306,-0.012,-0.953,-0.427,1452712
-0.306,-0.012,-0.953,-0.427,1452717
-0.305,-0.012,-0.954,-0.427,1452722
-0.305,-0.012,-0.954,-0.427,1452728
-0.306,-0.013,-0.957,-0.366,1452733
-0.306,-0.013,-0.957,-0.305,1452738
-0.306,-0.012,-0.957,-0.244,1452744
-0.306,-0.012,-0.957,-0.305,1452749
-0.304,-0.013,-0.956,-0.122,1452754
-0.304,-0.013,-0.956,-0.183,1452760
-0.305,-0.013,-0.956,-0.366,1452765
-0.305,-0.013,-0.956,-0.305,1452770
-0.306,-0.013,-0.955,-0.244,1452776
-0.304,-0.013,-0.957,-0.305,1452781
-0.304,-0.013,-0.957,-0.366,1452786
-0.305,-0.012,-0.956,-0.122,1452791
-0.305,-0.012,-0.956,-0.122,1452797
-0.304,-0.013,-0.957,-0.305,1452802
-0.304,-0.013,-0.957,-0.244,1452807
-0.303,-0.013,-0.957,-0.122,1452813
-0.303,-0.013,-0.957,-0.305,1452818
-0.304,-0.014,-0.957,-0.244,1452823
-0.304,-0.014,-0.957,-0.122,1452829
-0.305,-0.013,-0.956,-0.183,1452834
-0.305,-0.013,-0.956,-0.305,1452839
-0.305,-0.014,-0.956,-0.183,1452845
-0.305,-0.014,-0.956,-0.305,1452850
-0.309,-0.012,-0.957,-0.183,1452855
-0.305,-0.011,-0.958,-0.244,1452860
-0.305,-0.011,-0.958,-0.183,1452866
-0.304,-0.012,-0.955,-0.183,1452871
-0.304,-0.012,-0.955,-0.305,1452876
-0.306,-0.013,-0.956,-0.183,1452882
-0.306,-0.013,-0.956,-0.061,1452887
-0.305,-0.012,-0.959,-0.122,1452892
-0.305,-0.012,-0.959,-0.305,1452898
-0.304,-0.011,-0.958,-0.122,1452903
-0.304,-0.011,-0.958,-0.061,1452908
-0.304,-0.01,-0.958,-0.244,1452913
-0.304,-0.01,-0.958,-0.122,1452919
-0.307,-0.012,-0.958,-0.122,1452924
-0.306,-0.011,-0.955,-0.122,1452929
-0.306,-0.011,-0.955,-0.183,1452935
-0.307,-0.009,-0.956,-0.183,1452940
-0.307,-0.009,-0.956,-0.122,1452945
-0.306,-0.01,-0.957,-0.244,1452951
-0.306,-0.01,-0.957,-0.183,1452956
-0.307,-0.01,-0.957,-0.122,1452961
-0.307,-0.01,-0.957,-0.122,1452966
-0.307,-0.011,-0.957,-0.183,1452972
-0.307,-0.011,-0.957,-0.183,1452977
-0.307,-0.012,-0.957,-0.183,1452982
-0.307,-0.012,-0.957,-0.244,1452988
-0.306,-0.01,-0.956,-0.244,1452993
-0.306,-0.01,-0.956,-0.305,1452998
-0.305,-0.01,-0.957,-0.305,1453004
-0.306,-0.011,-0.958,-0.183,1453009
-0.306,-0.011,-0.958,-0.244,1453014
-0.307,-0.012,-0.958,-0.244,1453020
-0.307,-0.012,-0.958,-0.244,1453025
-0.305,-0.012,-0.955,-0.244,1453030
-0.305,-0.012,-0.955,-0.244,1453035
-0.305,-0.012,-0.956,-0.183,1453041
-0.305,-0.012,-0.956,-0.183,1453046
-0.305,-0.014,-0.956,-0.244,1453051
-0.305,-0.014,-0.956,-0.061,1453057
-0.305,-0.013,-0.957,-0.244,1453062
-0.305,-0.013,-0.957,-0.488,1453067
-0.302,-0.015,-0.956,-0.244,1453073
-0.302,-0.015,-0.956,-0.122,1453078
-0.304,-0.014,-0.956,-0.244,1453083
-0.305,-0.013,-0.955,-0.061,1453088
-0.305,-0.013,-0.955,-0.427,1453094
-0.304,-0.013,-0.956,-0.244,1453099
-0.304,-0.013,-0.956,-0.122,1453104
-0.304,-0.013,-0.956,-0.244,1453110
-0.304,-0.013,-0.956,-0.183,1453115
-0.304,-0.014,-0.956,-0.305,1453120
-0.304,-0.014,-0.956,-0.244,1453126
-0.305,-0.016,-0.956,-0.244,1453131
-0.305,-0.016,-0.956,-0.122,1453136
-0.306,-0.012,-0.956,-0.122,1453142
-0.306,-0.012,-0.956,-0.122,1453147
-0.304,-0.013,-0.958,-0.244,1453152
-0.304,-0.013,-0.958,-0.183,1453157
-0.303,-0.014,-0.955,-0.183,1453163
-0.305,-0.013,-0.954,-0.183,1453168
-0.305,-0.013,-0.954,-0.183,1453173
-0.306,-0.012,-0.955,-0.244,1453179
-0.306,-0.012,-0.955,-0.305,1453184
-0.306,-0.013,-0.957,-0.183,1453189
-0.306,-0.013,-0.957,-0.183,1453195
-0.306,-0.011,-0.955,-0.122,1453200
-0.306,-0.011,-0.955,-0.061,1453205
-0.305,-0.012,-0.955,-0.183,1453211
-0.305,-0.012,-0.955,-0.122,1453216
-0.305,-0.013,-0.957,-0.244,1453221
-0.305,-0.013,-0.957,-0.244,1453226
-0.305,-0.012,-0.957,-0.183,1453232
-0.304,-0.012,-0.955,-0.122,1453237
-0.304,-0.012,-0.955,-0.183,1453242
-0.305,-0.013,-0.956,-0.183,1453248
-0.305,-0.013,-0.956,-0.305,1453253
-0.306,-0.013,-0.955,-0.183,1453258
-0.306,-0.013,-0.955,-0.122,1453264
-0.306,-0.013,-0.956,-0.061,1453269
-0.306,-0.013,-0.956,-0.366,1453274
-0.306,-0.012,-0.955,-0.305,1453279
-0.306,-0.012,-0.955,-0.244,1453285
-0.307,-0.013,-0.956,-0.183,1453290
-0.307,-0.013,-0.956,-0.122,1453295
-0.304,-0.012,-0.956,-0.244,1453301
-0.304,-0.012,-0.956,-0.244,1453306
-0.305,-0.012,-0.956,-0.122,1453311
-0.305,-0.011,-0.956,-0.244,1453317
-0.305,-0.011,-0.956,-0.244,1453322
-0.304,-0.015,-0.956,-0.183,1453327
-0.304,-0.015,-0.956,-0.244,1453333
-0.305,-0.013,-0.957,-0.244,1453338
-0.305,-0.013,-0.957,-0.244,1453343
-0.304,-0.014,-0.956,-0.244,1453348
-0.304,-0.014,-0.956,-0.122,1453354
-0.305,-0.012,-0.957,0.0,1453359
-0.305,-0.012,-0.957,-0.183,1453364
-0.304,-0.012,-0.958,-0.366,1453370
-0.304,-0.012,-0.958,-0.244,1453375
-0.303,-0.015,-0.958,-0.183,1453380
-0.303,-0.015,-0.958,-0.244,1453385
-0.304,-0.013,-0.956,-0.122,1453391
-0.303,-0.014,-0.956,-0.183,1453396
-0.303,-0.014,-0.956,-0.183,1453401
-0.305,-0.014,-0.956,-0.183,1453407
-0.305,-0.014,-0.956,-0.244,1453412
-0.304,-0.012,-0.957,-0.122,1453417
-0.304,-0.012,-0.957,-0.061,1453423
-0.305,-0.014,-0.957,-0.183,1453428
-0.305,-0.014,-0.957,-0.305,1453433
-0.307,-0.015,-0.957,-0.427,1453439
-0.307,-0.015,-0.957,-0.244,1453444
-0.305,-0.013,-0.956,-0.122,1453449
-0.305,-0.013,-0.956,-0.244,1453454
-0.306,-0.013,-0.958,-0.244,1453460
-0.304,-0.014,-0.958,-0.244,1453465
-0.304,-0.014,-0.958,-0.244,1453470
-0.306,-0.013,-0.955,-0.122,1453476
-0.306,-0.013,-0.955,-0.244,1453481
-0.308,-0.012,-0.955,-0.183,1453486
-0.308,-0.012,-0.955,-0.183,1453492
-0.306,-0.013,-0.957,-0.244,1453497
-0.306,-0.013,-0.957,-0.122,1453502
-0.307,-0.013,-0.957,-0.122,1453507
-0.307,-0.013,-0.957,-0.183,1453513
-0.307,-0.014,-0.955,-0.183,1453518
-0.307,-0.014,-0.955,-0.244,1453523
-0.306,-0.013,-0.955,-0.183,1453529
-0.306,-0.013,-0.955,-0.244,1453534
-0.305,-0.013,-0.955,-0.122,1453539
-0.305,-0.014,-0.956,-0.244,1453545
-0.305,-0.014,-0.956,-0.183,1453550
-0.305,-0.013,-0.958,-0.183,1453555
-0.305,-0.013,-0.958,-0.305,1453561
-0.305,-0.012,-0.956,-0.305,1453566
-0.305,-0.012,-0.956,-0.183,1453571
-0.306,-0.012,-0.956,-0.061,1453576
-0.306,-0.012,-0.956,-0.122,1453582
-0.303,-0.012,-0.957,-0.183,1453587
-0.303,-0.012,-0.957,-0.122,1453592
-0.304,-0.013,-0.956,-0.244,1453598
-0.304,-0.013,-0.956,-0.183,1453603
-0.303,-0.011,-0.958,-0.122,1453608
-0.303,-0.011,-0.958,-0.061,1453614
-0.303,-0.01,-0.958,-0.122,1453619
-0.304,-0.01,-0.956,-0.061,1453624
-0.304,-0.01,-0.956,-0.183,1453629
-0.305,-0.011,-0.957,-0.244,1453635
-0.305,-0.011,-0.957,-0.305,1453640
-0.304,-0.011,-0.956,-0.183,1453645
-0.304,-0.011,-0.956,-0.305,1453651
-0.305,-0.01,-0.956,-0.305,1453656
-0.305,-0.01,-0.956,-0.183,1453661
-0.305,-0.01,-0.957,-0.244,1453667
-0.305,-0.01,-0.957,-0.305,1453672
-0.307,-0.011,-0.958,-0.183,1453677
-0.307,-0.011,-0.958,-0.244,1453683
-0.307,-0.011,-0.956,-0.244,1453688
-0.307,-0.011,-0.956,-0.122,1453693
-0.306,-0.01,-0.956,-0.183,1453698
-0.305,-0.01,-0.957,-0.061,1453704
-0.305,-0.01,-0.957,-0.122,1453709
-0.307,-0.013,-0.957,-0.305,1453714
-0.307,-0.013,-0.957,-0.427,1453720
-0.305,-0.011,-0.957,-0.244,1453725
-0.305,-0.011,-0.957,-0.183,1453730
-0.306,-0.01,-0.957,-0.366,1453736
-0.306,-0.01,-0.957,-0.244,1453741
-0.307,-0.011,-0.958,-0.061,1453746
-0.307,-0.011,-0.958,-0.122,1453751
-0.305,-0.012,-0.957,-0.183,1453757
-0.305,-0.012,-0.957,-0.305,1453762
-0.305,-0.011,-0.957,-0.183,1453767
-0.305,-0.011,-0.956,-0.183,1453773
-0.305,-0.011,-0.956,-0.122,1453778
-0.307,-0.011,-0.954,-0.122,1453783
-0.307,-0.011,-0.954,-0.122,1453789
-0.304,-0.012,-0.956,-0.183,1453794
-0.304,-0.012,-0.956,-0.305,1453799
-0.302,-0.015,-0.955,-0.122,1453804
-0.302,-0.015,-0.955,-0.122,1453810
-0.303,-0.013,-0.954,-0.305,1453815
-0.303,-0.013,-0.954,-0.183,1453820
-0.305,-0.013,-0.957,-0.244,1453826
-0.305,-0.013,-0.957,-0.366,1453831
-0.305,-0.012,-0.957,-0.305,1453836
-0.305,-0.012,-0.957,-0.122,1453842
-0.306,-0.013,-0.955,-0.366,1453847
-0.307,-0.014,-0.955,-0.183,1453852
-0.307,-0.014,-0.955,-0.122,1453858
-0.306,-0.013,-0.956,-0.244,1453863
-0.306,-0.013,-0.956,-0.305,1453868
-0.305,-0.012,-0.956,-0.183,1453873
-0.305,-0.012,-0.956,-0.244,1453879
-0.304,-0.013,-0.955,-0.305,1453884
-0.304,-0.013,-0.955,-0.122,1453889
-0.307,-0.013,-0.958,-0.122,1453895
-0.307,-0.013,-0.958,-0.244,1453900
-0.306,-0.014,-0.959,-0.305,1453905
-0.306,-0.014,-0.959,-0.244,1453911
-0.305,-0.013,-0.957,-0.061,1453916
-0.305,-0.013,-0.957,-0.305,1453921
-0.304,-0.014,-0.957,-0.122,1453927
-0.306,-0.012,-0.956,-0.122,1453932
-0.306,-0.012,-0.956,-0.244,1453937
-0.306,-0.012,-0.956,-0.122,1453942
-0.306,-0.012,-0.956,-0.305,1453948
-0.306,-0.013,-0.955,-0.183,1453953
-0.306,-0.013,-0.955,-0.244,1453958
-0.305,-0.012,-0.957,-0.061,1453964
-0.305,-0.012,-0.957,-0.122,1453969
-0.306,-0.012,-0.958,-0.183,1453974
-0.306,-0.012,-0.958,-0.122,1453980
-0.306,-0.012,-0.955,-0.122,1453985
-0.306,-0.012,-0.955,-0.122,1453990
-0.305,-0.012,-0.957,-0.305,1453996
-0.305,-0.012,-0.958,-0.305,1454001
-0.305,-0.012,-0.958,-0.122,1454006
-0.304,-0.014,-0.957,-0.183,1454011
-0.304,-0.014,-0.957,-0.305,1454017
-0.304,-0.015,-0.957,-0.244,1454022
-0.304,-0.015,-0.957,-0.183,1454027
-0.304,-0.016,-0.957,-0.305,1454033
-0.304,-0.016,-0.957,-0.244,1454038
-0.304,-0.014,-0.956,-0.305,1454043
-0.304,-0.014,-0.956,-0.244,1454049
-0.304,-0.014,-0.958,-0.305,1454054
-0.304,-0.014,-0.958,-0.244,1454059
-0.304,-0.015,-0.958,-0.305,1454064
-0.304,-0.015,-0.958,-0.183,1454070
-0.304,-0.015,-0.956,-0.183,1454075
-0.307,-0.014,-0.954,-0.183,1454080
-0.307,-0.014,-0.954,-0.183,1454086
-0.306,-0.014,-0.955,-0.183,1454091
-0.306,-0.014,-0.955,-0.305,1454096
-0.305,-0.014,-0.958,-0.244,1454102
-0.305,-0.014,-0.958,-0.183,1454107
-0.304,-0.013,-0.955,-0.244,1454112
-0.304,-0.013,-0.955,-0.305,1454118
-0.306,-0.014,-0.955,-0.366,1454123
-0.306,-0.014,-0.955,-0.061,1454128
-0.305,-0.013,-0.954,-0.061,1454133
-0.305,-0.013,-0.954,-0.061,1454139
-0.305,-0.014,-0.954,-0.183,1454144
-0.305,-0.014,-0.954,-0.183,1454149
-0.306,-0.013,-0.954,-0.183,1454155
-0.306,-0.013,-0.955,-0.183,1454160
-0.306,-0.013,-0.955,-0.183,1454165
-0.306,-0.013,-0.956,-0.183,1454171
-0.306,-0.013,-0.956,-0.122,1454176
-0.306,-0.013,-0.957,-0.122,1454181
-0.306,-0.013,-0.957,-0.183,1454186
-0.306,-0.013,-0.955,-0.122,1454192
-0.306,-0.013,-0.955,-0.122,1454197
-0.306,-0.013,-0.956,-0.061,1454202
-0.306,-0.013,-0.956,-0.244,1454208
-0.306,-0.011,-0.956,-0.122,1454213
-0.306,-0.011,-0.956,-0.183,1454218
-0.306,-0.012,-0.956,-0.183,1454224
-0.306,-0.012,-0.956,-0.061,1454229
-0.306,-0.012,-0.956,0.061,1454234
-0.307,-0.011,-0.958,-0.244,1454239
-0.307,-0.011,-0.958,-0.244,1454245
-0.305,-0.011,-0.958,-0.244,1454250
-0.305,-0.011,-0.958,-0.244,1454255
-0.307,-0.014,-0.958,-0.183,1454261
-0.307,-0.014,-0.958,-0.122,1454266
-0.308,-0.012,-0.958,-0.244,1454271
-0.308,-0.012,-0.958,-0.244,1454277
-0.306,-0.01,-0.958,-0.061,1454282
-0.306,-0.01,-0.958,-0.183,1454287
-0.305,-0.011,-0.956,-0.183,1454293
-0.305,-0.011,-0.956,-0.122,1454298
-0.307,-0.012,-0.957,-0.244,1454303
-0.307,-0.011,-0.956,-0.183,1454308
-0.307,-0.011,-0.956,-0.244,1454314
-0.307,-0.011,-0.957,-0.122,1454319
-0.307,-0.011,-0.957,-0.122,1454324
-0.307,-0.013,-0.957,-0.183,1454330
-0.307,-0.013,-0.957,-0.183,1454335
-0.306,-0.013,-0.955,-0.183,1454340
-0.306,-0.013,-0.955,-0.122,1454346
-0.308,-0.013,-0.956,-0.305,1454351
-0.308,-0.013,-0.956,-0.305,1454356
-0.306,-0.013,-0.956,-0.366,1454361
-0.306,-0.013,-0.956,-0.305,1454367
-0.306,-0.012,-0.957,-0.061,1454372
-0.306,-0.012,-0.957,-0.183,1454377
-0.304,-0.013,-0.956,-0.183,1454383
-0.307,-0.016,-0.955,-0.183,1454388
-0.307,-0.016,-0.955,-0.122,1454393
-0.307,-0.014,-0.958,-0.122,1454399
-0.307,-0.014,-0.958,-0.122,1454404
-0.306,-0.015,-0.956,-0.244,1454409
-0.306,-0.015,-0.956,-0.122,1454415
-0.307,-0.014,-0.957,-0.183,1454420
-0.307,-0.014,-0.957,-0.244,1454425
-0.306,-0.015,-0.956,-0.122,1454430
-0.306,-0.015,-0.956,-0.122,1454436
-0.305,-0.014,-0.956,-0.183,1454441
-0.305,-0.014,-0.956,-0.244,1454446
-0.306,-0.014,-0.956,-0.244,1454452
-0.306,-0.015,-0.954,-0.244,1454457
-0.306,-0.015,-0.954,-0.244,1454462
-0.306,-0.014,-0.954,-0.122,1454468
-0.306,-0.014,-0.954,-0.122,1454473
-0.307,-0.016,-0.957,-0.183,1454478
-0.307,-0.016,-0.957,-0.244,1454484
-0.305,-0.014,-0.957,-0.244,1454489
-0.305,-0.014,-0.957,-0.305,1454494
-0.305,-0.013,-0.956,-0.244,1454499
-0.305,-0.013,-0.956,-0.305,1454505
-0.305,-0.012,-0.957,-0.183,1454510
-0.305,-0.012,-0.957,0.0,1454515
-0.304,-0.011,-0.957,-0.183,1454521
-0.304,-0.011,-0.957,-0.183,1454526
-0.306,-0.013,-0.956,-0.183,1454531
-0.305,-0.012,-0.957,-0.305,1454536
-0.305,-0.012,-0.957,-0.305,1454542
-0.305,-0.012,-0.957,-0.122,1454547
-0.305,-0.012,-0.957,-0.244,1454552
-0.305,-0.011,-0.957,-0.183,1454558
-0.305,-0.011,-0.957,-0.122,1454563
-0.304,-0.011,-0.957,-0.183,1454568
-0.304,-0.011,-0.957,-0.061,1454574
-0.306,-0.011,-0.957,-0.183,1454579
-0.306,-0.011,-0.957,-0.244,1454584
-0.307,-0.012,-0.956,-0.305,1454590
-0.307,-0.012,-0.956,-0.244,1454595
-0.307,-0.013,-0.956,-0.122,1454600
-0.307,-0.013,-0.956,-0.244,1454605
-0.306,-0.011,-0.958,-0.305,1454611
-0.304,-0.011,-0.957,-0.244,1454616
-0.304,-0.011,-0.957,-0.122,1454621
-0.306,-0.011,-0.955,-0.244,1454627
-0.306,-0.011,-0.955,-0.183,1454632
-0.307,-0.012,-0.958,-0.183,1454637
-0.307,-0.012,-0.958,-0.305,1454643
-0.305,-0.012,-0.956,-0.244,1454648
-0.305,-0.012,-0.956,-0.244,1454653
-0.306,-0.012,-0.955,-0.244,1454658
-0.306,-0.012,-0.955,-0.061,1454664
-0.306,-0.014,-0.955,-0.183,1454669
-0.306,-0.014,-0.955,-0.122,1454674
-0.305,-0.013,-0.955,-0.122,1454680
-0.305,-0.013,-0.955,-0.305,1454685
-0.306,-0.014,-0.955,-0.122,1454690
-0.306,-0.014,-0.957,-0.061,1454696
-0.306,-0.014,-0.957,-0.244,1454701
-0.306,-0.014,-0.958,-0.244,1454706
-0.306,-0.014,-0.958,-0.244,1454711
-0.306,-0.013,-0.956,-0.183,1454717
-0.306,-0.013,-0.956,-0.183,1454722
-0.306,-0.015,-0.956,-0.061,1454727
-0.306,-0.015,-0.956,-0.183,1454733
-0.305,-0.014,-0.957,-0.244,1454738
-0.305,-0.014,-0.957,-0.244,1454743
-0.306,-0.014,-0.956,-0.122,1454749
-0.306,-0.014,-0.956,-0.244,1454754
-0.304,-0.014,-0.957,-0.183,1454759
-0.304,-0.013,-0.956,-0.244,1454765
-0.304,-0.013,-0.956,-0.305,1454770
-0.305,-0.015,-0.957,-0.122,1454775
-0.305,-0.015,-0.957,-0.244,1454780
-0.305,-0.013,-0.956,-0.244,1454786
-0.305,-0.013,-0.956,-0.244,1454791
-0.305,-0.013,-0.957,-0.183,1454796
-0.305,-0.013,-0.957,-0.122,1454802
-0.304,-0.012,-0.958,-0.183,1454807
-0.304,-0.012,-0.958,-0.122,1454812
-0.305,-0.014,-0.956,-0.244,1454818
-0.305,-0.014,-0.956,-0.244,1454823
-0.304,-0.012,-0.955,-0.183,1454828
-0.304,-0.012,-0.955,-0.122,1454834
-0.304,-0.013,-0.957,-0.244,1454839
-0.306,-0.013,-0.955,-0.244,1454844
-0.306,-0.013,-0.955,-0.305,1454849
-0.306,-0.015,-0.957,-0.244,1454855
-0.306,-0.015,-0.957,-0.244,1454860
-0.305,-0.013,-0.957,-0.122,1454865
-0.305,-0.013,-0.957,-0.122,1454871
-0.307,-0.012,-0.957,-0.244,1454876
-0.307,-0.012,-0.957,-0.244,1454881
-0.307,-0.011,-0.958,-0.244,1454887
-0.307,-0.011,-0.958,-0.183,1454892
-0.306,-0.011,-0.955,-0.244,1454897
-0.306,-0.011,-0.955,-0.183,1454902
-0.305,-0.013,-0.956,-0.122,1454908
-0.305,-0.013,-0.956,-0.122,1454913
-0.305,-0.012,-0.956,-0.244,1454918
-0.305,-0.01,-0.956,-0.244,1454924
-0.305,-0.01,-0.956,-0.122,1454929
-0.308,-0.013,-0.955,-0.183,1454934
-0.308,-0.013,-0.955,-0.244,1454940
-0.306,-0.012,-0.956,-0.122,1454945
-0.306,-0.012,-0.956,-0.061,1454950
-0.305,-0.013,-0.956,-0.183,1454955
-0.305,-0.013,-0.956,-0.183,1454961
-0.306,-0.012,-0.954,-0.183,1454966
-0.306,-0.012,-0.954,-0.305,1454971
-0.305,-0.01,-0.956,-0.061,1454977
-0.305,-0.01,-0.956,-0.122,1454982
-0.305,-0.01,-0.955,-0.305,1454987
-0.305,-0.012,-0.955,-0.305,1454993
-0.305,-0.012,-0.955,-0.183,1454998
-0.303,-0.014,-0.955,-0.183,1455003
-0.303,-0.014,-0.955,-0.122,1455009
-0.305,-0.014,-0.956,-0.122,1455014
-0.305,-0.014,-0.956,-0.122,1455019
-0.305,-0.013,-0.958,-0.244,1455024
-0.305,-0.013,-0.958,-0.244,1455030
-0.305,-0.012,-0.957,-0.183,1455035
-0.305,-0.012,-0.957,-0.244,1455040
-0.304,-0.013,-0.956,-0.305,1455046
-0.304,-0.013,-0.956,-0.244,1455051
-0.304,-0.012,-0.957,-0.122,1455056
-0.304,-0.012,-0.957,-0.122,1455062
-0.306,-0.013,-0.957,-0.305,1455067
-0.304,-0.014,-0.955,-0.183,1455072
-0.304,-0.014,-0.955,-0.305,1455078
-0.304,-0.014,-0.957,-0.305,1455083
-0.304,-0.014,-0.957,-0.244,1455088
-0.305,-0.014,-0.957,-0.122,1455093
-0.305,-0.014,-0.957,-0.183,1455099
-0.303,-0.013,-0.957,-0.183,1455104
-0.303,-0.013,-0.957,-0.122,1455109
-0.304,-0.014,-0.956,-0.122,1455115
-0.304,-0.014,-0.956,-0.244,1455120
-0.305,-0.011,-0.956,-0.061,1455125
-0.305,-0.011,-0.956,-0.061,1455131
-0.303,-0.01,-0.955,-0.305,1455136
-0.303,-0.01,-0.955,-0.305,1455141
-0.304,-0.012,-0.955,-0.244,1455146
-0.305,-0.011,-0.956,-0.061,1455152
-0.305,-0.011,-0.956,-0.122,1455157
-0.303,-0.014,-0.958,-0.122,1455162
-0.303,-0.014,-0.958,-0.244,1455168
-0.304,-0.014,-0.955,-0.183,1455173
-0.304,-0.014,-0.955,-0.122,1455178
-0.305,-0.011,-0.955,-0.183,1455184
-0.305,-0.011,-0.955,-0.244,1455189
-0.306,-0.01,-0.958,-0.183,1455194
-0.306,-0.01,-0.958,-0.183,1455199
-0.305,-0.011,-0.958,-0.305,1455205
-0.305,-0.011,-0.958,-0.183,1455210
-0.304,-0.013,-0.957,-0.122,1455215
-0.304,-0.013,-0.957,-0.122,1455221
-0.305,-0.013,-0.957,-0.244,1455226
-0.305,-0.012,-0.955,-0.122,1455231
-0.305,-0.012,-0.955,-0.122,1455237
-0.306,-0.011,-0.956,-0.122,1455242
-0.306,-0.011,-0.956,-0.061,1455247
-0.307,-0.011,-0.958,-0.061,1455253
-0.307,-0.011,-0.958,-0.305,1455258
-0.306,-0.012,-0.955,-0.305,1455263
-0.306,-0.012,-0.955,-0.183,1455268
-0.306,-0.014,-0.957,-0.244,1455274
-0.306,-0.014,-0.957,-0.305,1455279
-0.306,-0.012,-0.956,-0.244,1455284
-0.306,-0.012,-0.956,-0.244,1455290
-0.306,-0.011,-0.955,-0.244,1455295
-0.305,-0.012,-0.955,-0.244,1455300
-0.305,-0.012,-0.955,-0.244,1455306
-0.306,-0.012,-0.955,-0.244,1455311
-0.306,-0.012,-0.955,-0.183,1455316
-0.307,-0.013,-0.957,-0.061,1455321
-0.307,-0.013,-0.957,-0.061,1455327
-0.307,-0.012,-0.956,-0.122,1455332
-0.307,-0.012,-0.956,-0.122,1455337
-0.306,-0.014,-0.955,-0.244,1455343
-0.306,-0.014,-0.955,-0.305,1455348
-0.306,-0.015,-0.956,-0.244,1455353
-0.306,-0.015,-0.956,-0.305,1455359
-0.305,-0.015,-0.956,-0.305,1455364
-0.305,-0.015,-0.956,-0.305,1455369
-0.306,-0.013,-0.955,-0.183,1455374
-0.305,-0.012,-0.957,-0.305,1455380
-0.305,-0.012,-0.957,-0.244,1455385
-0.305,-0.014,-0.957,-0.183,1455390
-0.305,-0.014,-0.957,-0.183,1455396
-0.305,-0.014,-0.957,-0.122,1455401
-0.305,-0.014,-0.957,-0.061,1455406
-0.306,-0.014,-0.955,-0.183,1455412
-0.306,-0.014,-0.955,-0.183,1455417
-0.304,-0.014,-0.956,-0.122,1455422
-0.304,-0.014,-0.956,-0.183,1455428
-0.303,-0.014,-0.958,-0.244,1455433
-0.303,-0.014,-0.958,-0.183,1455438
-0.305,-0.014,-0.957,-0.061,1455443
-0.305,-0.014,-0.957,-0.183,1455449
-0.305,-0.012,-0.956,-0.061,1455454
-0.304,-0.013,-0.956,-0.305,1455459
-0.304,-0.013,-0.956,-0.183,1455465
-0.305,-0.012,-0.956,-0.122,1455470
-0.305,-0.012,-0.956,-0.122,1455475
-0.307,-0.011,-0.956,-0.122,1455481
-0.307,-0.011,-0.956,-0.183,1455486
-0.305,-0.013,-0.956,-0.183,1455491
-0.305,-0.013,-0.956,-0.183,1455496
-0.306,-0.014,-0.958,-0.122,1455502
-0.306,-0.014,-0.958,-0.244,1455507
-0.305,-0.012,-0.958,-0.305,1455512
-0.305,-0.012,-0.958,-0.305,1455518
-0.308,-0.013,-0.955,-0.305,1455523
-0.307,-0.013,-0.955,-0.183,1455528
-0.307,-0.013,-0.955,-0.244,1455534
-0.306,-0.013,-0.955,-0.244,1455539
-0.306,-0.013,-0.955,-0.183,1455544
-0.306,-0.015,-0.955,-0.244,1455550
-0.306,-0.015,-0.955,-0.122,1455555
-0.307,-0.014,-0.957,-0.244,1455560
-0.307,-0.014,-0.957,-0.427,1455565
-0.306,-0.013,-0.956,-0.244,1455571
-0.306,-0.013,-0.956,-0.183,1455576
-0.306,-0.012,-0.956,-0.305,1455581
-0.306,-0.012,-0.956,-0.122,1455587
-0.306,-0.013,-0.957,-0.183,1455592
-0.306,-0.013,-0.957,-0.122,1455597
-0.307,-0.014,-0.957,-0.244,1455603
-0.306,-0.013,-0.956,-0.183,1455608
-0.306,-0.013,-0.956,-0.244,1455613
-0.305,-0.011,-0.958,-0.244,1455618
-0.305,-0.011,-0.958,-0.244,1455624
-0.306,-0.012,-0.957,-0.122,1455629
-0.306,-0.012,-0.957,-0.122,1455634
-0.304,-0.012,-0.957,-0.183,1455640
-0.304,-0.012,-0.957,-0.183,1455645
-0.304,-0.011,-0.956,-0.183,1455650
-0.304,-0.011,-0.956,-0.244,1455656
-0.306,-0.013,-0.957,-0.183,1455661
-0.306,-0.013,-0.957,-0.244,1455666
-0.305,-0.011,-0.957,-0.305,1455672
-0.305,-0.011,-0.957,-0.305,1455677
-0.304,-0.011,-0.956,-0.183,1455682
-0.305,-0.011,-0.957,-0.122,1455687
-0.305,-0.011,-0.957,-0.122,1455693
-0.304,-0.012,-0.956,-0.305,1455698
-0.304,-0.012,-0.956,-0.305,1455703
-0.303,-0.014,-0.957,-0.183,1455709
-0.303,-0.014,-0.957,-0.122,1455714
-0.304,-0.01,-0.957,-0.244,1455719
-0.304,-0.01,-0.957,-0.305,1455725
-0.304,-0.011,-0.957,-0.244,1455730
-0.304,-0.011,-0.957,-0.244,1455735
-0.304,-0.011,-0.956,-0.061,1455740
-0.304,-0.011,-0.956,-0.183,1455746
-0.305,-0.01,-0.956,-0.305,1455751
-0.306,-0.011,-0.957,-0.183,1455756
-0.306,-0.011,-0.957,-0.183,1455762
-0.306,-0.013,-0.956,-0.244,1455767
-0.306,-0.013,-0.956,-0.244,1455772
-0.305,-0.013,-0.955,-0.183,1455778
-0.305,-0.013,-0.955,-0.305,1455783
-0.306,-0.014,-0.958,-0.122,1455788
-0.306,-0.014,-0.958,-0.061,1455794
-0.305,-0.011,-0.957,-0.244,1455799
-0.305,-0.011,-0.957,-0.244,1455804
-0.305,-0.013,-0.957,-0.305,1455809
-0.305,-0.013,-0.957,-0.244,1455815
-0.306,-0.013,-0.956,-0.183,1455820
-0.306,-0.013,-0.956,-0.244,1455825
-0.307,-0.013,-0.956,-0.183,1455831
-0.305,-0.013,-0.956,-0.244,1455836
-0.305,-0.013,-0.956,-0.183,1455841
-0.304,-0.013,-0.956,-0.122,1455847
-0.304,-0.013,-0.956,-0.244,1455852
-0.305,-0.012,-0.956,-0.183,1455857
-0.305,-0.012,-0.956,-0.183,1455862
-0.304,-0.012,-0.956,-0.305,1455868
-0.304,-0.012,-0.956,-0.183,1455873
-0.306,-0.013,-0.957,-0.183,1455878
-0.306,-0.013,-0.957,-0.244,1455884
-0.304,-0.014,-0.958,-0.244,1455889
-0.304,-0.014,-0.958,-0.122,1455894
-0.305,-0.013,-0.956,-0.122,1455900
-0.305,-0.013,-0.956,-0.305,1455905
-0.306,-0.013,-0.956,-0.305,1455910
-0.304,-0.012,-0.957,-0.183,1455916
-0.304,-0.012,-0.957,-0.122,1455921
-0.303,-0.014,-0.958,-0.305,1455926
-0.303,-0.014,-0.958,-0.305,1455931
-0.304,-0.013,-0.956,-0.244,1455937
-0.304,-0.013,-0.956,-0.122,1455942
-0.304,-0.013,-0.955,-0.122,1455947
-0.304,-0.013,-0.955,-0.244,1455953
-0.305,-0.013,-0.956,-0.244,1455958
-0.305,-0.013,-0.956,-0.122,1455963
-0.305,-0.014,-0.956,-0.244,1455969
-0.305,-0.014,-0.956,-0.122,1455974
-0.306,-0.014,-0.957,-0.122,1455979
-0.306,-0.014,-0.957,-0.305,1455985
-0.305,-0.012,-0.956,0.0,1455990
-0.304,-0.012,-0.955,-0.183,1455995
-0.304,-0.012,-0.955,-0.244,1456000
-0.306,-0.013,-0.955,-0.122,1456006
-0.306,-0.013,-0.955,-0.122,1456011
-0.305,-0.013,-0.955,-0.244,1456016
-0.305,-0.013,-0.955,-0.183,1456022
-0.305,-0.014,-0.955,-0.244,1456027
-0.305,-0.014,-0.955,-0.244,1456032
-0.305,-0.014,-0.958,-0.183,1456037
-0.305,-0.014,-0.958,-0.183,1456043
-0.306,-0.012,-0.957,-0.244,1456048
-0.306,-0.012,-0.957,-0.244,1456053
-0.306,-0.013,-0.957,-0.244,1456059
-0.305,-0.013,-0.956,-0.122,1456064
-0.305,-0.013,-0.956,0.0,1456069
-0.305,-0.013,-0.956,-0.244,1456074
-0.305,-0.013,-0.956,-0.183,1456080
-0.305,-0.013,-0.956,-0.183,1456085
-0.305,-0.013,-0.956,-0.122,1456090
-0.305,-0.011,-0.955,-0.061,1456096
-0.305,-0.011,-0.955,-0.305,1456101
-0.305,-0.011,-0.955,-0.244,1456106
-0.305,-0.011,-0.955,-0.305,1456112
-0.305,-0.013,-0.956,-0.183,1456117
-0.305,-0.013,-0.956,-0.122,1456122
-0.304,-0.013,-0.958,-0.183,1456127
-0.304,-0.013,-0.958,-0.244,1456133
-0.304,-0.01,-0.958,-0.122,1456138
-0.304,-0.011,-0.956,-0.244,1456143
-0.304,-0.011,-0.956,-0.183,1456149
-0.304,-0.012,-0.956,-0.122,1456154
-0.304,-0.012,-0.956,-0.122,1456159
-0.305,-0.012,-0.956,-0.244,1456165
-0.305,-0.012,-0.956,-0.244,1456170
-0.304,-0.011,-0.956,-0.305,1456175
-0.304,-0.011,-0.956,-0.305,1456181
-0.304,-0.013,-0.956,-0.183,1456186
-0.304,-0.013,-0.956,-0.122,1456191
-0.304,-0.013,-0.956,-0.122,1456196
-0.304,-0.013,-0.956,-0.183,1456202
-0.306,-0.013,-0.955,-0.183,1456207
-0.306,-0.013,-0.955,-0.244,1456212
-0.305,-0.012,-0.956,-0.061,1456218
-0.306,-0.012,-0.956,-0.122,1456223
-0.306,-0.012,-0.956,-0.305,1456228
-0.306,-0.013,-0.956,-0.183,1456234
-0.306,-0.013,-0.956,-0.183,1456239
-0.305,-0.012,-0.958,-0.183,1456244
-0.305,-0.012,-0.958,-0.122,1456249
-0.304,-0.013,-0.954,-0.244,1456255
-0.304,-0.013,-0.954,-0.183,1456260
-0.304,-0.01,-0.957,-0.183,1456265
-0.304,-0.01,-0.957,-0.183,1456271
-0.305,-0.011,-0.955,-0.122,1456276
-0.305,-0.011,-0.955,-0.122,1456281
-0.304,-0.015,-0.953,-0.183,1456287
-0.304,-0.015,-0.953,-0.305,1456292
-0.307,-0.012,-0.955,-0.061,1456297
-0.307,-0.011,-0.956,-0.305,1456303
-0.307,-0.011,-0.956,-0.305,1456308
-0.306,-0.011,-0.957,-0.244,1456313
-0.306,-0.011,-0.957,-0.305,1456318
-0.305,-0.012,-0.956,-0.183,1456324
-0.305,-0.012,-0.956,-0.183,1456329
-0.305,-0.013,-0.955,-0.183,1456334
-0.305,-0.013,-0.955,-0.183,1456340
-0.305,-0.014,-0.955,-0.122,1456345
-0.305,-0.014,-0.955,-0.183,1456350
-0.306,-0.012,-0.956,-0.244,1456356
-0.306,-0.012,-0.956,-0.122,1456361
-0.305,-0.013,-0.955,-0.061,1456366
-0.304,-0.012,-0.957,-0.122,1456371
-0.304,-0.012,-0.957,-0.122,1456377
-0.306,-0.012,-0.956,-0.183,1456382
-0.306,-0.012,-0.956,-0.061,1456387
-0.304,-0.013,-0.957,-0.122,1456393
-0.304,-0.013,-0.957,-0.305,1456398
-0.305,-0.012,-0.955,-0.305,1456403
-0.305,-0.012,-0.955,-0.244,1456409
-0.303,-0.012,-0.956,-0.183,1456414
-0.303,-0.012,-0.956,-0.244,1456419
-0.304,-0.011,-0.955,-0.183,1456425
-0.304,-0.011,-0.955,-0.244,1456430
-0.304,-0.011,-0.957,-0.244,1456435
-0.304,-0.011,-0.957,-0.183,1456440
-0.303,-0.012,-0.957,-0.183,1456446
-0.304,-0.012,-0.956,-0.244,1456451
-0.304,-0.012,-0.956,-0.305,1456456
-0.304,-0.014,-0.958,-0.305,1456462
-0.304,-0.014,-0.958,-0.183,1456467
-0.306,-0.014,-0.956,-0.183,1456472
-0.306,-0.014,-0.956,-0.122,1456478
-0.305,-0.013,-0.956,-0.244,1456483
-0.305,-0.013,-0.956,-0.183,1456488
-0.305,-0.012,-0.956,-0.183,1456494
-0.305,-0.012,-0.956,-0.366,1456499
-0.305,-0.012,-0.958,-0.244,1456504
-0.305,-0.012,-0.958,-0.244,1456509
-0.305,-0.012,-0.957,-0.122,1456515
-0.305,-0.012,-0.957,-0.244,1456520
-0.306,-0.013,-0.956,-0.305,1456525
-0.305,-0.014,-0.957,-0.183,1456531
-0.305,-0.014,-0.957,-0.122,1456536
-0.305,-0.014,-0.957,-0.183,1456541
-0.305,-0.014,-0.957,-0.244,1456547
-0.305,-0.013,-0.956,0.0,1456552
-0.305,-0.013,-0.956,-0.122,1456557
-0.305,-0.013,-0.956,-0.183,1456562
-0.305,-0.013,-0.956,-0.244,1456568
-0.305,-0.013,-0.958,-0.244,1456573
-0.305,-0.013,-0.958,-0.366,1456578
-0.304,-0.013,-0.959,-0.244,1456584
-0.304,-0.013,-0.959,-0.366,1456589
-0.304,-0.013,-0.958,-0.122,1456594
-0.305,-0.012,-0.955,-0.244,1456600
-0.305,-0.012,-0.955,-0.366,1456605
-0.305,-0.012,-0.956,-0.244,1456610
-0.305,-0.012,-0.956,-0.183,1456615
-0.306,-0.013,-0.957,-0.244,1456621
-0.306,-0.013,-0.957,-0.122,1456626
-0.305,-0.013,-0.956,-0.122,1456631
-0.305,-0.013,-0.956,-0.122,1456637
-0.305,-0.013,-0.956,-0.122,1456642
-0.305,-0.013,-0.956,-0.244,1456647
-0.306,-0.013,-0.957,-0.122,1456653
-0.306,-0.013,-0.957,-0.183,1456658
-0.307,-0.012,-0.957,-0.183,1456663
-0.307,-0.012,-0.957,-0.183,1456669
-0.304,-0.012,-0.957,-0.183,1456674
-0.303,-0.012,-0.957,-0.244,1456679
-0.303,-0.012,-0.957,-0.244,1456684
-0.305,-0.015,-0.957,-0.244,1456690
-0.305,-0.015,-0.957,-0.183,1456695
-0.306,-0.011,-0.956,-0.183,1456700
-0.306,-0.011,-0.956,-0.122,1456706
-0.306,-0.013,-0.956,-0.244,1456711
-0.306,-0.013,-0.956,-0.305,1456716
-0.306,-0.013,-0.957,-0.183,1456722
-0.306,-0.013,-0.957,-0.244,1456727
-0.305,-0.013,-0.956,-0.244,1456732
-0.305,-0.013,-0.956,-0.183,1456737
-0.306,-0.011,-0.956,-0.122,1456743
-0.306,-0.011,-0.956,-0.244,1456748
-0.305,-0.011,-0.956,-0.183,1456753
-0.306,-0.013,-0.956,-0.183,1456759
-0.306,-0.013,-0.956,-0.122,1456764
-0.307,-0.014,-0.956,-0.183,1456769
-0.307,-0.014,-0.956,-0.244,1456775
-0.307,-0.012,-0.955,-0.244,1456780
-0.307,-0.012,-0.955,-0.244,1456785
-0.305,-0.012,-0.956,-0.244,1456791
-0.305,-0.012,-0.956,-0.122,1456796
-0.306,-0.011,-0.958,-0.061,1456801
-0.306,-0.011,-0.958,-0.183,1456806
-0.306,-0.011,-0.956,-0.183,1456812
-0.306,-0.011,-0.956,-0.122,1456817
-0.306,-0.013,-0.958,-0.244,1456822
-0.306,-0.013,-0.958,-0.305,1456828
-0.304,-0.011,-0.958,-0.122,1456833
-0.307,-0.012,-0.958,-0.122,1456838
-0.307,-0.012,-0.958,-0.122,1456844
-0.304,-0.013,-0.957,-0.305,1456849
-0.304,-0.013,-0.957,-0.183,1456854
-0.303,-0.013,-0.957,-0.122,1456859
-0.303,-0.013,-0.957,-0.122,1456865
-0.305,-0.011,-0.957,-0.122,1456870
-0.305,-0.011,-0.957,-0.122,1456875
-0.306,-0.013,-0.957,-0.183,1456881
-0.306,-0.013,-0.957,-0.183,1456886
-0.304,-0.013,-0.956,-0.183,1456891
-0.304,-0.013,-0.956,-0.183,1456897
-0.306,-0.012,-0.956,-0.122,1456902
-0.304,-0.013,-0.956,-0.183,1456907
-0.304,-0.013,-0.956,-0.061,1456912
-0.306,-0.011,-0.957,-0.122,1456918
-0.306,-0.011,-0.957,-0.244,1456923
-0.306,-0.011,-0.956,-0.244,1456928
-0.306,-0.011,-0.956,0.0,1456934
-0.305,-0.012,-0.957,-0.061,1456939
-0.305,-0.012,-0.957,-0.183,1456944
-0.307,-0.013,-0.957,-0.183,1456950
-0.307,-0.013,-0.957,-0.183,1456955
-0.306,-0.013,-0.957,-0.183,1456960
-0.306,-0.013,-0.957,-0.244,1456965
-0.304,-0.013,-0.958,-0.305,1456971
-0.304,-0.013,-0.958,-0.122,1456976
-0.304,-0.012,-0.955,-0.183,1456981
-0.307,-0.012,-0.956,-0.183,1456987
-0.307,-0.012,-0.956,-0.122,1456992
-0.305,-0.013,-0.957,-0.183,1456997
-0.305,-0.013,-0.957,-0.183,1457003
-0.305,-0.012,-0.955,-0.183,1457008
-0.305,-0.012,-0.955,-0.244,1457013
-0.305,-0.012,-0.955,-0.244,1457018
-0.305,-0.012,-0.955,-0.183,1457024
-0.305,-0.012,-0.954,-0.183,1457029
-0.305,-0.012,-0.954,-0.366,1457034
-0.304,-0.012,-0.955,-0.244,1457040
-0.304,-0.012,-0.955,-0.244,1457045
-0.304,-0.014,-0.957,-0.183,1457050
-0.304,-0.014,-0.957,-0.183,1457056
-0.304,-0.013,-0.957,-0.244,1457061
-0.304,-0.012,-0.956,-0.183,1457066
-0.304,-0.012,-0.956,-0.122,1457072
-0.305,-0.014,-0.957,-0.122,1457077
-0.305,-0.014,-0.957,-0.122,1457082
-0.303,-0.015,-0.954,-0.122,1457087
-0.303,-0.015,-0.954,-0.122,1457093
-0.306,-0.013,-0.957,-0.183,1457098
-0.306,-0.013,-0.957,-0.183,1457103
-0.306,-0.014,-0.955,-0.244,1457109
-0.306,-0.014,-0.955,-0.305,1457114
-0.305,-0.012,-0.956,-0.305,1457119
-0.305,-0.012,-0.956,-0.244,1457125
-0.304,-0.011,-0.957,-0.061,1457130
-0.305,-0.012,-0.955,-0.122,1457135
-0.305,-0.012,-0.955,-0.244,1457141
-0.304,-0.012,-0.955,-0.305,1457146
-0.304,-0.012,-0.955,-0.122,1457151
-0.304,-0.012,-0.956,-0.122,1457156
-0.304,-0.012,-0.956,-0.183,1457162
-0.305,-0.012,-0.956,-0.244,1457167
-0.305,-0.012,-0.956,-0.305,1457172
-0.304,-0.014,-0.956,-0.305,1457178
-0.304,-0.014,-0.956,-0.244,1457183
-0.305,-0.013,-0.957,-0.183,1457188
-0.305,-0.013,-0.957,-0.183,1457194
-0.304,-0.012,-0.956,-0.183,1457199
-0.304,-0.012,-0.956,-0.183,1457204
-0.306,-0.013,-0.954,-0.122,1457209
-0.306,-0.011,-0.956,-0.183,1457215
-0.306,-0.011,-0.956,-0.183,1457220
-0.306,-0.011,-0.957,-0.244,1457225
-0.306,-0.011,-0.957,-0.061,1457231
-0.307,-0.014,-0.956,-0.305,1457236
-0.307,-0.014,-0.956,-0.122,1457241
-0.306,-0.012,-0.956,-0.183,1457247
-0.306,-0.012,-0.956,-0.183,1457252
-0.305,-0.013,-0.956,-0.244,1457257
-0.305,-0.013,-0.956,-0.122,1457263
-0.305,-0.014,-0.957,-0.244,1457268
-0.305,-0.014,-0.957,-0.183,1457273
-0.305,-0.013,-0.958,-0.122,1457278
-0.305,-0.013,-0.958,-0.183,1457284
-0.303,-0.013,-0.956,-0.183,1457289
-0.303,-0.013,-0.955,-0.183,1457294
-0.303,-0.013,-0.955,-0.244,1457300
-0.304,-0.013,-0.957,-0.122,1457305
-0.304,-0.013,-0.957,-0.183,1457310
-0.305,-0.014,-0.958,-0.244,1457316
-0.305,-0.014,-0.958,-0.061,1457321
-0.304,-0.013,-0.956,-0.183,1457326
-0.304,-0.013,-0.956,-0.305,1457331
-0.306,-0.012,-0.955,-0.122,1457337
-0.306,-0.012,-0.955,-0.183,1457342
-0.306,-0.014,-0.956,-0.183,1457347
-0.306,-0.014,-0.956,-0.244,1457353
-0.306,-0.012,-0.956,-0.122,1457358
-0.306,-0.012,-0.956,-0.244,1457363
-0.304,-0.013,-0.955,-0.061,1457369
-0.306,-0.013,-0.958,-0.061,1457374
-0.306,-0.013,-0.958,-0.183,1457379
-0.305,-0.012,-0.956,-0.183,1457384
-0.305,-0.012,-0.956,-0.244,1457390
-0.304,-0.012,-0.954,-0.244,1457395
-0.304,-0.012,-0.954,-0.183,1457400
-0.306,-0.012,-0.955,-0.122,1457406
-0.306,-0.012,-0.955,-0.122,1457411
-0.306,-0.012,-0.956,-0.183,1457416
-0.306,-0.012,-0.956,-0.183,1457422
-0.307,-0.011,-0.956,-0.122,1457427
-0.307,-0.011,-0.956,-0.183,1457432
-0.306,-0.012,-0.955,-0.366,1457438
-0.305,-0.01,-0.955,-0.244,1457443
-0.305,-0.01,-0.955,-0.122,1457448
-0.304,-0.011,-0.957,-0.122,1457453
-0.304,-0.011,-0.957,-0.366,1457459
-0.305,-0.013,-0.957,-0.244,1457464
-0.305,-0.013,-0.957,-0.244,1457469
-0.306,-0.012,-0.956,-0.244,1457475
-0.306,-0.012,-0.956,-0.122,1457480
-0.306,-0.013,-0.957,-0.183,1457485
-0.306,-0.013,-0.957,-0.122,1457491
-0.305,-0.013,-0.956,-0.061,1457496
-0.305,-0.013,-0.956,-0.244,1457501
-0.306,-0.014,-0.953,-0.305,1457507
-0.306,-0.014,-0.953,-0.305,1457512
-0.305,-0.012,-0.955,-0.122,1457517
-0.304,-0.013,-0.957,-0.122,1457522
-0.304,-0.013,-0.957,-0.244,1457528
-0.304,-0.015,-0.955,-0.305,1457533
-0.304,-0.015,-0.955,-0.183,1457538
-0.306,-0.014,-0.954,-0.183,1457544
-0.306,-0.014,-0.954,-0.183,1457549
-0.303,-0.015,-0.955,-0.122,1457554
-0.303,-0.015,-0.955,-0.305,1457560
-0.303,-0.014,-0.956,-0.244,1457565
-0.303,-0.014,-0.956,-0.122,1457570
-0.305,-0.015,-0.956,-0.244,1457575
-0.305,-0.015,-0.956,-0.183,1457581
-0.304,-0.014,-0.957,-0.183,1457586
-0.304,-0.014,-0.957,-0.122,1457591
-0.305,-0.013,-0.957,-0.244,1457597
-0.304,-0.013,-0.955,-0.305,1457602
-0.304,-0.013,-0.955,-0.183,1457607
-0.305,-0.013,-0.957,-0.183,1457613
-0.305,-0.013,-0.957,-0.122,1457618
-0.306,-0.015,-0.956,-0.183,1457623
-0.306,-0.015,-0.956,-0.305,1457628
-0.306,-0.013,-0.957,-0.244,1457634
-0.306,-0.013,-0.957,-0.244,1457639
-0.304,-0.013,-0.958,-0.183,1457644
-0.304,-0.013,-0.958,-0.122,1457650
-0.304,-0.013,-0.957,-0.122,1457655
-0.304,-0.013,-0.957,-0.183,1457660
-0.305,-0.013,-0.956,-0.122,1457666
-0.305,-0.012,-0.957,-0.183,1457671
-0.305,-0.012,-0.957,-0.183,1457676
-0.307,-0.013,-0.958,-0.366,1457682
-0.307,-0.013,-0.958,-0.183,1457687
-0.306,-0.012,-0.956,-0.183,1457692
-0.306,-0.012,-0.956,-0.183,1457697
-0.306,-0.012,-0.957,-0.122,1457703
-0.306,-0.012,-0.957,-0.183,1457708
-0.305,-0.013,-0.958,-0.183,1457713
-0.305,-0.013,-0.958,-0.183,1457719
-0.305,-0.013,-0.956,-0.183,1457724
-0.305,-0.013,-0.956,-0.122,1457729
-0.304,-0.012,-0.956,-0.122,1457735
-0.304,-0.012,-0.956,-0.183,1457740
-0.305,-0.013,-0.956,-0.122,1457745
-0.305,-0.012,-0.956,-0.183,1457751
-0.305,-0.012,-0.956,-0.244,1457756
-0.305,-0.012,-0.958,-0.183,1457761
-0.305,-0.012,-0.958,-0.183,1457766
-0.305,-0.015,-0.955,-0.244,1457772
-0.305,-0.015,-0.955,-0.244,1457777
-0.305,-0.013,-0.956,-0.244,1457782
-0.305,-0.013,-0.956,-0.244,1457788
-0.306,-0.012,-0.96,-0.122,1457793
-0.306,-0.012,-0.96,0.0,1457798
-0.304,-0.014,-0.958,-0.122,1457803
-0.304,-0.014,-0.958,-0.183,1457809
-0.305,-0.016,-0.957,-0.244,1457814
-0.305,-0.016,-0.957,-0.183,1457819
-0.304,-0.013,-0.957,-0.122,1457825
-0.305,-0.011,-0.956,-0.183,1457830
-0.305,-0.011,-0.956,-0.183,1457835
-0.305,-0.012,-0.956,-0.122,1457841
-0.305,-0.012,-0.956,-0.183,1457846
-0.307,-0.012,-0.957,-0.183,1457851
-0.307,-0.012,-0.957,-0.183,1457856
-0.306,-0.011,-0.957,-0.122,1457862
-0.306,-0.011,-0.957,-0.122,1457867
-0.306,-0.01,-0.958,-0.122,1457872
-0.306,-0.01,-0.958,-0.183,1457878
-0.305,-0.01,-0.956,-0.183,1457883
-0.305,-0.01,-0.956,-0.183,1457888
-0.305,-0.009,-0.957,-0.183,1457894
-0.305,-0.009,-0.957,-0.244,1457899
-0.307,-0.008,-0.958,-0.244,1457904
-0.306,-0.009,-0.956,-0.183,1457909
-0.306,-0.009,-0.956,-0.122,1457915
-0.306,-0.01,-0.957,-0.183,1457920
-0.306,-0.01,-0.957,-0.305,1457925
-0.306,-0.01,-0.957,-0.305,1457931
-0.306,-0.01,-0.957,-0.183,1457936
-0.306,-0.011,-0.955,-0.244,1457941
-0.306,-0.011,-0.955,-0.244,1457947
-0.305,-0.01,-0.956,-0.183,1457952
-0.305,-0.01,-0.956,-0.244,1457957
-0.304,-0.012,-0.957,-0.183,1457963
-0.304,-0.012,-0.957,-0.183,1457968
-0.306,-0.013,-0.957,-0.183,1457973
-0.305,-0.013,-0.956,-0.183,1457978
-0.305,-0.013,-0.956,-0.366,1457984
-0.305,-0.013,-0.956,-0.122,1457989
-0.305,-0.013,-0.956,-0.244,1457994
-0.305,-0.014,-0.958,-0.366,1458000
-0.305,-0.014,-0.958,-0.183,1458005
-0.304,-0.014,-0.955,-0.183,1458010
-0.304,-0.014,-0.955,-0.183,1458016
-0.304,-0.015,-0.956,-0.122,1458021
-0.304,-0.015,-0.956,-0.183,1458026
-0.304,-0.014,-0.954,-0.305,1458031
-0.304,-0.014,-0.954,-0.183,1458037
-0.302,-0.015,-0.955,-0.183,1458042
-0.302,-0.015,-0.955,-0.183,1458047
-0.303,-0.015,-0.955,-0.427,1458053
-0.303,-0.016,-0.956,-0.244,1458058
-0.303,-0.016,-0.956,-0.122,1458063
-0.303,-0.017,-0.956,-0.244,1458069
-0.303,-0.017,-0.956,-0.244,1458074
-0.304,-0.015,-0.956,-0.244,1458079
-0.304,-0.015,-0.956,-0.122,1458085
-0.304,-0.015,-0.957,-0.122,1458090
-0.304,-0.015,-0.957,-0.244,1458095
-0.304,-0.014,-0.956,-0.122,1458100
-0.304,-0.014,-0.956,-0.122,1458106
-0.306,-0.015,-0.957,-0.122,1458111
-0.306,-0.015,-0.957,-0.183,1458116
-0.305,-0.011,-0.956,-0.183,1458122
-0.305,-0.011,-0.956,-0.061,1458127
-0.304,-0.012,-0.956,-0.183,1458132
-0.303,-0.014,-0.956,-0.061,1458138
-0.303,-0.014,-0.956,-0.183,1458143
-0.303,-0.012,-0.957,-0.122,1458148
-0.303,-0.012,-0.957,-0.122,1458154
-0.306,-0.011,-0.956,-0.244,1458159
-0.306,-0.011,-0.956,-0.183,1458164
-0.306,-0.012,-0.957,-0.183,1458169
-0.306,-0.012,-0.957,-0.244,1458175
-0.306,-0.011,-0.958,-0.305,1458180
-0.306,-0.011,-0.958,-0.244,1458185
-0.305,-0.008,-0.957,-0.183,1458191
-0.305,-0.008,-0.957,-0.183,1458196
-0.305,-0.008,-0.957,-0.183,1458201
-0.306,-0.009,-0.955,-0.122,1458207
-0.306,-0.009,-0.955,-0.305,1458212
-0.306,-0.01,-0.955,-0.244,1458217
-0.306,-0.01,-0.955,-0.061,1458222
-0.305,-0.012,-0.957,-0.122,1458228
-0.305,-0.012,-0.957,-0.244,1458233
-0.304,-0.012,-0.956,-0.244,1458238
-0.304,-0.012,-0.956,-0.183,1458244
-0.307,-0.012,-0.956,-0.183,1458249
-0.307,-0.012,-0.956,-0.366,1458254
-0.305,-0.012,-0.956,-0.366,1458260
-0.305,-0.012,-0.956,-0.183,1458265
-0.305,-0.014,-0.956,-0.244,1458270
-0.305,-0.014,-0.956,-0.427,1458275
-0.303,-0.013,-0.957,-0.244,1458281
-0.306,-0.014,-0.957,-0.244,1458286
-0.306,-0.014,-0.957,-0.183,1458291
-0.305,-0.015,-0.958,-0.244,1458297
-0.305,-0.015,-0.958,-0.305,1458302
-0.306,-0.016,-0.955,-0.244,1458307
-0.306,-0.016,-0.955,-0.122,1458313
-0.304,-0.015,-0.955,-0.122,1458318
-0.304,-0.015,-0.955,-0.183,1458323
-0.304,-0.015,-0.955,-0.122,1458329
-0.304,-0.015,-0.955,-0.305,1458334
-0.304,-0.014,-0.955,-0.244,1458339
-0.304,-0.014,-0.955,-0.183,1458344
-0.304,-0.015,-0.956,-0.244,1458350
-0.304,-0.015,-0.956,-0.122,1458355
-0.304,-0.015,-0.956,-0.244,1458360
-0.304,-0.016,-0.954,-0.061,1458366
-0.304,-0.016,-0.954,-0.183,1458371
-0.304,-0.014,-0.957,-0.183,1458376
-0.304,-0.014,-0.957,-0.183,1458382
-0.308,-0.014,-0.956,-0.244,1458387
-0.308,-0.014,-0.956,-0.183,1458392
-0.306,-0.013,-0.956,-0.183,1458397
-0.306,-0.013,-0.956,-0.122,1458403
-0.305,-0.013,-0.956,-0.122,1458408
-0.305,-0.013,-0.956,-0.244,1458413
-0.304,-0.012,-0.956,-0.183,1458419
-0.304,-0.012,-0.956,-0.183,1458424
-0.305,-0.012,-0.956,-0.183,1458429
-0.305,-0.013,-0.954,-0.061,1458435
-0.305,-0.013,-0.954,-0.061,1458440
-0.306,-0.013,-0.956,0.0,1458445
-0.306,-0.013,-0.956,-0.122,1458450
-0.306,-0.012,-0.958,-0.305,1458456
-0.306,-0.012,-0.958,-0.183,1458461
-0.306,-0.012,-0.957,-0.305,1458466
-0.306,-0.012,-0.957,-0.305,1458472
-0.305,-0.011,-0.957,-0.305,1458477
-0.305,-0.011,-0.957,-0.183,1458482
-0.305,-0.01,-0.959,-0.183,1458488
-0.305,-0.01,-0.959,-0.244,1458493
-0.305,-0.012,-0.957,-0.122,1458498
-0.305,-0.012,-0.957,-0.061,1458503
-0.304,-0.01,-0.957,-0.122,1458509
-0.305,-0.01,-0.956,-0.122,1458514
-0.305,-0.01,-0.956,-0.244,1458519
-0.305,-0.011,-0.956,-0.122,1458525
-0.305,-0.011,-0.956,-0.122,1458530
-0.306,-0.012,-0.957,-0.122,1458535
-0.306,-0.012,-0.957,-0.122,1458541
-0.306,-0.013,-0.956,-0.061,1458546
-0.306,-0.013,-0.956,-0.122,1458551
-0.306,-0.011,-0.957,-0.244,1458556
-0.306,-0.011,-0.957,-0.305,1458562
-0.305,-0.01,-0.956,-0.305,1458567
-0.305,-0.01,-0.956,-0.244,1458572
-0.306,-0.012,-0.956,-0.244,1458578
-0.306,-0.012,-0.956,-0.244,1458583
-0.305,-0.012,-0.956,-0.183,1458588
-0.305,-0.014,-0.956,-0.061,1458594
-0.305,-0.014,-0.956,-0.305,1458599
-0.304,-0.012,-0.955,-0.244,1458604
-0.304,-0.012,-0.955,-0.122,1458609
-0.307,-0.014,-0.955,-0.183,1458615
-0.307,-0.014,-0.955,-0.183,1458620
-0.306,-0.015,-0.957,-0.183,1458625
-0.306,-0.015,-0.957,-0.183,1458631
-0.305,-0.016,-0.957,-0.122,1458636
-0.305,-0.016,-0.957,-0.183,1458641
-0.305,-0.014,-0.956,-0.366,1458647
-0.305,-0.014,-0.956,-0.244,1458652
-0.305,-0.015,-0.956,-0.244,1458657
-0.305,-0.015,-0.956,-0.122,1458663
-0.306,-0.014,-0.955,-0.244,1458668
-0.306,-0.015,-0.955,-0.122,1458673
-0.306,-0.015,-0.955,-0.122,1458678
-0.304,-0.014,-0.956,-0.122,1458684
-0.304,-0.014,-0.956,-0.061,1458689
-0.304,-0.012,-0.956,-0.183,1458694
-0.304,-0.012,-0.956,-0.305,1458700
-0.306,-0.013,-0.957,-0.183,1458705
-0.306,-0.013,-0.957,0.0,1458710
-0.305,-0.015,-0.958,-0.244,1458715
-0.305,-0.015,-0.958,-0.244,1458721
-0.305,-0.013,-0.957,-0.061,1458726
-0.305,-0.013,-0.957,-0.183,1458731
-0.304,-0.012,-0.958,-0.244,1458737
-0.304,-0.012,-0.958,-0.244,1458742
-0.306,-0.013,-0.956,-0.122,1458747
-0.306,-0.011,-0.955,-0.183,1458753
-0.306,-0.011,-0.955,-0.183,1458758
-0.305,-0.012,-0.957,-0.061,1458763
-0.305,-0.012,-0.957,-0.061,1458769
-0.306,-0.011,-0.956,-0.244,1458774
-0.306,-0.011,-0.956,-0.183,1458779
-0.305,-0.011,-0.957,-0.122,1458784
-0.305,-0.011,-0.957,-0.122,1458790
-0.306,-0.011,-0.956,-0.183,1458795
-0.306,-0.011,-0.956,-0.244,1458800
-0.308,-0.008,-0.957,-0.183,1458806
-0.308,-0.008,-0.957,-0.061,1458811
-0.306,-0.009,-0.958,-0.183,1458816
-0.306,-0.009,-0.957,-0.305,1458822
-0.306,-0.009,-0.957,-0.122,1458827
-0.309,-0.011,-0.956,-0.183,1458832
-0.309,-0.011,-0.956,-0.244,1458837
-0.306,-0.01,-0.956,-0.305,1458843
-0.306,-0.01,-0.956,-0.366,1458848
-0.308,-0.01,-0.955,-0.244,1458853
-0.308,-0.01,-0.955,-0.244,1458859
-0.308,-0.01,-0.956,-0.244,1458864
-0.308,-0.01,-0.956,-0.305,1458869
-0.307,-0.012,-0.956,-0.305,1458875
-0.307,-0.012,-0.956,-0.244,1458880
-0.307,-0.015,-0.957,-0.244,1458885
-0.307,-0.015,-0.957,-0.244,1458890
-0.305,-0.013,-0.955,-0.244,1458896
-0.303,-0.014,-0.956,-0.244,1458901
-0.303,-0.014,-0.956,-0.183,1458906
-0.303,-0.015,-0.956,-0.183,1458912
-0.303,-0.015,-0.956,-0.183,1458917
-0.302,-0.015,-0.955,-0.122,1458922
-0.302,-0.015,-0.955,-0.061,1458928
-0.301,-0.015,-0.956,-0.122,1458933
-0.301,-0.015,-0.956,-0.183,1458938
-0.301,-0.014,-0.957,-0.183,1458944
-0.301,-0.014,-0.957,-0.122,1458949
-0.304,-0.014,-0.956,-0.244,1458954
-0.304,-0.014,-0.956,-0.183,1458959
-0.303,-0.015,-0.956,-0.122,1458965
-0.303,-0.015,-0.956,-0.183,1458970
-0.304,-0.013,-0.958,-0.061,1458975
-0.304,-0.013,-0.956,-0.122,1458981
-0.304,-0.013,-0.956,-0.183,1458986
-0.305,-0.015,-0.958,-0.244,1458991
-0.305,-0.015,-0.958,-0.183,1458997
-0.304,-0.013,-0.958,-0.183,1459002
-0.304,-0.013,-0.958,-0.244,1459007
-0.305,-0.013,-0.956,-0.305,1459013
-0.305,-0.013,-0.956,-0.244,1459018
-0.307,-0.012,-0.956,-0.122,1459023
-0.307,-0.012,-0.956,-0.183,1459028
-0.306,-0.012,-0.955,-0.305,1459034
-0.306,-0.012,-0.955,-0.122,1459039
-0.305,-0.011,-0.956,-0.183,1459044
-0.306,-0.013,-0.957,-0.183,1459050
-0.306,-0.013,-0.957,-0.061,1459055
-0.308,-0.01,-0.956,-0.122,1459060
-0.308,-0.01,-0.956,-0.122,1459066
-0.305,-0.014,-0.956,-0.122,1459071
-0.305,-0.014,-0.956,-0.122,1459076
-0.305,-0.013,-0.955,-0.122,1459082
-0.305,-0.013,-0.955,-0.122,1459087
-0.307,-0.014,-0.956,0.0,1459092
-0.307,-0.014,-0.956,-0.122,1459097
-0.305,-0.016,-0.955,-0.061,1459103
-0.305,-0.016,-0.955,-0.061,1459108
-0.305,-0.018,-0.953,-0.305,1459113
-0.305,-0.018,-0.953,-0.244,1459119
-0.307,-0.017,-0.955,-0.122,1459124
-0.305,-0.017,-0.955,-0.183,1459129
-0.305,-0.017,-0.955,-0.183,1459134
-0.306,-0.018,-0.955,-0.122,1459140
-0.306,-0.018,-0.955,-0.061,1459145
-0.308,-0.018,-0.954,-0.122,1459150
-0.308,-0.018,-0.954,-0.183,1459156
-0.308,-0.018,-0.954,-0.122,1459161
-0.308,-0.018,-0.954,-0.122,1459166
-0.306,-0.019,-0.954,-0.183,1459172
-0.306,-0.019,-0.954,-0.244,1459177
-0.307,-0.018,-0.954,-0.122,1459182
-0.307,-0.018,-0.954,-0.183,1459188
-0.308,-0.019,-0.954,-0.122,1459193
-0.308,-0.019,-0.954,-0.122,1459198
-0.306,-0.019,-0.955,-0.183,1459203
-0.306,-0.021,-0.955,-0.122,1459209
-0.306,-0.021,-0.955,-0.061,1459214
-0.305,-0.02,-0.955,0.0,1459219
-0.305,-0.02,-0.955,-0.061,1459225
-0.304,-0.02,-0.953,-0.183,1459230
-0.304,-0.02,-0.953,-0.122,1459235
-0.304,-0.022,-0.953,-0.183,1459240
-0.304,-0.022,-0.953,0.0,1459246
-0.305,-0.02,-0.958,0.0,1459251
-0.305,-0.02,-0.958,-0.061,1459256
-0.306,-0.016,-0.958,-0.183,1459261
-0.306,-0.016,-0.958,-0.122,1459267
-0.304,-0.017,-0.957,-0.122,1459272
-0.304,-0.017,-0.957,0.0,1459277
-0.304,-0.013,-0.957,-0.061,1459283
-0.305,-0.01,-0.959,-0.122,1459288
-0.305,-0.01,-0.959,-0.122,1459293
-0.306,-0.01,-0.958,0.0,1459298
-0.306,-0.01,-0.958,-0.061,1459304
-0.305,-0.01,-0.957,-0.122,1459309
-0.305,-0.01,-0.957,-0.122,1459314
-0.305,-0.007,-0.959,-0.122,1459320
-0.305,-0.007,-0.959,-0.122,1459325
-0.303,-0.006,-0.96,-0.366,1459330
-0.303,-0.006,-0.96,-1.587,1459335
-0.295,0.002,-0.955,-3.723,1459341
-0.295,0.002,-0.955,-5.737,1459346
-0.31,-0.014,-0.963,-3.113,1459351
-0.31,-0.014,-0.963,-0.793,1459357
-0.307,-0.01,-0.963,-0.122,1459362
-0.301,-0.001,-0.961,-0.549,1459367
-0.301,-0.001,-0.961,-0.305,1459372
-0.301,-0.003,-0.96,-0.366,1459378
-0.301,-0.003,-0.96,-0.366,1459383
-0.302,-0.003,-0.961,-0.183,1459388
-0.302,-0.003,-0.961,-0.305,1459394
-0.302,-0.003,-0.963,-0.305,1459399
-0.302,-0.003,-0.963,-0.244,1459404
-0.3,-0.004,-0.961,-0.244,1459410
-0.3,-0.004,-0.961,-0.366,1459415
-0.3,-0.005,-0.959,-0.488,1459420
-0.3,-0.005,-0.959,-0.366,1459425
-0.3,-0.005,-0.957,-0.305,1459431
-0.3,-0.005,-0.957,-0.244,1459436
-0.302,-0.005,-0.959,-0.366,1459441
-0.302,-0.008,-0.957,-0.305,1459447
-0.302,-0.008,-0.957,-0.427,1459452
-0.303,-0.008,-0.957,-0.366,1459457
-0.303,-0.008,-0.957,-0.366,1459463
-0.304,-0.009,-0.958,-0.366,1459468
-0.304,-0.009,-0.958,-0.427,1459473
-0.307,-0.01,-0.957,-0.488,1459478
-0.307,-0.01,-0.957,-0.366,1459484
-0.308,-0.009,-0.956,-0.427,1459489
-0.308,-0.009,-0.956,-0.366,1459494
-0.307,-0.01,-0.955,-0.366,1459500
-0.307,-0.01,-0.955,-0.427,1459505
-0.309,-0.011,-0.955,-0.61,1459510
-0.309,-0.011,-0.955,-0.549,1459516
-0.309,-0.013,-0.955,-0.671,1459521
-0.309,-0.013,-0.952,-0.671,1459526
-0.309,-0.013,-0.952,-0.61,1459532
-0.309,-0.015,-0.954,-0.549,1459537
-0.309,-0.015,-0.954,-0.549,1459542
-0.308,-0.016,-0.955,-0.488,1459547
-0.308,-0.016,-0.955,-0.549,1459553
-0.304,-0.019,-0.946,-0.549,1459558
-0.304,-0.019,-0.946,-0.549,1459563
-0.302,-0.021,-0.951,-0.549,1459569
-0.302,-0.021,-0.951,-0.427,1459574
-0.303,-0.022,-0.96,-0.488,1459579
-0.303,-0.022,-0.96,-0.488,1459585
-0.303,-0.025,-0.955,-0.488,1459590
-0.299,-0.026,-0.952,-0.183,1459595
-0.299,-0.026,-0.952,-0.305,1459600
-0.297,-0.025,-0.956,-0.305,1459606
-0.297,-0.025,-0.956,-0.183,1459611
-0.298,-0.026,-0.956,-0.366,1459616
-0.298,-0.026,-0.956,-0.244,1459622
-0.296,-0.024,-0.955,-0.122,1459627
-0.296,-0.024,-0.955,-0.244,1459632
-0.296,-0.024,-0.956,-0.183,1459638
-0.296,-0.024,-0.956,-0.305,1459643
-0.294,-0.022,-0.957,-0.244,1459648
-0.294,-0.022,-0.957,-0.183,1459654
-0.296,-0.019,-0.959,-0.183,1459659
-0.296,-0.019,-0.959,-0.122,1459664
-0.298,-0.018,-0.959,-0.183,1459670
-0.297,-0.016,-0.958,-0.122,1459675
-0.297,-0.016,-0.958,-0.183,1459680
-0.298,-0.014,-0.958,-0.122,1459685
-0.298,-0.014,-0.958,-0.122,1459691
-0.298,-0.013,-0.959,-0.244,1459696
-0.298,-0.013,-0.959,-0.122,1459701
-0.299,-0.012,-0.959,-0.122,1459707
-0.299,-0.012,-0.959,-0.244,1459712
-0.298,-0.01,-0.957,-0.122,1459717
-0.298,-0.01,-0.957,-0.183,1459723
-0.301,-0.01,-0.958,-0.183,1459728
-0.301,-0.01,-0.958,-0.061,1459733
-0.303,-0.009,-0.961,0.0,1459738
-0.303,-0.009,-0.961,-0.183,1459744
-0.303,-0.008,-0.959,-0.183,1459749
-0.302,-0.007,-0.957,-0.183,1459754
-0.302,-0.007,-0.957,-0.183,1459760
-0.305,-0.005,-0.957,-0.183,1459765
-0.305,-0.005,-0.957,-0.183,1459770
-0.306,-0.007,-0.959,-0.183,1459775
-0.306,-0.007,-0.959,-0.122,1459781
-0.306,-0.007,-0.958,-0.305,1459786
-0.306,-0.007,-0.958,-0.183,1459791
-0.306,-0.008,-0.958,-0.244,1459797
-0.306,-0.008,-0.958,-0.488,1459802
-0.307,-0.009,-0.956,-0.366,1459807
-0.307,-0.009,-0.956,-0.183,1459813
-0.306,-0.011,-0.956,-0.305,1459818
-0.306,-0.011,-0.956,-0.305,1459823
-0.305,-0.009,-0.957,-0.122,1459828
-0.304,-0.013,-0.957,-0.305,1459834
-0.304,-0.013,-0.957,-0.427,1459839
-0.302,-0.015,-0.957,-0.244,1459844
-0.302,-0.015,-0.957,-0.366,1459850
-0.302,-0.015,-0.958,-0.427,1459855
-0.302,-0.015,-0.958,-0.366,1459860
-0.301,-0.017,-0.956,-0.244,1459866
-0.301,-0.017,-0.956,-0.244,1459871
-0.299,-0.017,-0.958,-0.366,1459876
-0.299,-0.017,-0.958,-0.305,1459882
-0.298,-0.017,-0.958,-0.244,1459887
-0.298,-0.017,-0.958,-0.183,1459892
-0.297,-0.017,-0.959,-0.244,1459897
-0.296,-0.016,-0.959,-0.305,1459903
-0.296,-0.016,-0.959,-0.244,1459908
-0.294,-0.016,-0.958,-0.183,1459913
-0.294,-0.016,-0.958,-0.305,1459919
-0.296,-0.019,-0.958,-0.183,1459924
-0.296,-0.019,-0.958,-0.061,1459929
-0.295,-0.017,-0.958,-0.122,1459935
-0.295,-0.017,-0.958,-0.122,1459940
-0.296,-0.016,-0.958,-0.183,1459945
-0.296,-0.016,-0.958,-0.122,1459951
-0.297,-0.015,-0.957,-0.061,1459956
-0.297,-0.015,-0.957,-0.122,1459961
-0.299,-0.014,-0.957,-0.183,1459966
-0.299,-0.014,-0.957,-0.122,1459972
-0.299,-0.012,-0.96,-0.183,1459977
-0.3,-0.009,-0.959,-0.122,1459982
-0.3,-0.009,-0.959,-0.122,1459988
-0.3,-0.01,-0.957,-0.122,1459993
-0.3,-0.01,-0.957,-0.061,1459998
-0.302,-0.009,-0.957,-0.183,1460004
-0.302,-0.009,-0.957,-0.183,1460009
-0.304,-0.008,-0.956,-0.122,1460014
-0.304,-0.008,-0.956,-0.061,1460019
-0.304,-0.008,-0.955,-0.366,1460025
-0.304,-0.008,-0.955,-0.183,1460030
-0.304,-0.01,-0.956,-0.122,1460035
-0.304,-0.01,-0.956,-0.244,1460041
-0.305,-0.01,-0.957,-0.305,1460046
-0.305,-0.01,-0.957,-0.305,1460051
-0.305,-0.01,-0.957,-0.244,1460057
-0.302,-0.011,-0.958,-0.244,1460062
-0.302,-0.011,-0.958,-0.244,1460067
-0.303,-0.011,-0.956,-0.183,1460073
-0.303,-0.011,-0.956,-0.183,1460078
-0.303,-0.013,-0.956,-0.183,1460083
-0.303,-0.013,-0.956,-0.122,1460088
-0.302,-0.016,-0.958,-0.183,1460094
-0.302,-0.016,-0.958,-0.305,1460099
-0.301,-0.014,-0.959,-0.122,1460104
-0.301,-0.014,-0.959,0.0,1460110
-0.301,-0.014,-0.958,-0.183,1460115
-0.301,-0.014,-0.958,-0.122,1460120
-0.302,-0.012,-0.958,-0.061,1460125
-0.302,-0.012,-0.958,-0.061,1460131
-0.304,-0.011,-0.96,-0.122,1460136
-0.301,-0.013,-0.959,-0.183,1460141
-0.301,-0.013,-0.959,-0.122,1460147
-0.3,-0.01,-0.957,-0.244,1460152
-0.3,-0.01,-0.957,-0.305,1460157
-0.3,-0.01,-0.958,-0.122,1460163
-0.3,-0.01,-0.958,-0.122,1460168
-0.303,-0.011,-0.956,-0.061,1460173
-0.303,-0.011,-0.956,-0.305,1460178
-0.304,-0.009,-0.955,-0.427,1460184
-0.304,-0.009,-0.955,-0.244,1460189
-0.303,-0.01,-0.957,-0.305,1460194
-0.303,-0.01,-0.957,-0.366,1460200
-0.302,-0.008,-0.959,-0.305,1460205
-0.302,-0.009,-0.958,-0.305,1460210
-0.302,-0.009,-0.958,-0.183,1460216
-0.302,-0.01,-0.959,-0.183,1460221
-0.302,-0.01,-0.959,-0.183,1460226
-0.302,-0.011,-0.958,-0.244,1460231
-0.302,-0.011,-0.958,-0.244,1460237
-0.303,-0.012,-0.958,-0.305,1460242
-0.303,-0.012,-0.958,-0.061,1460247
-0.304,-0.011,-0.956,-0.122,1460253
-0.304,-0.011,-0.956,-0.183,1460258
-0.302,-0.01,-0.954,-0.183,1460263
-0.302,-0.01,-0.954,-0.244,1460269
-0.301,-0.011,-0.955,-0.244,1460274
-0.301,-0.011,-0.955,-0.244,1460279
-0.302,-0.013,-0.956,-0.366,1460285
-0.303,-0.013,-0.957,-0.183,1460290
-0.303,-0.013,-0.957,-0.122,1460295
-0.304,-0.013,-0.958,-0.122,1460300
-0.304,-0.013,-0.958,-0.183,1460306
-0.303,-0.016,-0.957,-0.061,1460311
-0.303,-0.016,-0.957,-0.244,1460316
-0.302,-0.016,-0.955,-0.366,1460322
-0.302,-0.016,-0.955,-0.183,1460327
-0.303,-0.016,-0.955,-0.244,1460332
-0.303,-0.016,-0.955,-0.305,1460338
-0.303,-0.018,-0.955,-0.305,1460343
-0.303,-0.018,-0.955,-0.244,1460348
-0.302,-0.019,-0.959,-0.366,1460353
-0.302,-0.019,-0.959,-0.366,1460359
-0.304,-0.017,-0.961,-0.183,1460364
-0.302,-0.016,-0.958,-0.305,1460369
-0.302,-0.016,-0.958,-0.183,1460375
-0.302,-0.015,-0.955,-0.244,1460380
-0.302,-0.015,-0.955,-0.244,1460385
-0.301,-0.013,-0.956,-0.244,1460391
-0.301,-0.013,-0.956,-0.122,1460396
-0.302,-0.013,-0.957,-0.122,1460401
-0.302,-0.013,-0.957,-0.061,1460407
-0.302,-0.012,-0.956,-0.061,1460412
-0.302,-0.012,-0.956,-0.183,1460417
-0.301,-0.012,-0.954,-0.122,1460422
-0.301,-0.012,-0.954,-0.122,1460428
-0.302,-0.009,-0.957,-0.061,1460433
-0.302,-0.009,-0.957,-0.061,1460438
-0.302,-0.01,-0.959,-0.122,1460444
-0.303,-0.008,-0.96,-0.183,1460449
-0.303,-0.008,-0.96,-0.183,1460454
-0.301,-0.009,-0.959,-0.244,1460459
-0.301,-0.009,-0.959,-0.366,1460465
-0.3,-0.011,-0.958,-0.244,1460470
-0.3,-0.011,-0.958,-0.366,1460475
-0.3,-0.011,-0.958,-0.244,1460481
-0.3,-0.011,-0.958,-0.305,1460486
-0.301,-0.012,-0.959,-0.366,1460491
-0.301,-0.012,-0.959,-0.305,1460497
-0.299,-0.011,-0.959,-0.244,1460502
-0.299,-0.011,-0.959,-0.183,1460507
-0.3,-0.01,-0.96,-0.183,1460513
-0.301,-0.009,-0.962,-0.061,1460518
-0.301,-0.009,-0.962,-0.183,1460523
-0.3,-0.009,-0.958,-0.183,1460528
-0.3,-0.009,-0.958,-0.122,1460534
-0.301,-0.007,-0.958,-0.061,1460539
-0.301,-0.007,-0.958,-0.244,1460544
-0.302,-0.008,-0.959,-0.366,1460550
-0.302,-0.008,-0.959,-0.244,1460555
-0.304,-0.01,-0.958,-0.244,1460560
-0.304,-0.01,-0.958,-0.244,1460565
-0.305,-0.011,-0.957,-0.183,1460571
-0.305,-0.011,-0.957,-0.244,1460576
-0.304,-0.013,-0.955,-0.244,1460581
-0.304,-0.013,-0.955,-0.366,1460587
-0.303,-0.011,-0.956,-0.366,1460592
-0.303,-0.012,-0.958,-0.244,1460597
-0.303,-0.012,-0.958,-0.244,1460603
-0.302,-0.014,-0.958,-0.244,1460608
-0.302,-0.014,-0.958,-0.244,1460613
-0.302,-0.017,-0.957,-0.244,1460619
-0.302,-0.017,-0.957,-0.305,1460624
-0.302,-0.016,-0.956,-0.305,1460629
-0.302,-0.016,-0.956,-0.244,1460634
-0.3,-0.016,-0.957,-0.183,1460640
-0.3,-0.016,-0.957,-0.183,1460645
-0.301,-0.015,-0.957,-0.183,1460650
-0.301,-0.015,-0.957,-0.244,1460656
-0.301,-0.016,-0.957,-0.183,1460661
-0.301,-0.016,-0.957,-0.183,1460666
-0.302,-0.016,-0.957,-0.183,1460672
-0.301,-0.013,-0.956,-0.122,1460677
-0.301,-0.013,-0.956,-0.183,1460682
-0.3,-0.016,-0.957,-0.366,1460687
-0.3,-0.016,-0.957,-0.122,1460693
-0.3,-0.017,-0.957,-0.061,1460698
-0.3,-0.017,-0.957,-0.122,1460703
-0.299,-0.016,-0.956,-0.183,1460709
-0.299,-0.016,-0.956,-0.122,1460714
-0.3,-0.017,-0.957,-0.183,1460719
-0.3,-0.017,-0.957,-0.122,1460725
-0.299,-0.016,-0.956,-0.122,1460730
-0.299,-0.016,-0.956,-0.244,1460735
-0.299,-0.016,-0.958,-0.122,1460741
-0.299,-0.015,-0.96,-0.183,1460746
-0.299,-0.015,-0.96,-0.244,1460751
-0.299,-0.014,-0.959,-0.305,1460757
-0.299,-0.014,-0.959,-0.305,1460762
-0.3,-0.013,-0.96,-0.122,1460767
-0.3,-0.013,-0.96,-0.122,1460772
-0.302,-0.012,-0.959,-0.183,1460778
-0.302,-0.012,-0.959,-0.122,1460783
-0.302,-0.009,-0.959,0.0,1460788
-0.302,-0.009,-0.959,0.0,1460793
-0.301,-0.009,-0.957,-0.061,1460799
-0.301,-0.009,-0.957,-0.061,1460804
-0.303,-0.01,-0.956,0.0,1460809
-0.303,-0.01,-0.956,0.0,1460814
-0.305,-0.009,-0.958,-0.305,1460820
-0.305,-0.009,-0.958,-0.305,1460825
-0.305,-0.008,-0.958,-0.122,1460830
-0.306,-0.009,-0.958,-0.122,1460836
-0.306,-0.009,-0.958,-0.183,1460841
-0.307,-0.008,-0.957,0.0,1460846
-0.307,-0.008,-0.957,-0.244,1460851
-0.306,-0.008,-0.956,-0.305,1460857
-0.306,-0.008,-0.956,-0.366,1460862
-0.304,-0.01,-0.956,-0.183,1460867
-0.304,-0.01,-0.956,-0.244,1460873
-0.303,-0.01,-0.959,-0.244,1460878
-0.303,-0.01,-0.959,-0.366,1460883
-0.302,-0.011,-0.959,-0.244,1460888
-0.302,-0.011,-0.959,-0.244,1460894
-0.3,-0.01,-0.958,-0.244,1460899
-0.3,-0.01,-0.958,-0.305,1460904
-0.3,-0.01,-0.957,-0.244,1460910
-0.299,-0.01,-0.959,-0.244,1460915
-0.299,-0.01,-0.959,-0.183,1460920
-0.298,-0.011,-0.96,-0.183,1460926
-0.298,-0.011,-0.96,-0.244,1460931
-0.298,-0.012,-0.959,-0.244,1460936
-0.298,-0.012,-0.959,-0.244,1460941
-0.297,-0.013,-0.958,-0.122,1460947
-0.297,-0.013,-0.958,-0.183,1460952
-0.297,-0.014,-0.961,-0.366,1460957
-0.297,-0.014,-0.961,-0.366,1460963
-0.296,-0.014,-0.959,-0.183,1460968
-0.296,-0.014,-0.959,-0.244,1460973
-0.296,-0.014,-0.958,-0.244,1460979
-0.298,-0.015,-0.958,-0.305,1460984
-0.298,-0.015,-0.958,-0.305,1460989
-0.3,-0.014,-0.957,-0.122,1460995
-0.3,-0.014,-0.957,-0.122,1461000
-0.297,-0.015,-0.954,-0.305,1461005
-0.297,-0.015,-0.954,-0.183,1461010
-0.299,-0.019,-0.951,-0.122,1461016
-0.299,-0.019,-0.951,-0.305,1461021
-0.303,-0.017,-0.959,-0.305,1461026
-0.303,-0.017,-0.959,-0.305,1461032
-0.303,-0.016,-0.959,-0.244,1461037
-0.303,-0.016,-0.959,-0.366,1461042
-0.304,-0.015,-0.957,-0.427,1461048
-0.304,-0.015,-0.957,-0.244,1461053
-0.304,-0.015,-0.957,-0.305,1461058
-0.304,-0.017,-0.958,-0.183,1461064
-0.304,-0.017,-0.958,-0.244,1461069
-0.306,-0.018,-0.963,-0.305,1461074
-0.306,-0.018,-0.963,-0.305,1461079
-0.304,-0.017,-0.956,-0.244,1461085
-0.304,-0.017,-0.956,-0.244,1461090
-0.304,-0.016,-0.95,-0.122,1461095
-0.304,-0.016,-0.95,-0.183,1461101
-0.303,-0.016,-0.951,-0.183,1461106
-0.303,-0.016,-0.951,-0.122,1461111
-0.306,-0.014,-0.956,-0.122,1461117
-0.306,-0.014,-0.956,-0.061,1461122
-0.307,-0.014,-0.959,-0.061,1461127
-0.307,-0.014,-0.959,-0.122,1461132
-0.306,-0.014,-0.955,-0.122,1461138
-0.303,-0.012,-0.953,-0.122,1461143
-0.303,-0.012,-0.953,-0.183,1461148
-0.303,-0.008,-0.953,-0.122,1461154
-0.303,-0.008,-0.953,0.0,1461159
-0.302,-0.005,-0.955,-0.122,1461164
-0.302,-0.005,-0.955,-0.183,1461169
-0.302,-0.009,-0.96,-0.183,1461175
-0.302,-0.009,-0.96,-0.244,1461180
-0.301,-0.008,-0.962,-0.122,1461185
-0.301,-0.008,-0.962,-0.244,1461191
-0.299,-0.007,-0.96,-0.183,1461196
-0.299,-0.007,-0.96,-0.122,1461201
-0.295,-0.007,-0.96,-0.061,1461207
-0.295,-0.007,-0.96,-0.244,1461212
-0.296,-0.008,-0.959,-0.183,1461217
-0.294,-0.009,-0.963,-0.305,1461222
-0.294,-0.009,-0.963,-0.061,1461228
-0.295,-0.009,-0.963,-0.183,1461233
-0.295,-0.009,-0.963,-0.427,1461238
-0.294,-0.008,-0.962,-0.244,1461244
-0.294,-0.008,-0.962,0.0,1461249
-0.295,-0.007,-0.961,-0.183,1461254
-0.295,-0.007,-0.961,-0.305,1461260
-0.298,-0.006,-0.963,-0.183,1461265
-0.298,-0.006,-0.963,-0.244,1461270
-0.299,-0.005,-0.964,-0.244,1461275
-0.299,-0.005,-0.964,-0.305,1461281
-0.3,-0.004,-0.961,-0.244,1461286
-0.3,-0.004,-0.961,-0.366,1461291
-0.303,-0.003,-0.958,-0.244,1461297
-0.304,-0.004,-0.958,-0.305,1461302
-0.304,-0.004,-0.958,-0.244,1461307
-0.304,-0.005,-0.958,-0.183,1461313
-0.304,-0.005,-0.958,-0.366,1461318
-0.305,-0.006,-0.959,-0.427,1461323
-0.305,-0.006,-0.959,-0.305,1461328
-0.305,-0.006,-0.958,-0.305,1461334
-0.305,-0.006,-0.958,-0.366,1461339
-0.307,-0.007,-0.955,-0.427,1461344
-0.307,-0.007,-0.955,-0.366,1461350
-0.306,-0.008,-0.956,-0.427,1461355
-0.306,-0.008,-0.956,-0.366,1461360
-0.307,-0.01,-0.955,-0.244,1461365
-0.306,-0.011,-0.955,-0.244,1461371
-0.306,-0.011,-0.955,-0.305,1461376
-0.306,-0.012,-0.957,-0.305,1461381
-0.306,-0.012,-0.957,-0.305,1461387
-0.305,-0.015,-0.958,-0.366,1461392
-0.305,-0.015,-0.958,-0.305,1461397
-0.304,-0.014,-0.956,-0.366,1461403
-0.304,-0.014,-0.956,-0.427,1461408
-0.302,-0.018,-0.954,-0.366,1461413
-0.302,-0.018,-0.954,-0.305,1461419
-0.301,-0.019,-0.954,-0.488,1461424
-0.301,-0.019,-0.954,-0.488,1461429
-0.301,-0.02,-0.956,-0.244,1461434
-0.301,-0.02,-0.956,-0.305,1461440
-0.298,-0.024,-0.958,-0.488,1461445
-0.299,-0.024,-0.958,-0.305,1461450
-0.299,-0.024,-0.958,-0.366,1461456
-0.297,-0.027,-0.957,-0.305,1461461
-0.297,-0.027,-0.957,-0.305,1461466
-0.297,-0.027,-0.957,-0.305,1461472
-0.297,-0.027,-0.957,-0.244,1461477
-0.296,-0.03,-0.955,-0.122,1461482
-0.296,-0.03,-0.955,-0.061,1461488
-0.297,-0.03,-0.953,-0.183,1461493
-0.297,-0.03,-0.953,-0.061,1461498
-0.299,-0.029,-0.954,0.0,1461503
-0.299,-0.029,-0.954,-0.183,1461509
-0.301,-0.028,-0.953,-0.122,1461514
-0.301,-0.028,-0.953,-0.183,1461519
-0.301,-0.025,-0.954,0.061,1461525
-0.302,-0.023,-0.954,-0.061,1461530
-0.302,-0.023,-0.954,-0.183,1461535
-0.304,-0.021,-0.955,-0.122,1461540
-0.304,-0.021,-0.955,0.0,1461546
-0.305,-0.019,-0.954,0.0,1461551
-0.305,-0.019,-0.954,-0.183,1461556
-0.304,-0.016,-0.954,0.061,1461561
-0.304,-0.016,-0.954,0.061,1461567
-0.303,-0.013,-0.955,-0.061,1461572
-0.303,-0.013,-0.955,-0.061,1461577
-0.303,-0.012,-0.955,0.061,1461582
-0.303,-0.012,-0.955,0.061,1461588
-0.304,-0.009,-0.959,0.0,1461593
-0.304,-0.009,-0.959,0.061,1461598
-0.303,-0.008,-0.959,0.0,1461603
-0.303,-0.008,-0.959,0.122,1461609
-0.302,-0.005,-0.958,0.122,1461614
-0.303,-0.001,-0.959,0.0,1461619
-0.303,-0.001,-0.959,0.061,1461624
-0.303,-0.001,-0.96,0.0,1461629
-0.303,-0.001,-0.96,-0.061,1461635
-0.304,0.002,-0.959,0.0,1461640
-0.304,0.002,-0.959,0.0,1461645
-0.303,0.004,-0.961,0.0,1461650
-0.303,0.004,-0.961,-0.061,1461655
-0.302,0.005,-0.96,-0.183,1461661
-0.302,0.005,-0.96,-0.183,1461666
-0.302,0.005,-0.963,-0.122,1461671
-0.302,0.005,-0.963,-0.305,1461676
-0.302,0.005,-0.963,-0.183,1461682
-0.302,0.005,-0.963,-0.244,1461687
-0.3,0.004,-0.961,-0.244,1461692
-0.3,0.004,-0.961,-0.366,1461697
-0.301,0.001,-0.963,-0.305,1461703
-0.301,0.001,-0.963,-0.427,1461708
-0.301,-0.002,-0.962,-0.488,1461713
-0.299,-0.004,-0.962,-0.305,1461718
-0.299,-0.004,-0.962,-0.549,1461724
-0.299,-0.007,-0.961,-0.549,1461729
-0.299,-0.007,-0.961,-0.366,1461734
-0.301,-0.01,-0.959,-0.305,1461740
-0.301,-0.01,-0.959,-0.244,1461745
-0.3,-0.012,-0.957,-0.305,1461750
-0.3,-0.012,-0.957,-0.427,1461756
-0.302,-0.015,-0.958,-0.427,1461761
-0.302,-0.015,-0.958,-0.488,1461766
-0.302,-0.019,-0.956,-0.488,1461771
-0.302,-0.019,-0.956,-0.427,1461777
-0.301,-0.021,-0.953,-0.427,1461782
-0.302,-0.023,-0.953,-0.305,1461787
-0.302,-0.023,-0.953,-0.305,1461793
-0.304,-0.026,-0.952,-0.244,1461798
-0.304,-0.026,-0.952,-0.305,1461803
-0.304,-0.026,-0.955,-0.427,1461809
-0.304,-0.026,-0.955,-0.427,1461814
-0.303,-0.026,-0.952,-0.366,1461819
-0.303,-0.026,-0.952,-0.366,1461825
-0.302,-0.026,-0.953,-0.366,1461830
-0.302,-0.026,-0.953,-0.183,1461835
-0.302,-0.027,-0.953,-0.061,1461840
-0.302,-0.027,-0.953,-0.244,1461846
-0.303,-0.027,-0.954,-0.122,1461851
-0.303,-0.027,-0.954,0.061,1461856
-0.301,-0.027,-0.952,-0.183,1461862
-0.3,-0.025,-0.956,-0.061,1461867
-0.3,-0.025,-0.956,0.0,1461872
-0.301,-0.022,-0.955,0.0,1461877
-0.301,-0.022,-0.955,0.0,1461883
-0.3,-0.019,-0.957,0.061,1461888
-0.3,-0.019,-0.957,-0.061,1461893
-0.3,-0.016,-0.957,-0.061,1461898
-0.3,-0.016,-0.957,0.061,1461904
-0.301,-0.015,-0.959,-0.061,1461909
-0.301,-0.015,-0.959,0.0,1461914
-0.301,-0.009,-0.958,0.0,1461919
-0.301,-0.009,-0.958,-0.183,1461925
-0.3,-0.006,-0.958,-0.122,1461930
-0.3,-0.006,-0.958,-0.061,1461935
-0.301,-0.004,-0.959,-0.183,1461941
-0.301,-0.004,-0.959,-0.244,1461946
-0.302,-0.004,-0.961,-0.061,1461951
-0.3,-0.001,-0.961,-0.061,1461956
-0.3,-0.001,-0.961,-0.183,1461962
-0.301,-0.001,-0.962,-0.244,1461967
-0.301,-0.001,-0.962,-0.061,1461972
-0.302,-0.001,-0.961,0.0,1461978
-0.302,-0.001,-0.961,-0.183,1461983
-0.301,0.0,-0.96,-0.061,1461988
-0.301,0.0,-0.96,-0.244,1461993
-0.303,-0.001,-0.96,-0.488,1461998
-0.303,-0.001,-0.96,-0.305,1462004
-0.303,-0.002,-0.961,-0.427,1462009
-0.303,-0.002,-0.961,-0.366,1462014
-0.304,-0.002,-0.96,-0.427,1462020
-0.304,-0.002,-0.96,-0.488,1462025
-0.304,-0.003,-0.958,-0.366,1462030
-0.305,-0.004,-0.959,-0.305,1462036
-0.305,-0.004,-0.959,-0.305,1462041
-0.304,-0.006,-0.958,-0.305,1462046
-0.304,-0.006,-0.958,-0.427,1462051
-0.303,-0.01,-0.958,-0.366,1462057
-0.303,-0.01,-0.958,-0.366,1462062
-0.304,-0.013,-0.958,-0.366,1462067
-0.304,-0.013,-0.958,-0.427,1462073
-0.305,-0.015,-0.957,-0.366,1462078
-0.305,-0.015,-0.957,-0.305,1462083
-0.302,-0.017,-0.956,-0.366,1462089
-0.302,-0.017,-0.956,-0.427,1462094
-0.302,-0.019,-0.956,-0.488,1462099
-0.302,-0.019,-0.956,-0.427,1462104
-0.301,-0.02,-0.955,-0.427,1462110
-0.302,-0.022,-0.955,-0.305,1462115
-0.302,-0.022,-0.955,-0.244,1462120
-0.302,-0.023,-0.956,-0.305,1462126
-0.302,-0.023,-0.956,-0.183,1462131
-0.302,-0.024,-0.956,-0.305,1462136
-0.302,-0.024,-0.956,-0.488,1462142
-0.302,-0.023,-0.955,-0.244,1462147
-0.302,-0.023,-0.955,-0.244,1462152
-0.3,-0.022,-0.954,-0.366,1462158
-0.3,-0.022,-0.954,-0.183,1462163
-0.302,-0.025,-0.953,-0.183,1462168
-0.302,-0.025,-0.953,-0.244,1462173
-0.302,-0.024,-0.955,-0.305,1462179
-0.302,-0.024,-0.955,-0.122,1462184
-0.3,-0.024,-0.956,-0.244,1462189
-0.302,-0.024,-0.956,-0.244,1462195
-0.302,-0.024,-0.956,-0.183,1462200
-0.3,-0.022,-0.955,-0.122,1462205
-0.3,-0.022,-0.955,-0.122,1462211
-0.3,-0.02,-0.958,-0.244,1462216
-0.3,-0.02,-0.958,-0.183,1462221
-0.302,-0.017,-0.958,-0.183,1462226
-0.302,-0.017,-0.958,-0.183,1462232
-0.301,-0.015,-0.958,-0.061,1462237
-0.301,-0.015,-0.958,-0.061,1462242
-0.301,-0.013,-0.957,-0.122,1462248
-0.301,-0.013,-0.957,-0.061,1462253
-0.302,-0.01,-0.958,-0.122,1462258
-0.302,-0.01,-0.959,-0.183,1462264
-0.302,-0.01,-0.959,-0.061,1462269
-0.303,-0.006,-0.959,-0.061,1462274
-0.303,-0.006,-0.959,-0.122,1462280
-0.302,-0.004,-0.957,-0.183,1462285
-0.302,-0.004,-0.957,-0.244,1462290
-0.302,-0.004,-0.959,-0.061,1462295
-0.302,-0.004,-0.959,-0.122,1462301
-0.303,-0.003,-0.958,-0.122,1462306
-0.303,-0.003,-0.958,-0.122,1462311
-0.304,-0.003,-0.958,-0.244,1462317
-0.304,-0.003,-0.958,-0.244,1462322
-0.302,-0.004,-0.96,-0.305,1462327
-0.302,-0.004,-0.96,-0.244,1462333
-0.301,-0.007,-0.958,-0.183,1462338
-0.303,-0.006,-0.96,-0.366,1462343
-0.303,-0.006,-0.96,-0.366,1462348
-0.302,-0.006,-0.961,-0.366,1462354
-0.302,-0.006,-0.961,-0.305,1462359
-0.302,-0.009,-0.958,-0.366,1462364
-0.302,-0.009,-0.958,-0.366,1462370
-0.302,-0.01,-0.96,-0.305,1462375
-0.302,-0.01,-0.96,-0.366,1462380
-0.3,-0.011,-0.96,-0.305,1462386
-0.3,-0.011,-0.96,-0.427,1462391
-0.3,-0.012,-0.958,-0.305,1462396
-0.3,-0.012,-0.958,-0.244,1462401
-0.3,-0.014,-0.957,-0.488,1462407
-0.3,-0.014,-0.957,-0.366,1462412
-0.301,-0.016,-0.959,-0.366,1462417
-0.299,-0.016,-0.957,-0.549,1462423
-0.299,-0.016,-0.957,-0.366,1462428
-0.3,-0.018,-0.956,-0.305,1462433
-0.3,-0.018,-0.956,-0.305,1462439
-0.301,-0.018,-0.956,-0.305,1462444
-0.301,-0.018,-0.956,-0.244,1462449
-0.301,-0.021,-0.954,-0.305,1462454
-0.301,-0.021,-0.954,-0.305,1462460
-0.3,-0.022,-0.956,-0.183,1462465
-0.3,-0.022,-0.956,-0.305,1462470
-0.302,-0.023,-0.956,-0.244,1462476
-0.302,-0.023,-0.956,-0.183,1462481
-0.301,-0.023,-0.955,-0.183,1462486
-0.301,-0.023,-0.955,-0.122,1462492
-0.3,-0.023,-0.954,-0.183,1462497
-0.3,-0.023,-0.955,0.0,1462502
-0.3,-0.023,-0.955,-0.183,1462507
-0.301,-0.022,-0.955,-0.122,1462513
-0.301,-0.022,-0.955,-0.183,1462518
-0.302,-0.022,-0.954,-0.244,1462523
-0.302,-0.022,-0.954,-0.061,1462529
-0.302,-0.02,-0.957,-0.183,1462534
-0.302,-0.02,-0.957,-0.061,1462539
-0.303,-0.018,-0.958,0.0,1462544
-0.303,-0.018,-0.958,-0.122,1462550
-0.302,-0.017,-0.957,-0.305,1462555
-0.302,-0.017,-0.957,0.0,1462560
-0.301,-0.015,-0.957,0.0,1462565
-0.301,-0.015,-0.957,-0.183,1462571
-0.3,-0.013,-0.956,-0.122,1462576
-0.299,-0.012,-0.955,-0.122,1462581
-0.299,-0.012,-0.955,-0.061,1462587
-0.298,-0.013,-0.954,-0.122,1462592
-0.298,-0.013,-0.954,-0.061,1462597
-0.299,-0.014,-0.963,-0.122,1462603
-0.299,-0.014,-0.963,-0.122,1462608
-0.302,-0.012,-0.966,-0.122,1462613
-0.302,-0.012,-0.966,-0.122,1462618
-0.301,-0.011,-0.961,-0.061,1462624
-0.301,-0.011,-0.961,-0.122,1462629
-0.301,-0.009,-0.961,-0.061,1462634
-0.301,-0.009,-0.961,-0.061,1462640
-0.302,-0.006,-0.961,-0.061,1462645
-0.302,-0.006,-0.961,-0.183,1462650
-0.304,-0.003,-0.957,-0.122,1462656
-0.305,-0.002,-0.953,-0.122,1462661
-0.305,-0.002,-0.953,-0.244,1462666
-0.309,-0.0,-0.958,-0.244,1462671
-0.309,-0.0,-0.958,-0.061,1462677
-0.31,-0.001,-0.96,-0.244,1462682
-0.31,-0.001,-0.96,-0.366,1462687
-0.308,-0.003,-0.955,-0.305,1462693
-0.308,-0.003,-0.955,-0.427,1462698
-0.306,-0.005,-0.954,-0.305,1462703
-0.306,-0.005,-0.954,-0.427,1462709
-0.304,-0.006,-0.957,-0.305,1462714
-0.304,-0.006,-0.957,-0.366,1462719
-0.302,-0.009,-0.962,-0.244,1462724
-0.299,-0.011,-0.959,-0.305,1462730
-0.299,-0.011,-0.959,-0.366,1462735
-0.299,-0.014,-0.956,-0.305,1462740
-0.299,-0.014,-0.956,-0.244,1462746
-0.3,-0.015,-0.957,-0.183,1462751
-0.3,-0.015,-0.957,-0.305,1462756
-0.301,-0.016,-0.96,-0.305,1462762
-0.301,-0.016,-0.96,-0.244,1462767
-0.298,-0.016,-0.959,-0.244,1462772
-0.298,-0.016,-0.959,-0.366,1462777
-0.298,-0.018,-0.956,-0.305,1462783
-0.298,-0.018,-0.956,-0.305,1462788
-0.297,-0.019,-0.957,-0.305,1462793
-0.297,-0.019,-0.957,-0.366,1462799
-0.299,-0.02,-0.957,-0.244,1462804
-0.3,-0.023,-0.956,-0.244,1462809
-0.3,-0.023,-0.956,-0.305,1462815
-0.298,-0.023,-0.955,-0.305,1462820
-0.298,-0.023,-0.955,-0.183,1462825
-0.298,-0.022,-0.958,-0.305,1462831
-0.298,-0.022,-0.958,-0.244,1462836
-0.298,-0.023,-0.959,-0.305,1462841
-0.298,-0.023,-0.959,-0.183,1462846
-0.296,-0.022,-0.955,-0.183,1462852
-0.296,-0.022,-0.955,-0.183,1462857
-0.297,-0.021,-0.955,-0.061,1462862
-0.297,-0.021,-0.955,0.0,1462868
-0.299,-0.02,-0.957,-0.183,1462873
-0.299,-0.02,-0.957,-0.183,1462878
-0.298,-0.017,-0.956,-0.122,1462884
-0.301,-0.017,-0.956,0.061,1462889
-0.301,-0.017,-0.956,0.0,1462894
-0.3,-0.015,-0.957,-0.183,1462899
-0.3,-0.015,-0.957,-0.183,1462905
-0.303,-0.012,-0.956,-0.061,1462910
-0.303,-0.012,-0.956,-0.122,1462915
-0.303,-0.011,-0.958,-0.061,1462920
-0.303,-0.011,-0.958,-0.183,1462926
-0.305,-0.01,-0.957,0.061,1462931
-0.305,-0.01,-0.957,-0.122,1462936
-0.305,-0.009,-0.955,-0.061,1462942
-0.305,-0.009,-0.955,-0.183,1462947
-0.304,-0.009,-0.957,-0.122,1462952
-0.304,-0.009,-0.957,-0.061,1462958
-0.304,-0.009,-0.958,0.0,1462963
-0.305,-0.01,-0.956,-0.244,1462968
-0.305,-0.01,-0.956,-0.122,1462973
-0.303,-0.009,-0.958,-0.183,1462979
-0.303,-0.009,-0.958,-0.305,1462984
-0.304,-0.01,-0.959,-0.061,1462989
-0.304,-0.01,-0.959,-0.061,1462995
