Acc_X,Acc_Y,Acc_Z,Rot_Z,Millis
-0.298,-0.008,-0.958,-0.061,53740
-0.298,-0.008,-0.958,-0.061,53744
-0.298,-0.008,-0.958,-0.183,53748
-0.3,-0.007,-0.958,-0.244,53752
-0.3,-0.007,-0.958,-0.183,53756
-0.298,-0.008,-0.958,-0.244,53760
-0.298,-0.008,-0.958,-0.244,53764
-0.298,-0.008,-0.958,-0.183,53768
-0.298,-0.008,-0.959,-0.183,53772
-0.298,-0.008,-0.959,-0.244,53776
-0.299,-0.008,-0.958,-0.122,53780
-0.299,-0.008,-0.958,-0.183,53784
-0.299,-0.008,-0.958,-0.183,53788
-0.299,-0.008,-0.959,-0.244,53792
-0.299,-0.008,-0.959,-0.122,53796
-0.299,-0.007,-0.957,-0.305,53800
-0.299,-0.007,-0.957,-0.366,53804
-0.299,-0.007,-0.957,-0.366,53808
-0.297,-0.007,-0.959,-0.061,53812
-0.297,-0.007,-0.959,-0.183,53816
-0.297,-0.008,-0.958,-0.305,53820
-0.297,-0.008,-0.958,-0.122,53824
-0.297,-0.008,-0.958,-0.122,53828
-0.298,-0.008,-0.958,0.0,53832
-0.298,-0.008,-0.958,-0.183,53836
-0.297,-0.009,-0.957,-0.183,53840
-0.297,-0.009,-0.957,-0.183,53844
-0.298,-0.007,-0.958,-0.122,53848
-0.298,-0.007,-0.958,-0.122,53852
-0.298,-0.007,-0.958,-0.183,53856
-0.298,-0.009,-0.958,0.0,53860
-0.298,-0.009,-0.958,-0.122,53864
-0.297,-0.01,-0.958,-0.183,53868
-0.297,-0.01,-0.958,-0.183,53872
-0.297,-0.01,-0.958,-0.244,53876
-0.298,-0.006,-0.959,-0.183,53880
-0.298,-0.006,-0.959,-0.122,53884
-0.299,-0.008,-0.958,-0.305,53888
-0.299,-0.008,-0.958,-0.305,53892
-0.299,-0.008,-0.958,-0.244,53897
-0.299,-0.008,-0.958,-0.244,53901
-0.299,-0.008,-0.958,-0.183,53905
-0.299,-0.007,-0.959,-0.122,53909
-0.299,-0.007,-0.959,-0.122,53913
-0.299,-0.007,-0.959,0.0,53917
-0.298,-0.008,-0.958,-0.061,53921
-0.298,-0.008,-0.958,-0.122,53925
-0.299,-0.008,-0.956,-0.183,53929
-0.299,-0.008,-0.956,-0.183,53933
-0.299,-0.008,-0.956,-0.183,53937
-0.3,-0.006,-0.959,-0.183,53941
-0.3,-0.006,-0.959,-0.061,53945
-0.298,-0.006,-0.958,-0.183,53949
-0.298,-0.006,-0.958,-0.244,53953
-0.298,-0.006,-0.958,-0.244,53957
-0.298,-0.007,-0.958,-0.183,53961
-0.298,-0.007,-0.958,-0.183,53965
-0.298,-0.007,-0.959,-0.244,53969
-0.298,-0.007,-0.959,-0.366,53973
-0.298,-0.007,-0.959,-0.366,53977
-0.299,-0.005,-0.959,-0.244,53981
-0.299,-0.005,-0.959,-0.122,53985
-0.299,-0.006,-0.96,-0.122,53989
-0.299,-0.006,-0.96,-0.122,53993
-0.297,-0.005,-0.959,-0.122,53997
-0.297,-0.005,-0.959,-0.122,54001
-0.297,-0.005,-0.959,-0.183,54005
-0.3,-0.005,-0.957,-0.244,54009
-0.3,-0.005,-0.957,-0.061,54013
-0.299,-0.006,-0.961,-0.061,54017
-0.299,-0.006,-0.961,-0.061,54021
-0.299,-0.006,-0.961,-0.244,54025
-0.298,-0.005,-0.958,-0.244,54029
-0.298,-0.005,-0.958,-0.061,54033
-0.299,-0.005,-0.957,-0.122,54037
-0.299,-0.005,-0.957,-0.122,54041
-0.299,-0.005,-0.957,-0.244,54045
-0.299,-0.006,-0.96,-0.122,54049
-0.299,-0.006,-0.96,-0.183,54053
-0.298,-0.006,-0.959,-0.122,54057
-0.298,-0.006,-0.959,-0.183,54061
-0.298,-0.006,-0.959,-0.183,54065
-0.299,-0.006,-0.959,-0.183,54070
-0.299,-0.006,-0.959,-0.244,54074
-0.3,-0.006,-0.959,-0.366,54078
-0.3,-0.006,-0.959,-0.244,54082
-0.3,-0.006,-0.959,-0.244,54086
-0.297,-0.006,-0.958,-0.427,54090
-0.297,-0.006,-0.958,-0.366,54094
-0.298,-0.005,-0.958,-0.244,54098
-0.298,-0.005,-0.958,-0.366,54102
-0.298,-0.005,-0.958,-0.366,54106
-0.298,-0.006,-0.958,-0.183,54110
-0.298,-0.006,-0.958,-0.244,54114
-0.298,-0.008,-0.956,-0.366,54118
-0.298,-0.008,-0.956,-0.183,54122
-0.3,-0.008,-0.957,-0.305,54126
-0.3,-0.008,-0.957,-0.305,54130
-0.3,-0.008,-0.957,-0.305,54134
-0.3,-0.009,-0.958,-0.305,54138
-0.3,-0.009,-0.958,-0.244,54142
-0.3,-0.009,-0.958,-0.244,54146
-0.3,-0.009,-0.958,-0.244,54150
-0.3,-0.009,-0.958,-0.366,54154
-0.301,-0.01,-0.961,-0.244,54158
-0.301,-0.01,-0.961,-0.122,54162
-0.3,-0.011,-0.959,-0.244,54166
-0.3,-0.011,-0.959,-0.244,54170
-0.3,-0.011,-0.959,-0.305,54174
-0.301,-0.01,-0.954,-0.183,54178
-0.301,-0.01,-0.954,-0.122,54182
-0.299,-0.01,-0.956,-0.244,54186
-0.299,-0.01,-0.956,-0.244,54190
-0.299,-0.01,-0.956,-0.366,54194
-0.297,-0.008,-0.959,-0.244,54198
-0.297,-0.008,-0.959,-0.183,54202
-0.299,-0.01,-0.954,-0.183,54206
-0.299,-0.01,-0.954,-0.244,54210
-0.299,-0.01,-0.954,-0.244,54214
-0.299,-0.01,-0.954,-0.122,54218
-0.299,-0.01,-0.954,-0.122,54222
-0.3,-0.01,-0.959,-0.183,54226
-0.3,-0.01,-0.959,-0.122,54230
-0.3,-0.01,-0.959,-0.122,54234
-0.3,-0.008,-0.962,-0.061,54239
-0.3,-0.008,-0.962,-0.183,54243
-0.299,-0.006,-0.959,-0.305,54247
-0.299,-0.006,-0.959,-0.244,54251
-0.299,-0.006,-0.959,-0.244,54255
-0.298,-0.005,-0.958,-0.183,54259
-0.298,-0.005,-0.958,-0.244,54263
-0.298,-0.007,-0.959,-0.183,54267
-0.298,-0.007,-0.959,-0.244,54271
-0.298,-0.008,-0.96,-0.305,54275
-0.298,-0.008,-0.96,-0.305,54279
-0.298,-0.008,-0.96,-0.244,54283
-0.299,-0.008,-0.958,-0.366,54287
-0.299,-0.008,-0.958,-0.305,54291
-0.297,-0.008,-0.958,-0.305,54295
-0.297,-0.008,-0.958,-0.305,54299
-0.297,-0.008,-0.958,-0.305,54303
-0.296,-0.009,-0.958,-0.183,54307
-0.296,-0.009,-0.958,-0.183,54311
-0.297,-0.008,-0.96,-0.244,54315
-0.297,-0.008,-0.96,-0.244,54319
-0.297,-0.008,-0.96,-0.122,54323
-0.297,-0.007,-0.96,-0.061,54327
-0.297,-0.007,-0.96,-0.183,54331
-0.297,-0.008,-0.959,-0.122,54335
-0.297,-0.008,-0.959,-0.122,54339
-0.297,-0.008,-0.959,-0.122,54343
-0.298,-0.009,-0.958,-0.183,54347
-0.298,-0.009,-0.958,-0.183,54351
-0.299,-0.008,-0.964,-0.244,54355
-0.299,-0.008,-0.964,-0.244,54359
-0.299,-0.008,-0.964,-0.244,54363
-0.294,-0.007,-0.952,-0.183,54367
-0.294,-0.007,-0.952,-0.244,54371
-0.299,-0.009,-0.961,-0.183,54375
-0.299,-0.009,-0.961,-0.061,54379
-0.299,-0.009,-0.961,-0.061,54383
-0.3,-0.008,-0.963,-0.244,54387
-0.3,-0.008,-0.963,-0.244,54391
-0.298,-0.008,-0.953,-0.183,54395
-0.298,-0.008,-0.953,-0.244,54399
-0.298,-0.008,-0.953,-0.244,54403
-0.299,-0.008,-0.958,-0.244,54407
-0.299,-0.008,-0.958,-0.305,54411
-0.301,-0.008,-0.959,-0.366,54415
-0.301,-0.008,-0.959,-0.183,54419
-0.301,-0.009,-0.959,-0.244,54424
-0.301,-0.009,-0.959,-0.244,54428
-0.301,-0.009,-0.959,-0.183,54432
-0.3,-0.009,-0.957,-0.183,54436
-0.3,-0.009,-0.957,-0.244,54440
-0.301,-0.009,-0.958,-0.183,54444
-0.301,-0.009,-0.958,-0.183,54448
-0.301,-0.009,-0.958,-0.183,54452
-0.3,-0.008,-0.958,-0.244,54456
-0.3,-0.008,-0.958,-0.061,54460
-0.301,-0.009,-0.955,-0.122,54464
-0.301,-0.009,-0.955,-0.122,54468
-0.301,-0.009,-0.955,-0.183,54472
-0.302,-0.008,-0.96,-0.122,54476
-0.302,-0.008,-0.96,0.0,54480
-0.301,-0.007,-0.96,-0.244,54484
-0.301,-0.007,-0.96,-0.244,54488
-0.301,-0.007,-0.96,-0.183,54492
-0.299,-0.008,-0.955,-0.244,54496
-0.299,-0.008,-0.955,-0.244,54500
-0.299,-0.008,-0.959,-0.122,54504
-0.299,-0.008,-0.959,-0.183,54508
-0.299,-0.008,-0.959,-0.183,54512
-0.299,-0.009,-0.957,-0.183,54516
-0.299,-0.009,-0.957,-0.244,54520
-0.299,-0.009,-0.96,-0.244,54524
-0.299,-0.009,-0.96,-0.183,54528
-0.299,-0.009,-0.96,-0.183,54532
-0.299,-0.008,-0.96,-0.183,54536
-0.299,-0.008,-0.96,-0.183,54540
-0.297,-0.009,-0.957,-0.183,54544
-0.297,-0.009,-0.957,-0.244,54548
-0.297,-0.009,-0.957,-0.244,54552
-0.297,-0.006,-0.958,-0.183,54556
-0.297,-0.006,-0.958,-0.183,54560
-0.298,-0.006,-0.959,-0.183,54564
-0.298,-0.006,-0.959,-0.183,54568
-0.297,-0.007,-0.961,-0.061,54572
-0.297,-0.007,-0.961,-0.061,54576
-0.297,-0.007,-0.961,-0.061,54580
-0.297,-0.007,-0.959,-0.122,54584
-0.297,-0.007,-0.959,-0.305,54588
-0.297,-0.006,-0.959,-0.183,54592
-0.297,-0.006,-0.959,-0.183,54596
-0.297,-0.006,-0.959,-0.122,54600
-0.297,-0.004,-0.96,-0.244,54605
-0.297,-0.004,-0.96,-0.183,54609
-0.296,-0.006,-0.959,-0.061,54613
-0.296,-0.006,-0.959,-0.061,54617
-0.296,-0.006,-0.959,-0.122,54621
-0.296,-0.008,-0.959,-0.305,54625
-0.296,-0.008,-0.959,-0.183,54629
-0.298,-0.008,-0.96,-0.183,54633
-0.298,-0.008,-0.96,-0.183,54637
-0.298,-0.008,-0.96,-0.183,54641
-0.297,-0.009,-0.958,-0.244,54645
-0.297,-0.009,-0.958,-0.183,54649
-0.296,-0.01,-0.958,-0.061,54653
-0.296,-0.01,-0.958,-0.122,54657
-0.296,-0.01,-0.958,-0.122,54661
-0.298,-0.008,-0.958,-0.305,54665
-0.298,-0.008,-0.958,-0.183,54669
-0.301,-0.01,-0.958,-0.244,54673
-0.301,-0.01,-0.958,-0.244,54677
-0.301,-0.01,-0.958,-0.244,54681
-0.301,-0.008,-0.959,-0.183,54685
-0.301,-0.008,-0.959,-0.366,54689
-0.299,-0.007,-0.956,-0.305,54693
-0.299,-0.007,-0.956,-0.183,54697
-0.299,-0.007,-0.956,-0.183,54701
-0.301,-0.007,-0.957,-0.183,54705
-0.301,-0.007,-0.957,-0.183,54709
-0.299,-0.009,-0.958,-0.244,54713
-0.299,-0.009,-0.958,-0.183,54717
-0.301,-0.009,-0.958,-0.183,54721
-0.301,-0.009,-0.958,-0.183,54725
-0.301,-0.009,-0.958,-0.183,54729
-0.3,-0.008,-0.957,-0.183,54733
-0.3,-0.008,-0.957,-0.183,54737
-0.301,-0.008,-0.956,-0.183,54741
-0.301,-0.008,-0.956,-0.183,54745
-0.301,-0.008,-0.956,-0.122,54749
-0.301,-0.009,-0.957,-0.244,54753
-0.301,-0.009,-0.957,-0.244,54757
-0.3,-0.01,-0.955,-0.122,54761
-0.3,-0.01,-0.955,-0.122,54765
-0.3,-0.01,-0.955,-0.244,54769
-0.299,-0.008,-0.955,-0.244,54773
-0.299,-0.008,-0.955,-0.244,54777
-0.301,-0.01,-0.957,-0.183,54781
-0.301,-0.01,-0.957,-0.183,54786
-0.301,-0.01,-0.957,-0.183,54790
-0.3,-0.009,-0.957,-0.061,54794
-0.3,-0.009,-0.957,-0.061,54798
-0.3,-0.009,-0.956,-0.061,54802
-0.3,-0.009,-0.956,-0.061,54806
-0.3,-0.009,-0.956,-0.061,54810
-0.301,-0.009,-0.957,-0.183,54814
-0.301,-0.009,-0.957,-0.061,54818
-0.301,-0.006,-0.957,-0.183,54822
-0.301,-0.006,-0.957,-0.122,54826
-0.301,-0.006,-0.957,-0.122,54830
-0.3,-0.007,-0.957,-0.183,54834
-0.3,-0.007,-0.957,0.0,54838
-0.299,-0.007,-0.959,-0.183,54842
-0.299,-0.007,-0.959,-0.122,54846
-0.299,-0.007,-0.959,-0.122,54850
-0.298,-0.006,-0.96,-0.183,54854
-0.298,-0.006,-0.96,-0.183,54858
-0.298,-0.006,-0.959,-0.122,54862
-0.298,-0.006,-0.959,-0.183,54866
-0.297,-0.007,-0.96,-0.061,54870
-0.297,-0.007,-0.96,-0.061,54874
-0.297,-0.007,-0.96,-0.122,54878
-0.295,-0.006,-0.96,-0.244,54882
-0.295,-0.006,-0.96,-0.244,54886
-0.297,-0.006,-0.958,-0.183,54890
-0.297,-0.006,-0.958,-0.183,54894
-0.297,-0.006,-0.958,-0.061,54898
-0.298,-0.005,-0.96,-0.183,54902
-0.298,-0.005,-0.96,-0.061,54906
-0.298,-0.004,-0.96,0.0,54910
-0.298,-0.004,-0.96,0.0,54914
-0.298,-0.004,-0.96,-0.366,54918
-0.298,-0.005,-0.959,-0.305,54922
-0.298,-0.005,-0.959,-0.244,54926
-0.296,-0.006,-0.96,-0.122,54930
-0.296,-0.006,-0.96,-0.122,54934
-0.296,-0.006,-0.96,-0.061,54938
-0.296,-0.006,-0.959,-0.183,54942
-0.296,-0.006,-0.959,-0.183,54946
-0.296,-0.007,-0.96,-0.244,54950
-0.296,-0.007,-0.96,-0.183,54954
-0.296,-0.007,-0.96,-0.183,54958
-0.297,-0.006,-0.96,-0.183,54962
-0.297,-0.006,-0.96,-0.061,54966
-0.298,-0.007,-0.96,0.0,54970
-0.298,-0.007,-0.96,-0.183,54974
-0.298,-0.007,-0.96,-0.183,54978
-0.298,-0.006,-0.96,-0.183,54982
-0.298,-0.006,-0.96,-0.244,54986
-0.297,-0.008,-0.959,-0.305,54990
-0.297,-0.008,-0.959,-0.183,54994
-0.297,-0.008,-0.959,-0.183,54998
-0.296,-0.008,-0.958,-0.244,55002
-0.296,-0.008,-0.958,-0.061,55006
-0.297,-0.007,-0.958,-0.122,55011
-0.297,-0.007,-0.958,-0.244,55015
-0.298,-0.01,-0.958,-0.244,55019
-0.298,-0.01,-0.958,-0.244,55023
-0.298,-0.01,-0.958,-0.061,55027
-0.298,-0.01,-0.958,-0.305,55031
-0.298,-0.01,-0.958,-0.366,55035
-0.299,-0.01,-0.957,-0.122,55039
-0.299,-0.01,-0.957,-0.122,55043
-0.299,-0.01,-0.957,0.0,55047
-0.3,-0.009,-0.957,-0.244,55051
-0.3,-0.009,-0.957,-0.305,55055
-0.3,-0.009,-0.958,-0.122,55059
-0.3,-0.009,-0.958,-0.122,55063
-0.3,-0.009,-0.958,-0.122,55067
-0.3,-0.009,-0.957,-0.183,55071
-0.3,-0.009,-0.957,-0.183,55075
-0.298,-0.008,-0.958,-0.183,55079
-0.298,-0.008,-0.958,-0.183,55083
-0.298,-0.008,-0.958,-0.122,55087
-0.3,-0.009,-0.957,-0.122,55091
-0.3,-0.009,-0.957,-0.122,55095
-0.301,-0.009,-0.957,-0.183,55099
-0.301,-0.009,-0.957,-0.305,55103
-0.301,-0.009,-0.957,-0.305,55107
-0.301,-0.009,-0.958,-0.183,55111
-0.301,-0.009,-0.958,-0.244,55115
-0.299,-0.007,-0.958,-0.305,55119
-0.299,-0.007,-0.958,-0.122,55123
-0.299,-0.007,-0.958,-0.122,55127
-0.299,-0.008,-0.958,-0.183,55131
-0.299,-0.008,-0.958,-0.183,55135
-0.299,-0.007,-0.958,-0.183,55139
-0.299,-0.007,-0.958,-0.244,55143
-0.299,-0.007,-0.958,-0.244,55147
-0.297,-0.008,-0.957,-0.183,55151
-0.297,-0.008,-0.957,-0.122,55155
-0.296,-0.007,-0.958,-0.183,55159
-0.296,-0.007,-0.958,-0.183,55163
-0.298,-0.006,-0.958,-0.244,55167
-0.298,-0.006,-0.958,-0.244,55171
-0.298,-0.006,-0.958,-0.122,55175
-0.298,-0.005,-0.959,0.0,55179
-0.298,-0.005,-0.959,-0.244,55183
-0.298,-0.005,-0.959,-0.244,55187
-0.298,-0.005,-0.959,-0.244,55191
-0.298,-0.005,-0.959,-0.061,55195
-0.297,-0.006,-0.959,0.0,55199
-0.297,-0.006,-0.959,-0.244,55203
-0.298,-0.005,-0.96,-0.183,55207
-0.298,-0.005,-0.96,-0.183,55211
-0.298,-0.005,-0.96,-0.183,55215
-0.298,-0.004,-0.961,-0.183,55219
-0.298,-0.004,-0.961,-0.366,55223
-0.294,-0.007,-0.96,-0.183,55227
-0.294,-0.007,-0.96,-0.183,55232
-0.294,-0.007,-0.96,-0.244,55236
-0.296,-0.006,-0.959,-0.183,55240
-0.296,-0.006,-0.959,-0.122,55244
-0.297,-0.006,-0.959,-0.183,55248
-0.297,-0.006,-0.959,-0.305,55252
-0.297,-0.006,-0.959,-0.305,55256
-0.296,-0.008,-0.962,-0.305,55260
-0.296,-0.008,-0.962,-0.305,55264
-0.298,-0.006,-0.96,-0.244,55268
-0.298,-0.006,-0.96,-0.183,55272
-0.298,-0.006,-0.96,-0.183,55276
-0.296,-0.006,-0.959,-0.244,55280
-0.296,-0.006,-0.959,-0.183,55284
-0.296,-0.007,-0.959,-0.183,55288
-0.296,-0.007,-0.959,-0.244,55292
-0.296,-0.007,-0.959,-0.244,55296
-0.298,-0.006,-0.96,-0.122,55300
-0.298,-0.006,-0.96,-0.061,55304
-0.296,-0.007,-0.958,-0.061,55308
-0.296,-0.007,-0.958,-0.122,55312
-0.296,-0.007,-0.958,-0.122,55316
-0.298,-0.008,-0.958,-0.183,55320
-0.298,-0.008,-0.958,-0.366,55324
-0.299,-0.007,-0.958,-0.366,55328
-0.299,-0.007,-0.958,-0.244,55332
-0.299,-0.008,-0.959,-0.366,55336
-0.299,-0.008,-0.959,-0.366,55340
-0.299,-0.008,-0.959,-0.366,55344
-0.298,-0.007,-0.959,-0.183,55348
-0.298,-0.007,-0.959,-0.183,55352
-0.297,-0.008,-0.96,-0.183,55356
-0.297,-0.008,-0.96,-0.183,55360
-0.297,-0.008,-0.96,-0.122,55364
-0.298,-0.008,-0.96,-0.122,55368
-0.298,-0.008,-0.96,-0.183,55372
-0.299,-0.008,-0.961,-0.122,55376
-0.299,-0.008,-0.961,-0.122,55380
-0.299,-0.008,-0.961,-0.183,55384
-0.295,-0.008,-0.958,-0.244,55388
-0.295,-0.008,-0.958,-0.305,55393
-0.297,-0.008,-0.957,-0.183,55397
-0.297,-0.008,-0.957,-0.061,55401
-0.297,-0.008,-0.957,-0.061,55405
-0.296,-0.008,-0.959,-0.244,55409
-0.296,-0.008,-0.959,-0.244,55413
-0.298,-0.006,-0.96,-0.122,55417
-0.298,-0.006,-0.96,0.0,55421
-0.298,-0.006,-0.96,0.0,55425
-0.295,-0.005,-0.958,-0.244,55429
-0.295,-0.005,-0.958,-0.305,55433
-0.296,-0.006,-0.959,-0.244,55437
-0.296,-0.006,-0.959,-0.244,55441
-0.296,-0.006,-0.959,-0.244,55445
-0.296,-0.007,-0.959,-0.183,55449
-0.296,-0.007,-0.959,-0.122,55453
-0.297,-0.006,-0.96,-0.122,55457
-0.297,-0.006,-0.96,-0.183,55461
-0.295,-0.006,-0.96,-0.244,55465
-0.295,-0.006,-0.96,-0.244,55469
-0.295,-0.006,-0.96,-0.244,55473
-0.297,-0.006,-0.959,-0.122,55477
-0.297,-0.006,-0.959,-0.122,55481
-0.298,-0.008,-0.96,-0.183,55485
-0.298,-0.008,-0.96,-0.183,55489
-0.298,-0.008,-0.96,-0.183,55493
-0.296,-0.008,-0.96,-0.183,55497
-0.296,-0.008,-0.96,-0.244,55501
-0.295,-0.008,-0.96,-0.183,55505
-0.295,-0.008,-0.96,-0.183,55509
-0.295,-0.008,-0.96,-0.122,55513
-0.295,-0.006,-0.96,-0.183,55517
-0.295,-0.006,-0.96,-0.183,55521
-0.295,-0.007,-0.96,-0.244,55525
-0.295,-0.007,-0.96,-0.244,55529
-0.295,-0.007,-0.96,-0.122,55533
-0.296,-0.007,-0.96,-0.061,55537
-0.296,-0.007,-0.96,-0.244,55541
-0.296,-0.006,-0.958,-0.122,55545
-0.296,-0.006,-0.958,-0.122,55549
-0.296,-0.006,-0.958,-0.122,55553
-0.297,-0.007,-0.959,-0.305,55557
-0.297,-0.007,-0.959,-0.183,55561
-0.298,-0.006,-0.961,-0.244,55565
-0.298,-0.006,-0.961,-0.305,55569
-0.298,-0.006,-0.961,-0.305,55574
-0.297,-0.006,-0.958,-0.244,55578
-0.297,-0.006,-0.958,-0.061,55582
-0.296,-0.007,-0.958,-0.061,55586
-0.296,-0.007,-0.958,-0.183,55590
-0.296,-0.007,-0.958,-0.183,55594
-0.297,-0.007,-0.957,-0.244,55598
-0.297,-0.007,-0.957,-0.305,55602
-0.299,-0.007,-0.959,-0.305,55606
-0.299,-0.007,-0.959,-0.244,55610
-0.298,-0.006,-0.96,-0.305,55614
-0.298,-0.006,-0.96,-0.305,55618
-0.298,-0.006,-0.96,-0.305,55622
-0.299,-0.008,-0.958,-0.183,55626
-0.299,-0.008,-0.958,-0.244,55630
-0.298,-0.009,-0.959,-0.244,55634
-0.298,-0.009,-0.959,-0.244,55638
-0.298,-0.009,-0.959,-0.183,55642
-0.298,-0.008,-0.958,-0.244,55646
-0.298,-0.008,-0.958,-0.305,55650
-0.298,-0.007,-0.959,-0.244,55654
-0.298,-0.007,-0.959,-0.244,55658
-0.298,-0.007,-0.959,-0.244,55662
-0.298,-0.007,-0.959,-0.305,55666
-0.298,-0.007,-0.959,-0.183,55670
-0.298,-0.007,-0.959,-0.244,55674
-0.298,-0.007,-0.959,-0.183,55678
-0.298,-0.007,-0.959,-0.183,55682
-0.299,-0.008,-0.959,0.0,55686
-0.299,-0.008,-0.959,-0.061,55690
-0.299,-0.008,-0.958,-0.183,55694
-0.299,-0.008,-0.958,-0.305,55698
-0.299,-0.008,-0.958,-0.305,55702
-0.297,-0.008,-0.958,-0.244,55706
-0.297,-0.008,-0.958,-0.183,55710
-0.296,-0.009,-0.959,-0.183,55714
-0.296,-0.009,-0.959,-0.122,55718
-0.296,-0.009,-0.959,-0.122,55722
-0.297,-0.008,-0.957,-0.183,55726
-0.297,-0.008,-0.957,-0.183,55730
-0.299,-0.007,-0.959,-0.183,55734
-0.299,-0.007,-0.959,-0.183,55738
-0.299,-0.007,-0.959,-0.183,55742
-0.297,-0.008,-0.96,-0.183,55746
-0.297,-0.008,-0.96,-0.183,55750
-0.296,-0.008,-0.96,-0.244,55754
-0.296,-0.008,-0.96,-0.183,55758
-0.298,-0.008,-0.96,-0.122,55763
-0.298,-0.008,-0.96,-0.122,55767
-0.298,-0.008,-0.96,-0.305,55771
-0.297,-0.006,-0.959,-0.183,55775
-0.297,-0.006,-0.959,-0.122,55779
-0.297,-0.006,-0.959,0.0,55783
-0.297,-0.006,-0.959,0.0,55787
-0.297,-0.006,-0.959,-0.061,55791
-0.296,-0.006,-0.96,-0.305,55795
-0.296,-0.006,-0.96,-0.244,55799
-0.294,-0.006,-0.958,-0.305,55803
-0.294,-0.006,-0.958,-0.305,55807
-0.294,-0.006,-0.958,-0.244,55811
-0.295,-0.006,-0.957,-0.244,55815
-0.295,-0.006,-0.957,-0.305,55819
-0.297,-0.006,-0.962,-0.244,55823
-0.297,-0.006,-0.962,-0.244,55827
-0.297,-0.006,-0.962,-0.305,55831
-0.298,-0.006,-0.957,-0.183,55835
-0.298,-0.006,-0.957,-0.122,55839
-0.297,-0.006,-0.959,-0.061,55843
-0.297,-0.006,-0.959,-0.122,55847
-0.297,-0.006,-0.959,-0.122,55851
-0.301,-0.006,-0.965,-0.183,55855
-0.301,-0.006,-0.965,-0.305,55859
-0.297,-0.005,-0.957,-0.183,55863
-0.297,-0.005,-0.957,-0.061,55867
-0.297,-0.005,-0.957,-0.061,55871
-0.298,-0.005,-0.963,-0.305,55875
-0.298,-0.005,-0.963,-0.366,55879
-0.296,-0.006,-0.956,-0.244,55883
-0.296,-0.006,-0.956,-0.305,55887
-0.296,-0.006,-0.956,-0.305,55891
-0.296,-0.005,-0.953,-0.244,55895
-0.296,-0.005,-0.953,-0.305,55899
-0.301,-0.006,-0.967,-0.305,55903
-0.301,-0.006,-0.967,-0.305,55907
-0.298,-0.007,-0.959,-0.122,55911
-0.298,-0.007,-0.959,-0.122,55915
-0.298,-0.007,-0.959,-0.183,55919
-0.296,-0.008,-0.958,-0.244,55923
-0.296,-0.008,-0.958,-0.244,55927
-0.298,-0.008,-0.959,-0.305,55931
-0.298,-0.008,-0.959,-0.305,55935
-0.298,-0.008,-0.959,-0.305,55939
-0.297,-0.008,-0.958,-0.305,55943
-0.297,-0.008,-0.958,-0.244,55947
-0.297,-0.008,-0.958,-0.244,55951
-0.297,-0.008,-0.958,-0.244,55955
-0.297,-0.008,-0.958,-0.305,55960
-0.297,-0.009,-0.958,-0.183,55964
-0.297,-0.009,-0.958,-0.244,55968
-0.299,-0.011,-0.958,-0.244,55972
-0.299,-0.011,-0.958,-0.244,55976
-0.299,-0.011,-0.958,-0.244,55980
-0.3,-0.01,-0.96,-0.244,55984
-0.3,-0.01,-0.96,-0.366,55988
-0.298,-0.009,-0.958,-0.183,55992
-0.298,-0.009,-0.958,-0.366,55996
-0.298,-0.009,-0.958,-0.366,56000
-0.297,-0.009,-0.957,-0.366,56004
-0.297,-0.009,-0.957,-0.061,56008
-0.298,-0.01,-0.958,-0.244,56012
-0.298,-0.01,-0.958,-0.183,56016
-0.298,-0.01,-0.958,-0.183,56020
-0.295,-0.009,-0.961,-0.183,56024
-0.295,-0.009,-0.961,-0.122,56028
-0.296,-0.007,-0.96,-0.244,56032
-0.296,-0.007,-0.96,-0.183,56036
-0.299,-0.005,-0.958,-0.183,56040
-0.299,-0.005,-0.958,-0.183,56044
-0.299,-0.005,-0.958,-0.244,56048
-0.297,-0.006,-0.96,-0.305,56052
-0.297,-0.006,-0.96,-0.183,56056
-0.296,-0.005,-0.956,-0.244,56060
-0.296,-0.005,-0.956,-0.244,56064
-0.296,-0.005,-0.956,-0.244,56068
-0.297,-0.004,-0.963,-0.183,56072
-0.297,-0.004,-0.963,-0.305,56076
-0.297,-0.001,-0.961,-0.305,56080
-0.297,-0.001,-0.961,-0.305,56084
-0.297,-0.001,-0.961,-0.183,56088
-0.295,-0.002,-0.953,-0.366,56092
-0.295,-0.002,-0.953,-0.305,56096
-0.294,-0.002,-0.958,-0.305,56100
-0.294,-0.002,-0.958,-0.305,56104
-0.294,-0.002,-0.958,-0.366,56109
-0.296,-0.002,-0.962,-0.244,56113
-0.296,-0.002,-0.962,-0.244,56117
-0.296,-0.002,-0.961,-0.305,56121
-0.296,-0.002,-0.961,-0.244,56125
-0.296,-0.002,-0.961,-0.244,56129
-0.296,-0.005,-0.961,-0.244,56133
-0.296,-0.005,-0.961,-0.305,56137
-0.295,-0.005,-0.959,-0.183,56141
-0.295,-0.005,-0.959,-0.305,56145
-0.295,-0.005,-0.959,-0.305,56149
-0.295,-0.006,-0.96,-0.244,56153
-0.295,-0.006,-0.96,-0.183,56157
-0.296,-0.007,-0.959,-0.305,56161
-0.296,-0.007,-0.959,-0.366,56165
-0.296,-0.007,-0.959,-0.366,56169
-0.295,-0.008,-0.962,-0.488,56173
-0.295,-0.008,-0.962,-0.366,56177
-0.295,-0.008,-0.964,-0.366,56181
-0.295,-0.008,-0.964,-0.366,56185
-0.295,-0.006,-0.964,-0.427,56189
-0.295,-0.006,-0.964,-0.427,56193
-0.295,-0.006,-0.964,-0.427,56197
-0.291,-0.005,-0.956,-0.427,56201
-0.291,-0.005,-0.956,-0.366,56205
-0.287,-0.006,-0.945,-0.366,56209
-0.287,-0.006,-0.945,-0.366,56213
-0.287,-0.006,-0.945,-0.366,56217
-0.296,-0.007,-0.961,-0.183,56221
-0.296,-0.007,-0.961,-0.305,56225
-0.302,-0.01,-0.971,-0.427,56229
-0.302,-0.01,-0.971,-0.427,56233
-0.302,-0.01,-0.971,-0.305,56237
-0.3,-0.011,-0.954,-0.244,56241
-0.3,-0.011,-0.954,-0.305,56245
-0.298,-0.013,-0.951,-0.366,56249
-0.298,-0.013,-0.951,-0.366,56253
-0.298,-0.013,-0.951,-0.366,56257
-0.303,-0.013,-0.96,-0.366,56261
-0.303,-0.013,-0.96,-0.366,56265
-0.305,-0.015,-0.964,-0.305,56269
-0.305,-0.015,-0.964,-0.305,56273
-0.305,-0.015,-0.964,-0.305,56278
-0.3,-0.015,-0.953,-0.244,56282
-0.3,-0.015,-0.953,-0.366,56286
-0.298,-0.017,-0.946,-0.244,56290
-0.298,-0.017,-0.946,-0.366,56294
-0.298,-0.017,-0.946,-0.366,56298
-0.304,-0.015,-0.956,-0.305,56302
-0.304,-0.015,-0.956,-0.244,56306
-0.307,-0.015,-0.961,-0.366,56310
-0.307,-0.015,-0.961,-0.305,56314
-0.307,-0.015,-0.961,-0.305,56318
-0.304,-0.014,-0.951,-0.183,56322
-0.304,-0.014,-0.951,-0.244,56326
-0.302,-0.013,-0.943,-0.183,56330
-0.302,-0.013,-0.943,-0.122,56334
-0.305,-0.012,-0.952,-0.122,56338
-0.305,-0.012,-0.952,-0.122,56342
-0.305,-0.012,-0.952,-0.061,56346
-0.309,-0.01,-0.963,-0.061,56350
-0.309,-0.01,-0.963,-0.183,56354
-0.307,-0.011,-0.961,-0.183,56358
-0.307,-0.011,-0.961,-0.183,56362
-0.307,-0.011,-0.961,-0.183,56366
-0.303,-0.008,-0.95,-0.122,56370
-0.303,-0.008,-0.95,-0.122,56374
-0.302,-0.006,-0.953,-0.122,56378
-0.302,-0.006,-0.953,-0.122,56382
-0.302,-0.006,-0.953,-0.061,56386
-0.302,-0.006,-0.959,-0.122,56390
-0.302,-0.006,-0.959,0.0,56394
-0.301,-0.006,-0.961,-0.061,56398
-0.301,-0.006,-0.961,-0.061,56402
-0.301,-0.006,-0.961,-0.061,56406
-0.296,-0.006,-0.958,-0.122,56410
-0.296,-0.006,-0.958,-0.061,56414
-0.293,-0.004,-0.956,0.122,56418
-0.293,-0.004,-0.956,0.061,56422
-0.293,-0.004,-0.956,0.061,56426
-0.292,-0.003,-0.96,-0.061,56430
-0.292,-0.003,-0.96,-0.061,56434
-0.293,-0.003,-0.965,-0.061,56438
-0.293,-0.003,-0.965,-0.061,56442
-0.293,-0.003,-0.965,-0.061,56446
-0.291,-0.002,-0.963,-0.061,56450
-0.291,-0.002,-0.963,-0.122,56454
-0.29,-0.001,-0.97,-0.183,56458
-0.29,-0.001,-0.97,-0.122,56462
-0.29,-0.001,-0.97,-0.122,56466
-0.288,-0.002,-0.967,-0.183,56470
-0.288,-0.002,-0.967,-0.366,56474
-0.286,-0.003,-0.953,-0.305,56478
-0.286,-0.003,-0.953,-0.305,56482
-0.288,-0.004,-0.96,-0.183,56487
-0.288,-0.004,-0.96,-0.183,56491
-0.288,-0.004,-0.96,-0.183,56495
-0.292,-0.005,-0.978,-0.427,56499
-0.292,-0.005,-0.978,-0.488,56503
-0.292,-0.007,-0.964,-0.305,56507
-0.292,-0.007,-0.964,-0.305,56511
-0.292,-0.007,-0.964,-0.427,56515
-0.29,-0.009,-0.952,-0.427,56519
-0.29,-0.009,-0.952,-0.244,56523
-0.293,-0.009,-0.962,-0.244,56527
-0.293,-0.009,-0.962,-0.244,56531
-0.293,-0.009,-0.962,-0.183,56535
-0.295,-0.01,-0.966,-0.244,56539
-0.295,-0.01,-0.966,-0.427,56543
-0.295,-0.011,-0.959,-0.244,56547
-0.295,-0.011,-0.959,-0.305,56551
-0.295,-0.011,-0.959,-0.305,56555
-0.297,-0.01,-0.954,-0.366,56559
-0.297,-0.01,-0.954,-0.183,56563
-0.299,-0.011,-0.955,-0.183,56567
-0.299,-0.011,-0.955,-0.366,56571
-0.299,-0.011,-0.955,-0.366,56575
-0.301,-0.011,-0.959,-0.183,56579
-0.301,-0.011,-0.959,-0.427,56583
-0.305,-0.01,-0.957,-0.305,56587
-0.305,-0.01,-0.957,-0.244,56591
-0.305,-0.01,-0.957,-0.244,56595
-0.305,-0.012,-0.952,-0.427,56599
-0.305,-0.012,-0.952,-0.305,56603
-0.307,-0.012,-0.953,-0.122,56607
-0.307,-0.012,-0.953,-0.244,56611
-0.307,-0.012,-0.955,-0.427,56615
-0.307,-0.012,-0.955,-0.427,56619
-0.307,-0.012,-0.955,-0.305,56623
-0.308,-0.012,-0.952,-0.183,56628
-0.308,-0.012,-0.952,-0.244,56632
-0.308,-0.012,-0.948,-0.305,56636
-0.308,-0.012,-0.948,-0.305,56640
-0.308,-0.012,-0.948,-0.305,56644
-0.309,-0.012,-0.95,-0.183,56648
-0.309,-0.012,-0.95,-0.122,56652
-0.308,-0.014,-0.956,-0.244,56656
-0.308,-0.014,-0.956,-0.244,56660
-0.308,-0.014,-0.956,-0.244,56664
-0.306,-0.012,-0.955,-0.244,56668
-0.306,-0.012,-0.955,-0.244,56672
-0.304,-0.011,-0.95,-0.305,56676
-0.304,-0.011,-0.95,-0.183,56680
-0.304,-0.011,-0.95,-0.183,56684
-0.304,-0.012,-0.955,-0.183,56688
-0.304,-0.012,-0.955,-0.061,56692
-0.305,-0.009,-0.96,-0.244,56696
-0.305,-0.009,-0.96,-0.061,56700
-0.305,-0.009,-0.96,-0.061,56704
-0.302,-0.01,-0.957,0.061,56708
-0.302,-0.01,-0.957,-0.122,56712
-0.298,-0.01,-0.957,-0.122,56716
-0.298,-0.01,-0.957,-0.061,56720
-0.298,-0.01,-0.957,-0.061,56724
-0.296,-0.009,-0.96,0.0,56728
-0.296,-0.009,-0.96,-0.183,56732
-0.295,-0.009,-0.961,-0.122,56736
-0.295,-0.009,-0.961,0.061,56740
-0.295,-0.009,-0.961,0.061,56744
-0.293,-0.01,-0.964,-0.061,56748
-0.293,-0.01,-0.964,-0.122,56752
-0.292,-0.007,-0.963,-0.061,56756
-0.292,-0.007,-0.963,-0.061,56760
-0.29,-0.006,-0.962,-0.122,56764
-0.29,-0.006,-0.962,-0.122,56768
-0.29,-0.006,-0.962,-0.122,56772
-0.292,-0.007,-0.966,-0.122,56776
-0.292,-0.007,-0.966,-0.183,56780
-0.291,-0.005,-0.965,-0.244,56784
-0.291,-0.005,-0.965,-0.244,56788
-0.291,-0.005,-0.965,-0.183,56792
-0.287,-0.002,-0.964,-0.122,56796
-0.287,-0.002,-0.964,-0.183,56800
-0.287,-0.004,-0.964,-0.183,56804
-0.287,-0.004,-0.964,-0.183,56808
-0.287,-0.004,-0.964,-0.244,56812
-0.287,-0.003,-0.964,-0.244,56817
-0.287,-0.003,-0.964,-0.183,56821
-0.289,-0.002,-0.962,-0.183,56825
-0.289,-0.002,-0.962,-0.183,56829
-0.289,-0.002,-0.962,-0.183,56833
-0.29,-0.003,-0.963,-0.244,56837
-0.29,-0.003,-0.963,-0.244,56841
-0.293,-0.004,-0.961,-0.366,56845
-0.293,-0.004,-0.961,-0.305,56849
-0.293,-0.004,-0.961,-0.305,56853
-0.295,-0.004,-0.96,-0.366,56857
-0.295,-0.004,-0.96,-0.183,56861
-0.298,-0.004,-0.96,-0.244,56865
-0.298,-0.004,-0.96,-0.549,56869
-0.298,-0.004,-0.96,-0.549,56873
-0.299,-0.005,-0.957,-0.244,56877
-0.299,-0.005,-0.957,-0.183,56881
-0.302,-0.008,-0.958,-0.366,56885
-0.302,-0.008,-0.958,-0.366,56889
-0.302,-0.008,-0.958,-0.366,56893
-0.302,-0.008,-0.957,-0.366,56897
-0.302,-0.008,-0.957,-0.305,56901
-0.303,-0.007,-0.956,-0.427,56905
-0.303,-0.007,-0.956,-0.244,56909
-0.306,-0.01,-0.956,-0.244,56913
-0.306,-0.01,-0.956,-0.244,56917
-0.306,-0.01,-0.956,-0.244,56921
-0.305,-0.01,-0.956,-0.244,56925
-0.305,-0.01,-0.956,-0.305,56929
-0.304,-0.012,-0.954,-0.366,56933
-0.304,-0.012,-0.954,-0.366,56937
-0.304,-0.012,-0.954,-0.183,56941
-0.304,-0.012,-0.955,-0.183,56945
-0.304,-0.012,-0.955,-0.244,56949
-0.305,-0.014,-0.955,-0.183,56953
-0.305,-0.014,-0.955,-0.183,56957
-0.305,-0.014,-0.955,-0.183,56961
-0.305,-0.015,-0.953,-0.061,56965
-0.305,-0.015,-0.953,-0.122,56969
-0.305,-0.016,-0.954,-0.305,56973
-0.305,-0.016,-0.954,-0.183,56977
-0.305,-0.016,-0.954,-0.183,56981
-0.305,-0.016,-0.954,-0.183,56986
-0.305,-0.016,-0.954,-0.244,56990
-0.303,-0.017,-0.955,0.0,56994
-0.303,-0.017,-0.955,-0.122,56998
-0.303,-0.017,-0.955,-0.122,57002
-0.303,-0.016,-0.955,-0.183,57006
-0.303,-0.016,-0.955,-0.122,57010
-0.303,-0.015,-0.954,-0.122,57014
-0.303,-0.015,-0.954,-0.183,57018
-0.303,-0.015,-0.954,-0.183,57022
-0.301,-0.014,-0.957,-0.183,57026
-0.301,-0.014,-0.957,-0.061,57030
-0.299,-0.011,-0.957,-0.061,57034
-0.299,-0.011,-0.957,-0.183,57038
-0.299,-0.011,-0.957,-0.183,57042
-0.298,-0.009,-0.958,0.061,57046
-0.298,-0.009,-0.958,0.0,57050
-0.297,-0.008,-0.959,-0.122,57054
-0.297,-0.008,-0.959,-0.061,57058
-0.296,-0.006,-0.96,0.0,57062
-0.296,-0.006,-0.96,0.0,57066
-0.296,-0.006,-0.96,-0.122,57070
-0.293,-0.005,-0.962,-0.122,57074
-0.293,-0.005,-0.962,-0.061,57078
-0.292,-0.004,-0.963,-0.122,57082
-0.292,-0.004,-0.963,-0.122,57086
-0.292,-0.004,-0.963,-0.183,57090
-0.292,-0.003,-0.963,-0.122,57094
-0.292,-0.003,-0.963,-0.122,57098
-0.291,-0.002,-0.963,-0.122,57102
-0.291,-0.002,-0.963,-0.122,57106
-0.291,-0.002,-0.963,-0.183,57110
-0.291,-0.002,-0.963,-0.183,57114
-0.291,-0.002,-0.963,-0.244,57118
-0.291,-0.001,-0.964,-0.061,57122
-0.291,-0.001,-0.964,-0.061,57126
-0.291,-0.001,-0.964,-0.183,57130
-0.291,-0.001,-0.962,-0.183,57134
-0.291,-0.001,-0.962,-0.061,57138
-0.292,-0.002,-0.964,-0.061,57142
-0.292,-0.002,-0.964,-0.183,57146
-0.292,-0.002,-0.964,-0.183,57150
-0.293,-0.001,-0.961,-0.366,57154
-0.293,-0.001,-0.961,-0.244,57158
-0.292,-0.002,-0.961,-0.305,57162
-0.292,-0.002,-0.961,-0.366,57166
-0.292,-0.002,-0.961,-0.366,57170
-0.294,-0.003,-0.961,-0.366,57174
-0.294,-0.003,-0.961,-0.366,57178
-0.296,-0.004,-0.96,-0.305,57182
-0.296,-0.004,-0.96,-0.244,57186
-0.296,-0.004,-0.96,-0.244,57191
-0.297,-0.005,-0.959,-0.244,57195
-0.297,-0.005,-0.959,-0.244,57199
-0.297,-0.006,-0.958,-0.305,57203
-0.297,-0.006,-0.958,-0.366,57207
-0.299,-0.008,-0.958,-0.366,57211
-0.299,-0.008,-0.958,-0.366,57215
-0.299,-0.008,-0.958,-0.244,57219
-0.299,-0.01,-0.959,-0.183,57223
-0.299,-0.01,-0.959,-0.244,57227
-0.299,-0.011,-0.957,-0.244,57231
-0.299,-0.011,-0.957,-0.244,57235
-0.299,-0.011,-0.957,-0.366,57239
-0.3,-0.014,-0.957,-0.183,57243
-0.3,-0.014,-0.957,-0.305,57247
-0.304,-0.015,-0.956,-0.366,57251
-0.304,-0.015,-0.956,-0.366,57255
-0.304,-0.015,-0.956,-0.366,57259
-0.301,-0.015,-0.954,-0.305,57263
-0.301,-0.015,-0.954,-0.305,57267
-0.303,-0.016,-0.954,-0.183,57271
-0.303,-0.016,-0.954,-0.183,57275
-0.303,-0.016,-0.954,-0.183,57279
-0.305,-0.015,-0.954,-0.366,57283
-0.305,-0.015,-0.954,-0.366,57287
-0.305,-0.015,-0.955,-0.305,57291
-0.305,-0.015,-0.955,-0.244,57295
-0.305,-0.015,-0.955,-0.244,57299
-0.304,-0.015,-0.954,-0.122,57303
-0.304,-0.015,-0.954,-0.122,57307
-0.304,-0.013,-0.955,-0.122,57311
-0.304,-0.013,-0.955,-0.122,57315
-0.304,-0.013,-0.955,-0.122,57319
-0.305,-0.014,-0.956,-0.122,57323
-0.305,-0.014,-0.956,-0.122,57327
-0.303,-0.012,-0.955,-0.122,57332
-0.303,-0.012,-0.955,-0.244,57336
-0.301,-0.009,-0.957,-0.244,57340
-0.301,-0.009,-0.957,-0.244,57344
-0.301,-0.009,-0.957,-0.183,57348
-0.301,-0.009,-0.957,-0.061,57352
-0.301,-0.009,-0.957,-0.122,57356
-0.298,-0.007,-0.958,-0.061,57360
-0.298,-0.007,-0.958,-0.061,57364
-0.298,-0.007,-0.958,-0.061,57368
-0.299,-0.006,-0.958,-0.183,57372
-0.299,-0.006,-0.958,-0.061,57376
-0.297,-0.005,-0.959,-0.061,57380
-0.297,-0.005,-0.959,-0.061,57384
-0.297,-0.005,-0.959,-0.122,57388
-0.296,-0.004,-0.96,-0.122,57392
-0.296,-0.004,-0.96,-0.122,57396
-0.295,-0.004,-0.96,-0.122,57400
-0.295,-0.004,-0.96,-0.183,57404
-0.295,-0.004,-0.96,-0.183,57408
-0.293,-0.004,-0.962,-0.122,57412
-0.293,-0.004,-0.962,0.0,57416
-0.293,-0.003,-0.963,-0.122,57420
-0.293,-0.003,-0.963,-0.061,57424
-0.293,-0.003,-0.963,-0.061,57428
-0.292,-0.003,-0.962,-0.183,57432
-0.292,-0.003,-0.962,-0.305,57436
-0.291,-0.002,-0.963,-0.244,57440
-0.291,-0.002,-0.963,-0.366,57444
-0.291,-0.002,-0.963,-0.366,57448
-0.29,-0.004,-0.965,-0.244,57452
-0.29,-0.004,-0.965,-0.244,57456
-0.292,-0.004,-0.962,-0.366,57460
-0.292,-0.004,-0.962,-0.366,57464
-0.292,-0.004,-0.962,-0.366,57468
-0.29,-0.003,-0.964,-0.305,57472
-0.29,-0.003,-0.964,-0.366,57476
-0.291,-0.004,-0.962,-0.244,57480
-0.291,-0.004,-0.962,-0.244,57484
-0.292,-0.005,-0.962,-0.244,57488
-0.292,-0.005,-0.962,-0.244,57492
-0.292,-0.005,-0.962,-0.244,57496
-0.293,-0.007,-0.961,-0.244,57501
-0.293,-0.007,-0.961,-0.244,57505
-0.294,-0.01,-0.96,-0.244,57509
-0.294,-0.01,-0.96,-0.244,57513
-0.294,-0.01,-0.96,-0.305,57517
-0.297,-0.01,-0.959,-0.305,57521
-0.297,-0.01,-0.959,-0.122,57525
-0.295,-0.01,-0.958,-0.244,57529
-0.295,-0.01,-0.958,-0.244,57533
-0.295,-0.01,-0.958,-0.488,57537
-0.299,-0.011,-0.958,-0.488,57541
-0.299,-0.011,-0.958,-0.305,57545
-0.3,-0.012,-0.958,-0.122,57549
-0.3,-0.012,-0.958,-0.305,57553
-0.3,-0.012,-0.958,-0.305,57557
-0.302,-0.01,-0.957,-0.183,57561
-0.302,-0.01,-0.957,-0.183,57565
-0.301,-0.01,-0.958,-0.244,57569
-0.301,-0.01,-0.958,-0.244,57573
-0.301,-0.01,-0.958,-0.244,57577
-0.303,-0.011,-0.955,-0.183,57581
-0.303,-0.011,-0.955,-0.244,57585
-0.306,-0.012,-0.955,-0.244,57589
-0.306,-0.012,-0.955,-0.305,57593
-0.306,-0.012,-0.955,-0.305,57597
-0.304,-0.013,-0.956,-0.244,57601
-0.304,-0.013,-0.956,-0.122,57605
-0.304,-0.012,-0.955,-0.183,57609
-0.304,-0.012,-0.955,-0.183,57613
-0.305,-0.01,-0.954,-0.122,57617
-0.305,-0.01,-0.954,-0.122,57621
-0.305,-0.01,-0.954,-0.305,57625
-0.304,-0.01,-0.954,-0.183,57629
-0.304,-0.01,-0.954,0.061,57633
-0.304,-0.01,-0.954,-0.061,57637
-0.304,-0.01,-0.954,-0.061,57641
-0.304,-0.01,-0.954,-0.244,57645
-0.304,-0.01,-0.954,-0.305,57649
-0.304,-0.01,-0.954,-0.244,57653
-0.302,-0.01,-0.955,-0.244,57657
-0.302,-0.01,-0.955,-0.244,57661
-0.302,-0.01,-0.955,-0.305,57665
-0.302,-0.009,-0.957,-0.122,57669
-0.302,-0.009,-0.957,-0.061,57674
-0.3,-0.008,-0.958,-0.183,57678
-0.3,-0.008,-0.958,-0.183,57682
-0.3,-0.008,-0.958,-0.183,57686
-0.299,-0.008,-0.958,-0.061,57690
-0.299,-0.008,-0.958,-0.122,57694
-0.299,-0.008,-0.959,-0.244,57698
-0.299,-0.008,-0.959,-0.244,57702
-0.299,-0.008,-0.959,-0.244,57706
-0.297,-0.007,-0.959,-0.183,57710
-0.297,-0.007,-0.959,-0.061,57714
-0.295,-0.006,-0.96,-0.061,57718
-0.295,-0.006,-0.96,-0.244,57722
-0.295,-0.006,-0.96,-0.244,57726
-0.293,-0.006,-0.962,-0.122,57730
-0.293,-0.006,-0.962,-0.061,57734
-0.292,-0.007,-0.961,-0.122,57738
-0.292,-0.007,-0.961,-0.061,57742
-0.292,-0.007,-0.961,-0.061,57746
-0.291,-0.009,-0.962,-0.061,57750
-0.291,-0.009,-0.962,-0.244,57754
-0.29,-0.006,-0.964,-0.305,57758
-0.29,-0.006,-0.964,-0.183,57762
-0.291,-0.006,-0.964,-0.183,57766
-0.291,-0.006,-0.964,-0.183,57770
-0.291,-0.006,-0.964,-0.183,57774
-0.291,-0.007,-0.964,-0.183,57778
-0.291,-0.007,-0.964,-0.122,57782
-0.291,-0.005,-0.962,-0.244,57786
-0.291,-0.005,-0.962,-0.244,57790
-0.291,-0.005,-0.962,-0.183,57794
-0.292,-0.004,-0.962,-0.183,57798
-0.292,-0.004,-0.962,-0.183,57802
-0.294,-0.006,-0.962,-0.244,57806
-0.294,-0.006,-0.962,-0.244,57810
-0.294,-0.006,-0.962,-0.244,57814
-0.294,-0.006,-0.96,-0.305,57818
-0.294,-0.006,-0.96,-0.183,57822
-0.294,-0.005,-0.958,-0.366,57826
-0.294,-0.005,-0.958,-0.183,57830
-0.294,-0.005,-0.958,-0.183,57834
-0.295,-0.004,-0.96,-0.366,57838
-0.295,-0.004,-0.96,-0.366,57843
-0.297,-0.007,-0.957,-0.305,57847
-0.297,-0.007,-0.957,-0.244,57851
-0.297,-0.007,-0.957,-0.244,57855
-0.298,-0.008,-0.957,-0.183,57859
-0.298,-0.008,-0.957,-0.183,57863
-0.3,-0.008,-0.958,-0.366,57867
-0.3,-0.008,-0.958,-0.305,57871
-0.3,-0.008,-0.958,-0.305,57875
-0.3,-0.008,-0.957,-0.244,57879
-0.3,-0.008,-0.957,-0.183,57883
-0.301,-0.009,-0.954,-0.244,57887
-0.301,-0.009,-0.954,-0.244,57891
-0.301,-0.009,-0.954,-0.244,57895
-0.304,-0.01,-0.955,-0.244,57899
-0.304,-0.01,-0.955,-0.122,57903
-0.303,-0.01,-0.955,-0.183,57907
-0.303,-0.01,-0.955,-0.305,57911
-0.303,-0.012,-0.955,-0.244,57915
-0.303,-0.012,-0.955,-0.244,57919
-0.303,-0.012,-0.955,-0.183,57923
-0.305,-0.013,-0.953,-0.244,57927
-0.305,-0.013,-0.953,-0.183,57931
-0.307,-0.013,-0.953,-0.305,57935
-0.307,-0.013,-0.953,-0.305,57939
-0.307,-0.013,-0.953,-0.244,57943
-0.303,-0.016,-0.953,-0.366,57947
-0.303,-0.016,-0.953,-0.427,57951
-0.304,-0.015,-0.956,-0.244,57955
-0.304,-0.015,-0.956,-0.244,57959
-0.304,-0.015,-0.956,-0.244,57963
-0.305,-0.015,-0.958,-0.244,57967
-0.305,-0.015,-0.958,-0.183,57971
-0.303,-0.016,-0.958,-0.366,57975
-0.303,-0.016,-0.958,-0.305,57979
-0.303,-0.016,-0.958,-0.305,57983
-0.301,-0.015,-0.959,-0.183,57987
-0.301,-0.015,-0.959,-0.061,57991
-0.298,-0.012,-0.956,-0.061,57995
-0.298,-0.012,-0.956,-0.183,57999
-0.298,-0.012,-0.956,-0.183,58003
-0.299,-0.012,-0.957,-0.183,58007
-0.299,-0.012,-0.957,0.183,58011
-0.298,-0.01,-0.958,-0.122,58015
-0.298,-0.01,-0.958,-0.061,58019
-0.298,-0.01,-0.958,-0.061,58024
-0.295,-0.008,-0.957,0.061,58028
-0.295,-0.008,-0.957,0.0,58031
-0.293,-0.003,-0.959,-0.061,58035
-0.293,-0.003,-0.959,0.061,58039
-0.293,-0.003,-0.959,0.061,58043
-0.292,-0.002,-0.963,-0.244,58048
-0.292,-0.002,-0.963,-0.122,58052
-0.291,-0.001,-0.965,-0.061,58056
-0.291,-0.001,-0.965,-0.061,58060
-0.292,-0.001,-0.963,-0.244,58064
-0.292,-0.001,-0.963,-0.244,58068
-0.292,-0.001,-0.963,-0.244,58072
-0.292,-0.001,-0.962,-0.305,58076
-0.292,-0.001,-0.962,-0.427,58080
-0.291,0.0,-0.962,-0.305,58084
-0.291,0.0,-0.962,-0.305,58088
-0.291,0.0,-0.962,-0.366,58092
-0.292,-0.002,-0.961,-0.366,58096
-0.292,-0.002,-0.961,-0.244,58100
-0.291,-0.004,-0.963,-0.305,58104
-0.291,-0.004,-0.963,-0.305,58108
-0.291,-0.004,-0.963,-0.244,58112
-0.292,-0.003,-0.964,-0.427,58116
-0.292,-0.003,-0.964,-0.305,58120
-0.292,-0.005,-0.964,-0.305,58124
-0.292,-0.005,-0.964,-0.305,58128
-0.292,-0.005,-0.964,-0.244,58132
-0.294,-0.004,-0.961,-0.244,58136
-0.294,-0.004,-0.961,-0.183,58140
-0.295,-0.006,-0.958,-0.244,58144
-0.295,-0.006,-0.958,-0.305,58148
-0.295,-0.006,-0.958,-0.305,58152
-0.297,-0.007,-0.958,-0.183,58156
-0.297,-0.007,-0.958,-0.244,58160
-0.298,-0.008,-0.959,-0.244,58164
-0.298,-0.008,-0.959,-0.244,58168
-0.298,-0.008,-0.959,-0.244,58172
-0.299,-0.009,-0.957,-0.366,58176
-0.299,-0.009,-0.957,-0.183,58180
-0.3,-0.009,-0.957,-0.183,58184
-0.3,-0.009,-0.957,-0.244,58188
-0.3,-0.009,-0.957,-0.244,58192
-0.3,-0.012,-0.957,-0.366,58196
-0.3,-0.012,-0.957,-0.366,58200
-0.302,-0.011,-0.956,-0.366,58204
-0.302,-0.011,-0.956,-0.305,58208
-0.303,-0.014,-0.955,-0.488,58212
-0.303,-0.014,-0.955,-0.488,58216
-0.303,-0.014,-0.955,-0.488,58220
-0.304,-0.014,-0.954,-0.244,58224
-0.304,-0.014,-0.954,-0.305,58228
-0.303,-0.015,-0.953,-0.305,58232
-0.303,-0.015,-0.953,-0.305,58237
-0.303,-0.015,-0.953,-0.244,58241
-0.305,-0.015,-0.953,-0.244,58245
-0.305,-0.015,-0.953,-0.305,58249
-0.303,-0.015,-0.954,-0.244,58253
-0.303,-0.015,-0.954,-0.244,58257
-0.303,-0.015,-0.954,-0.244,58261
-0.303,-0.014,-0.956,-0.183,58265
-0.303,-0.014,-0.956,-0.244,58269
-0.303,-0.013,-0.956,-0.244,58273
-0.303,-0.013,-0.956,-0.122,58277
-0.303,-0.013,-0.956,-0.122,58281
-0.302,-0.011,-0.955,-0.183,58285
-0.302,-0.011,-0.955,-0.122,58289
-0.302,-0.01,-0.955,-0.122,58293
-0.302,-0.01,-0.955,-0.122,58297
-0.302,-0.01,-0.955,-0.122,58301
-0.302,-0.009,-0.956,-0.305,58305
-0.302,-0.009,-0.956,-0.122,58309
-0.301,-0.009,-0.955,-0.122,58313
-0.301,-0.009,-0.955,-0.244,58317
-0.301,-0.009,-0.955,-0.244,58321
-0.301,-0.008,-0.956,-0.366,58325
-0.301,-0.008,-0.956,-0.244,58329
-0.3,-0.006,-0.956,-0.061,58333
-0.3,-0.006,-0.956,-0.061,58337
-0.3,-0.006,-0.956,-0.061,58341
-0.299,-0.005,-0.958,-0.183,58345
-0.299,-0.005,-0.958,-0.183,58349
-0.298,-0.003,-0.958,-0.244,58353
-0.298,-0.003,-0.958,-0.183,58357
-0.294,-0.005,-0.959,-0.122,58361
-0.294,-0.005,-0.959,-0.122,58365
-0.294,-0.005,-0.959,-0.061,58369
-0.293,-0.003,-0.962,0.0,58373
-0.293,-0.003,-0.962,-0.122,58377
-0.293,-0.002,-0.963,-0.183,58381
-0.293,-0.002,-0.963,-0.183,58385
-0.293,-0.002,-0.963,-0.061,58389
-0.292,-0.003,-0.962,-0.061,58393
-0.292,-0.003,-0.962,-0.122,58397
-0.29,-0.002,-0.965,-0.305,58401
-0.29,-0.002,-0.965,-0.305,58405
-0.29,-0.002,-0.965,-0.305,58409
-0.292,-0.003,-0.964,-0.183,58413
-0.292,-0.003,-0.964,-0.244,58417
-0.292,-0.003,-0.962,-0.244,58422
-0.292,-0.003,-0.962,-0.244,58426
-0.292,-0.003,-0.962,-0.244,58430
-0.29,-0.004,-0.962,-0.244,58434
-0.29,-0.004,-0.962,-0.183,58438
-0.291,-0.002,-0.962,-0.122,58442
-0.291,-0.002,-0.962,-0.183,58446
-0.291,-0.002,-0.962,-0.183,58450
-0.293,-0.003,-0.963,-0.183,58454
-0.293,-0.003,-0.963,-0.366,58458
-0.293,-0.006,-0.962,-0.244,58462
-0.293,-0.006,-0.962,-0.305,58466
-0.293,-0.006,-0.962,-0.305,58470
-0.292,-0.007,-0.961,-0.366,58474
-0.292,-0.007,-0.961,-0.366,58478
-0.294,-0.008,-0.96,-0.427,58482
-0.294,-0.008,-0.96,-0.244,58486
-0.294,-0.008,-0.96,-0.244,58490
-0.296,-0.008,-0.959,-0.366,58494
-0.296,-0.008,-0.959,-0.366,58498
-0.299,-0.011,-0.959,-0.305,58502
-0.299,-0.011,-0.959,-0.305,58506
-0.299,-0.012,-0.958,-0.305,58510
-0.299,-0.012,-0.958,-0.305,58514
-0.299,-0.012,-0.958,-0.244,58518
-0.299,-0.011,-0.956,-0.366,58522
-0.299,-0.011,-0.956,-0.488,58526
-0.3,-0.01,-0.956,-0.427,58530
-0.3,-0.01,-0.956,-0.427,58534
-0.3,-0.01,-0.956,-0.305,58538
-0.303,-0.012,-0.956,-0.122,58542
-0.303,-0.012,-0.956,-0.305,58546
-0.303,-0.013,-0.956,-0.305,58550
-0.303,-0.013,-0.956,-0.305,58554
-0.303,-0.013,-0.956,-0.183,58558
-0.304,-0.012,-0.955,-0.244,58562
-0.304,-0.012,-0.955,-0.305,58566
-0.306,-0.014,-0.953,-0.244,58570
-0.306,-0.014,-0.953,-0.244,58574
-0.306,-0.014,-0.953,-0.244,58578
-0.305,-0.013,-0.954,-0.061,58583
-0.305,-0.013,-0.954,-0.183,58587
-0.307,-0.012,-0.954,-0.183,58591
-0.307,-0.012,-0.954,-0.183,58595
-0.307,-0.012,-0.954,-0.183,58599
-0.308,-0.012,-0.954,-0.244,58603
-0.308,-0.012,-0.954,-0.244,58607
-0.305,-0.012,-0.955,-0.122,58611
-0.305,-0.012,-0.955,-0.122,58615
-0.305,-0.012,-0.955,-0.122,58619
-0.302,-0.01,-0.955,-0.244,58623
-0.302,-0.01,-0.955,-0.366,58627
-0.303,-0.01,-0.956,-0.244,58631
-0.303,-0.01,-0.956,-0.122,58635
-0.301,-0.01,-0.957,-0.183,58639
-0.301,-0.01,-0.957,-0.183,58643
-0.301,-0.01,-0.957,-0.183,58647
-0.3,-0.009,-0.957,-0.122,58651
-0.3,-0.009,-0.957,-0.061,58655
-0.299,-0.009,-0.958,-0.122,58659
-0.299,-0.009,-0.958,-0.122,58663
-0.299,-0.009,-0.958,-0.244,58667
-0.296,-0.007,-0.959,-0.122,58671
-0.296,-0.007,-0.959,-0.183,58675
-0.294,-0.007,-0.96,-0.244,58679
-0.294,-0.007,-0.96,-0.244,58683
-0.294,-0.007,-0.96,-0.244,58687
-0.294,-0.006,-0.961,-0.122,58691
-0.294,-0.006,-0.961,-0.122,58695
-0.292,-0.006,-0.962,-0.183,58699
-0.292,-0.006,-0.962,-0.366,58703
-0.292,-0.006,-0.962,-0.366,58707
-0.293,-0.005,-0.961,-0.183,58711
-0.293,-0.005,-0.961,-0.122,58715
-0.292,-0.005,-0.962,-0.122,58719
-0.292,-0.005,-0.962,-0.244,58723
-0.292,-0.005,-0.962,-0.244,58727
-0.292,-0.007,-0.963,-0.244,58731
-0.292,-0.007,-0.963,-0.122,58735
-0.291,-0.005,-0.963,-0.122,58739
-0.291,-0.005,-0.963,-0.183,58744
-0.291,-0.005,-0.963,-0.183,58748
-0.29,-0.003,-0.963,-0.183,58752
-0.29,-0.003,-0.963,-0.305,58756
-0.289,-0.003,-0.962,-0.305,58760
-0.289,-0.003,-0.962,-0.183,58764
-0.29,-0.004,-0.963,-0.305,58768
-0.29,-0.004,-0.963,-0.305,58772
-0.29,-0.004,-0.963,-0.244,58776
-0.292,-0.004,-0.964,-0.305,58780
-0.292,-0.004,-0.964,-0.305,58784
-0.293,-0.004,-0.961,-0.427,58788
-0.293,-0.004,-0.961,-0.427,58792
-0.293,-0.004,-0.961,-0.366,58796
-0.293,-0.006,-0.96,-0.244,58800
-0.293,-0.006,-0.96,-0.366,58804
-0.295,-0.007,-0.96,-0.305,58808
-0.295,-0.007,-0.96,-0.305,58812
-0.295,-0.007,-0.96,-0.366,58816
-0.296,-0.008,-0.959,-0.183,58820
-0.296,-0.008,-0.959,-0.244,58824
-0.3,-0.009,-0.958,-0.305,58828
-0.3,-0.009,-0.958,-0.305,58832
-0.3,-0.009,-0.958,-0.244,58836
-0.301,-0.008,-0.957,-0.305,58840
-0.301,-0.008,-0.957,-0.305,58844
-0.302,-0.01,-0.955,-0.244,58848
-0.302,-0.01,-0.955,-0.183,58852
-0.302,-0.01,-0.955,-0.183,58856
-0.303,-0.012,-0.955,-0.244,58860
-0.303,-0.012,-0.955,-0.244,58864
-0.303,-0.011,-0.956,-0.366,58868
-0.303,-0.011,-0.956,-0.244,58872
-0.303,-0.011,-0.956,-0.244,58876
-0.305,-0.01,-0.956,-0.244,58880
-0.305,-0.01,-0.956,-0.366,58884
-0.304,-0.01,-0.955,-0.366,58888
-0.304,-0.01,-0.955,-0.305,58892
-0.304,-0.01,-0.955,-0.305,58896
-0.305,-0.011,-0.955,-0.183,58900
-0.305,-0.011,-0.955,-0.183,58904
-0.304,-0.012,-0.953,-0.244,58909
-0.304,-0.012,-0.953,-0.244,58913
-0.305,-0.011,-0.954,-0.244,58917
-0.305,-0.011,-0.954,-0.244,58921
-0.305,-0.011,-0.954,-0.366,58925
-0.305,-0.012,-0.955,-0.183,58929
-0.305,-0.012,-0.955,-0.183,58933
-0.304,-0.013,-0.957,-0.183,58937
-0.304,-0.013,-0.957,-0.183,58941
-0.304,-0.013,-0.957,-0.122,58945
-0.304,-0.012,-0.955,-0.183,58949
-0.304,-0.012,-0.955,-0.061,58953
-0.302,-0.012,-0.955,-0.061,58957
-0.302,-0.012,-0.955,-0.061,58961
-0.302,-0.012,-0.955,-0.183,58965
-0.3,-0.012,-0.957,-0.183,58969
-0.3,-0.012,-0.957,-0.061,58973
-0.3,-0.009,-0.958,-0.061,58977
-0.3,-0.009,-0.958,-0.122,58981
-0.3,-0.009,-0.958,-0.122,58985
-0.297,-0.009,-0.958,-0.183,58989
-0.297,-0.009,-0.958,0.0,58993
-0.297,-0.008,-0.96,-0.061,58997
-0.297,-0.008,-0.96,-0.061,59001
-0.297,-0.008,-0.96,-0.061,59005
-0.295,-0.007,-0.961,-0.061,59009
-0.295,-0.007,-0.961,-0.122,59013
-0.292,-0.005,-0.962,-0.061,59017
-0.292,-0.005,-0.962,-0.122,59021
-0.292,-0.005,-0.962,-0.122,59025
-0.293,-0.005,-0.959,-0.183,59029
-0.293,-0.005,-0.959,-0.122,59033
-0.292,-0.005,-0.959,-0.183,59037
-0.292,-0.005,-0.959,-0.244,59041
-0.292,-0.005,-0.959,-0.244,59045
-0.291,-0.005,-0.962,-0.122,59049
-0.291,-0.005,-0.962,-0.183,59053
-0.291,-0.003,-0.962,-0.305,59057
-0.291,-0.003,-0.962,-0.305,59061
-0.29,-0.001,-0.962,-0.244,59065
-0.29,-0.001,-0.962,-0.244,59069
-0.29,-0.001,-0.962,-0.305,59073
-0.292,-0.001,-0.961,-0.366,59077
-0.292,-0.001,-0.961,-0.244,59082
-0.293,-0.004,-0.961,-0.244,59086
-0.293,-0.004,-0.961,-0.244,59090
-0.293,-0.004,-0.961,-0.305,59094
-0.292,-0.003,-0.962,-0.183,59098
-0.292,-0.003,-0.962,-0.244,59102
-0.294,-0.004,-0.962,-0.305,59106
-0.294,-0.004,-0.962,-0.305,59110
-0.294,-0.004,-0.962,-0.244,59114
-0.293,-0.004,-0.961,-0.183,59118
-0.293,-0.004,-0.961,-0.183,59122
-0.297,-0.004,-0.961,-0.183,59126
-0.297,-0.004,-0.961,-0.183,59130
-0.297,-0.004,-0.961,-0.183,59134
-0.297,-0.005,-0.96,-0.305,59138
-0.297,-0.005,-0.96,-0.244,59142
-0.299,-0.007,-0.958,-0.244,59146
-0.299,-0.007,-0.958,-0.305,59150
-0.299,-0.007,-0.958,-0.305,59154
-0.299,-0.007,-0.958,-0.305,59158
-0.299,-0.007,-0.958,-0.305,59162
-0.299,-0.008,-0.958,-0.305,59166
-0.299,-0.008,-0.958,-0.244,59170
-0.299,-0.008,-0.958,-0.244,59174
-0.301,-0.009,-0.957,-0.244,59178
-0.301,-0.009,-0.957,-0.244,59182
-0.302,-0.011,-0.955,-0.183,59186
-0.302,-0.011,-0.955,-0.305,59190
-0.302,-0.011,-0.955,-0.305,59194
-0.303,-0.013,-0.956,-0.244,59198
-0.303,-0.013,-0.956,-0.122,59202
-0.304,-0.012,-0.954,-0.183,59206
-0.304,-0.012,-0.954,-0.122,59210
-0.303,-0.013,-0.955,-0.122,59214
-0.303,-0.013,-0.955,-0.122,59218
-0.303,-0.013,-0.955,-0.122,59222
-0.304,-0.014,-0.953,-0.183,59226
-0.304,-0.014,-0.953,-0.305,59230
-0.306,-0.013,-0.955,-0.305,59234
-0.306,-0.013,-0.955,-0.305,59238
-0.306,-0.013,-0.955,-0.122,59242
-0.305,-0.013,-0.955,-0.122,59246
-0.305,-0.013,-0.955,-0.122,59250
-0.303,-0.012,-0.954,-0.305,59255
-0.303,-0.012,-0.954,-0.305,59259
-0.303,-0.012,-0.954,-0.244,59263
-0.303,-0.012,-0.955,-0.305,59267
-0.303,-0.012,-0.955,-0.244,59271
-0.303,-0.011,-0.957,-0.183,59275
-0.303,-0.011,-0.957,-0.244,59279
-0.303,-0.011,-0.957,-0.244,59283
-0.3,-0.012,-0.957,-0.183,59287
-0.3,-0.012,-0.957,-0.305,59291
-0.3,-0.013,-0.957,-0.122,59295
-0.3,-0.013,-0.957,-0.122,59299
-0.3,-0.013,-0.957,-0.122,59303
-0.3,-0.01,-0.957,-0.122,59307
-0.3,-0.01,-0.957,-0.122,59311
-0.297,-0.007,-0.959,-0.244,59315
-0.297,-0.007,-0.959,-0.244,59319
-0.297,-0.007,-0.959,-0.244,59323
-0.296,-0.007,-0.959,-0.244,59327
-0.296,-0.007,-0.959,-0.122,59331
-0.296,-0.004,-0.96,-0.183,59335
-0.296,-0.004,-0.96,-0.122,59339
-0.297,-0.005,-0.96,-0.122,59343
-0.297,-0.005,-0.96,-0.122,59347
-0.297,-0.005,-0.96,-0.244,59351
-0.296,-0.005,-0.962,-0.183,59355
-0.296,-0.005,-0.962,-0.183,59359
-0.294,-0.003,-0.963,-0.122,59363
-0.294,-0.003,-0.963,-0.122,59367
-0.294,-0.003,-0.963,-0.061,59371
-0.293,-0.004,-0.962,-0.244,59375
-0.293,-0.004,-0.962,-0.244,59379
-0.294,-0.003,-0.962,-0.183,59383
-0.294,-0.003,-0.962,-0.183,59387
-0.294,-0.003,-0.962,-0.061,59391
-0.293,-0.003,-0.961,-0.366,59395
-0.293,-0.003,-0.961,-0.305,59399
-0.291,-0.003,-0.962,-0.244,59403
-0.291,-0.003,-0.962,-0.244,59407
-0.291,-0.003,-0.962,-0.305,59411
-0.293,-0.002,-0.963,-0.244,59415
-0.293,-0.002,-0.963,-0.244,59419
-0.294,-0.004,-0.962,-0.244,59424
-0.294,-0.004,-0.962,-0.244,59428
-0.294,-0.004,-0.962,-0.244,59432
-0.293,-0.006,-0.962,-0.305,59436
-0.293,-0.006,-0.962,-0.183,59440
-0.296,-0.005,-0.962,-0.305,59444
-0.296,-0.005,-0.962,-0.427,59448
-0.296,-0.005,-0.962,-0.427,59452
-0.296,-0.008,-0.961,-0.244,59456
-0.296,-0.008,-0.961,-0.183,59460
-0.297,-0.008,-0.961,-0.122,59464
-0.297,-0.008,-0.961,-0.244,59468
-0.297,-0.008,-0.961,-0.244,59472
-0.298,-0.01,-0.958,-0.122,59476
-0.298,-0.01,-0.958,-0.183,59480
-0.298,-0.01,-0.958,-0.305,59484
-0.298,-0.01,-0.958,-0.366,59488
-0.298,-0.009,-0.959,-0.427,59492
-0.298,-0.009,-0.959,-0.427,59496
-0.298,-0.009,-0.959,-0.305,59500
-0.301,-0.01,-0.955,-0.183,59504
-0.301,-0.01,-0.955,-0.122,59508
-0.302,-0.011,-0.957,-0.244,59512
-0.302,-0.011,-0.957,-0.244,59516
-0.302,-0.011,-0.957,-0.244,59520
-0.303,-0.012,-0.958,-0.183,59524
-0.303,-0.012,-0.958,-0.183,59528
-0.303,-0.012,-0.956,-0.183,59532
-0.303,-0.012,-0.956,-0.183,59536
-0.303,-0.012,-0.956,-0.305,59540
-0.302,-0.013,-0.955,-0.305,59544
-0.302,-0.013,-0.955,-0.183,59548
-0.304,-0.012,-0.957,-0.305,59552
-0.304,-0.012,-0.957,-0.244,59556
-0.304,-0.012,-0.957,-0.244,59560
-0.305,-0.011,-0.957,-0.244,59564
-0.305,-0.011,-0.957,-0.244,59568
-0.303,-0.012,-0.957,0.0,59572
-0.303,-0.012,-0.957,-0.122,59576
-0.303,-0.012,-0.957,-0.122,59580
-0.302,-0.011,-0.956,-0.061,59584
-0.302,-0.011,-0.956,-0.122,59588
-0.303,-0.01,-0.955,-0.122,59592
-0.303,-0.01,-0.955,-0.122,59597
-0.303,-0.01,-0.955,-0.122,59601
-0.303,-0.009,-0.955,-0.183,59605
-0.303,-0.009,-0.955,-0.122,59609
-0.301,-0.01,-0.957,-0.183,59613
-0.301,-0.01,-0.957,-0.183,59617
-0.3,-0.009,-0.958,-0.122,59621
-0.3,-0.009,-0.958,-0.122,59625
-0.3,-0.009,-0.958,-0.183,59629
-0.298,-0.007,-0.958,-0.183,59633
-0.298,-0.007,-0.958,-0.122,59637
-0.298,-0.006,-0.957,-0.183,59641
-0.298,-0.006,-0.957,-0.183,59645
-0.298,-0.006,-0.957,-0.244,59649
-0.298,-0.008,-0.96,-0.122,59653
-0.298,-0.008,-0.96,-0.122,59657
-0.297,-0.006,-0.959,-0.122,59661
-0.297,-0.006,-0.959,-0.122,59665
-0.297,-0.006,-0.959,-0.122,59669
-0.295,-0.004,-0.96,-0.183,59673
-0.295,-0.004,-0.96,-0.061,59677
-0.294,-0.006,-0.96,-0.061,59681
-0.294,-0.006,-0.96,-0.061,59685
-0.294,-0.006,-0.96,-0.122,59689
-0.293,-0.006,-0.96,-0.183,59693
-0.293,-0.006,-0.96,-0.183,59697
-0.291,-0.005,-0.96,-0.244,59701
-0.291,-0.005,-0.96,-0.183,59705
-0.291,-0.005,-0.96,-0.183,59709
-0.291,-0.006,-0.961,-0.122,59713
-0.291,-0.006,-0.961,-0.244,59717
-0.292,-0.005,-0.963,-0.305,59721
-0.292,-0.005,-0.963,-0.244,59725
-0.292,-0.005,-0.963,-0.244,59729
-0.293,-0.005,-0.962,-0.244,59733
-0.293,-0.005,-0.962,-0.183,59737
-0.292,-0.006,-0.962,-0.122,59741
-0.292,-0.006,-0.962,-0.122,59745
-0.292,-0.006,-0.962,-0.122,59749
-0.295,-0.005,-0.96,-0.061,59753
-0.295,-0.005,-0.96,-0.122,59757
-0.295,-0.005,-0.959,-0.122,59761
-0.295,-0.005,-0.959,-0.183,59766
-0.296,-0.007,-0.96,-0.366,59770
-0.296,-0.007,-0.96,-0.366,59774
-0.296,-0.007,-0.96,-0.183,59778
-0.295,-0.007,-0.959,0.0,59782
-0.295,-0.007,-0.959,-0.183,59786
-0.296,-0.007,-0.959,-0.366,59790
-0.296,-0.007,-0.959,-0.366,59794
-0.296,-0.007,-0.959,-0.244,59798
-0.299,-0.007,-0.958,-0.244,59802
-0.299,-0.007,-0.958,-0.244,59806
-0.3,-0.009,-0.957,-0.183,59810
-0.3,-0.009,-0.957,-0.183,59814
-0.3,-0.009,-0.957,-0.305,59818
-0.3,-0.01,-0.958,-0.305,59822
-0.3,-0.01,-0.958,-0.244,59826
-0.301,-0.009,-0.956,-0.183,59830
-0.301,-0.009,-0.956,-0.183,59834
-0.301,-0.009,-0.956,-0.183,59838
-0.302,-0.01,-0.956,-0.244,59842
-0.302,-0.01,-0.956,-0.305,59846
-0.302,-0.01,-0.954,-0.366,59850
-0.302,-0.01,-0.954,-0.305,59854
-0.302,-0.01,-0.954,-0.305,59858
-0.303,-0.01,-0.956,-0.305,59862
-0.303,-0.01,-0.956,-0.183,59866
-0.304,-0.011,-0.954,0.0,59870
-0.304,-0.011,-0.954,-0.061,59874
-0.304,-0.011,-0.954,-0.061,59878
-0.303,-0.011,-0.955,-0.183,59882
-0.303,-0.011,-0.955,-0.122,59886
-0.303,-0.01,-0.955,-0.183,59890
-0.303,-0.01,-0.955,-0.122,59894
-0.303,-0.01,-0.955,-0.122,59898
-0.303,-0.011,-0.955,-0.183,59902
-0.303,-0.011,-0.955,-0.122,59906
-0.305,-0.011,-0.956,-0.244,59910
-0.305,-0.011,-0.956,-0.122,59914
-0.304,-0.011,-0.955,-0.061,59918
-0.304,-0.011,-0.955,-0.061,59922
-0.304,-0.011,-0.955,-0.122,59926
-0.303,-0.01,-0.956,-0.122,59930
-0.303,-0.01,-0.956,-0.183,59934
-0.3,-0.01,-0.957,-0.244,59938
-0.3,-0.01,-0.957,-0.244,59942
-0.3,-0.01,-0.957,0.061,59946
-0.296,-0.01,-0.959,-0.122,59950
-0.296,-0.01,-0.959,-0.244,59954
-0.298,-0.008,-0.959,-0.183,59959
-0.298,-0.008,-0.959,-0.183,59963
-0.298,-0.008,-0.959,-0.183,59967
-0.296,-0.01,-0.959,-0.305,59971
-0.296,-0.01,-0.959,-0.061,59975
-0.294,-0.007,-0.958,-0.061,59979
-0.294,-0.007,-0.958,-0.061,59983
-0.294,-0.007,-0.958,-0.122,59987
-0.294,-0.007,-0.959,-0.061,59991
-0.294,-0.007,-0.959,-0.122,59995
-0.295,-0.007,-0.962,-0.244,59999
-0.295,-0.007,-0.962,-0.305,60003
-0.295,-0.007,-0.962,-0.305,60007
-0.294,-0.006,-0.962,-0.122,60011
-0.294,-0.006,-0.962,0.0,60015
-0.293,-0.006,-0.962,0.0,60019
-0.293,-0.006,-0.962,-0.244,60023
-0.293,-0.006,-0.962,-0.244,60027
-0.292,-0.005,-0.961,-0.183,60031
-0.292,-0.005,-0.961,-0.183,60035
-0.294,-0.005,-0.963,-0.244,60039
-0.294,-0.005,-0.963,-0.244,60043
-0.294,-0.005,-0.963,-0.244,60047
-0.292,-0.004,-0.963,-0.183,60051
-0.292,-0.004,-0.963,-0.183,60055
-0.292,-0.003,-0.962,-0.244,60059
-0.292,-0.003,-0.962,-0.183,60063
-0.293,-0.005,-0.96,-0.244,60067
-0.293,-0.005,-0.96,-0.244,60071
-0.293,-0.005,-0.96,-0.244,60075
-0.294,-0.004,-0.961,-0.305,60079
-0.294,-0.004,-0.961,-0.183,60083
-0.295,-0.005,-0.959,-0.366,60087
-0.295,-0.005,-0.959,-0.366,60091
-0.295,-0.005,-0.959,-0.244,60095
-0.297,-0.006,-0.96,-0.305,60099
-0.297,-0.006,-0.96,-0.305,60103
-0.297,-0.004,-0.959,-0.244,60107
-0.297,-0.004,-0.959,-0.244,60111
-0.297,-0.004,-0.959,-0.183,60115
-0.299,-0.006,-0.958,-0.305,60119
-0.299,-0.006,-0.958,-0.488,60123
-0.3,-0.006,-0.958,-0.244,60127
-0.3,-0.006,-0.958,-0.244,60131
-0.3,-0.006,-0.958,-0.244,60135
-0.3,-0.008,-0.957,-0.183,60139
-0.3,-0.008,-0.957,-0.305,60143
-0.303,-0.011,-0.957,-0.305,60147
-0.303,-0.011,-0.957,-0.305,60151
-0.303,-0.011,-0.957,-0.305,60156
-0.302,-0.011,-0.955,-0.366,60160
-0.302,-0.011,-0.955,-0.244,60164
-0.303,-0.012,-0.956,-0.244,60168
-0.303,-0.012,-0.956,-0.305,60172
-0.303,-0.012,-0.956,-0.305,60176
-0.303,-0.012,-0.955,-0.183,60180
-0.303,-0.012,-0.955,-0.244,60184
-0.303,-0.012,-0.955,-0.244,60188
-0.303,-0.012,-0.955,-0.122,60192
-0.303,-0.012,-0.955,-0.122,60196
-0.303,-0.011,-0.956,-0.122,60200
-0.303,-0.011,-0.956,-0.244,60204
-0.303,-0.011,-0.956,-0.305,60208
-0.303,-0.011,-0.956,-0.244,60212
-0.302,-0.013,-0.956,-0.183,60216
-0.302,-0.013,-0.956,-0.183,60220
-0.302,-0.013,-0.956,0.061,60224
-0.301,-0.012,-0.956,-0.183,60228
-0.301,-0.012,-0.956,-0.305,60232
-0.302,-0.012,-0.956,-0.183,60236
-0.302,-0.012,-0.956,-0.183,60240
-0.302,-0.012,-0.956,-0.183,60244
-0.3,-0.01,-0.957,-0.122,60248
-0.3,-0.01,-0.957,-0.122,60252
-0.3,-0.009,-0.957,-0.183,60256
-0.3,-0.009,-0.957,-0.183,60260
-0.3,-0.009,-0.957,-0.122,60264
-0.301,-0.01,-0.958,-0.122,60268
-0.301,-0.01,-0.958,-0.183,60272
-0.298,-0.01,-0.958,-0.183,60276
-0.298,-0.01,-0.958,-0.183,60280
-0.298,-0.01,-0.958,-0.061,60284
-0.297,-0.007,-0.96,-0.183,60288
-0.297,-0.007,-0.96,-0.183,60292
-0.297,-0.006,-0.958,-0.122,60296
-0.297,-0.006,-0.958,-0.183,60300
-0.297,-0.006,-0.958,-0.183,60304
-0.296,-0.007,-0.959,-0.183,60308
-0.296,-0.007,-0.959,-0.244,60312
-0.294,-0.006,-0.964,-0.183,60316
-0.294,-0.006,-0.964,-0.061,60320
-0.294,-0.006,-0.964,-0.061,60324
-0.294,-0.004,-0.962,-0.244,60329
-0.294,-0.004,-0.962,-0.244,60333
-0.294,-0.004,-0.961,-0.183,60337
-0.294,-0.004,-0.961,-0.244,60341
-0.294,-0.004,-0.961,-0.244,60345
-0.293,-0.006,-0.96,-0.244,60349
-0.293,-0.006,-0.96,-0.244,60353
-0.293,-0.005,-0.962,-0.183,60357
-0.293,-0.005,-0.962,-0.122,60361
-0.292,-0.005,-0.963,-0.183,60365
-0.292,-0.005,-0.963,-0.183,60369
-0.292,-0.005,-0.963,-0.183,60373
-0.292,-0.003,-0.961,-0.244,60377
-0.292,-0.003,-0.961,-0.244,60381
-0.292,-0.005,-0.961,-0.244,60385
-0.292,-0.005,-0.961,-0.244,60389
-0.292,-0.005,-0.961,-0.244,60393
-0.295,-0.003,-0.961,-0.244,60397
-0.295,-0.003,-0.961,-0.122,60401
-0.294,-0.004,-0.96,-0.244,60405
-0.294,-0.004,-0.96,-0.244,60409
-0.294,-0.004,-0.96,-0.061,60413
-0.295,-0.007,-0.96,-0.183,60417
-0.295,-0.007,-0.96,-0.244,60421
-0.296,-0.007,-0.96,-0.305,60425
-0.296,-0.007,-0.96,-0.366,60429
-0.296,-0.007,-0.96,-0.366,60433
-0.297,-0.007,-0.958,-0.427,60437
-0.297,-0.007,-0.958,-0.427,60441
-0.299,-0.01,-0.958,-0.366,60445
-0.299,-0.01,-0.958,-0.427,60449
-0.299,-0.01,-0.958,-0.427,60453
-0.299,-0.01,-0.957,-0.366,60457
-0.299,-0.01,-0.957,-0.305,60461
-0.3,-0.01,-0.957,-0.244,60465
-0.3,-0.01,-0.957,-0.305,60469
-0.3,-0.01,-0.957,-0.305,60473
-0.299,-0.011,-0.958,-0.366,60477
-0.299,-0.011,-0.958,-0.305,60481
-0.302,-0.011,-0.956,-0.244,60485
-0.302,-0.011,-0.956,-0.122,60490
-0.302,-0.011,-0.956,-0.122,60494
-0.303,-0.013,-0.956,-0.122,60498
-0.303,-0.013,-0.956,-0.183,60502
-0.302,-0.011,-0.956,-0.366,60506
-0.302,-0.011,-0.956,-0.427,60510
-0.304,-0.012,-0.956,-0.244,60514
-0.304,-0.012,-0.956,-0.244,60518
-0.304,-0.012,-0.956,-0.183,60522
-0.303,-0.012,-0.956,-0.183,60526
-0.303,-0.012,-0.956,-0.244,60530
-0.304,-0.012,-0.956,-0.183,60534
-0.304,-0.012,-0.956,-0.183,60538
-0.304,-0.012,-0.956,-0.244,60542
-0.304,-0.011,-0.954,-0.244,60546
-0.304,-0.011,-0.954,-0.183,60550
-0.302,-0.012,-0.956,-0.183,60554
-0.302,-0.012,-0.956,-0.183,60558
-0.302,-0.012,-0.956,-0.122,60562
-0.303,-0.012,-0.957,-0.122,60566
-0.303,-0.012,-0.957,-0.244,60570
-0.302,-0.011,-0.957,-0.244,60574
-0.302,-0.011,-0.957,-0.183,60578
-0.302,-0.011,-0.957,-0.183,60582
-0.3,-0.008,-0.958,-0.061,60586
-0.3,-0.008,-0.958,-0.122,60590
-0.298,-0.007,-0.958,-0.122,60594
-0.298,-0.007,-0.958,-0.244,60598
-0.298,-0.007,-0.958,-0.244,60602
-0.298,-0.007,-0.96,-0.183,60606
-0.298,-0.007,-0.96,-0.244,60610
-0.295,-0.007,-0.96,0.0,60614
-0.295,-0.007,-0.96,-0.183,60618
-0.295,-0.007,-0.96,-0.183,60622
-0.295,-0.006,-0.959,-0.122,60626
-0.295,-0.006,-0.959,-0.183,60630
-0.296,-0.006,-0.961,-0.244,60634
-0.296,-0.006,-0.961,-0.183,60638
-0.295,-0.005,-0.961,-0.061,60642
-0.295,-0.005,-0.961,-0.061,60646
-0.295,-0.005,-0.961,-0.122,60650
-0.293,-0.006,-0.961,-0.122,60655
-0.293,-0.006,-0.961,-0.122,60659
-0.292,-0.006,-0.962,-0.061,60663
-0.292,-0.006,-0.962,-0.061,60667
-0.292,-0.006,-0.962,-0.183,60671
-0.293,-0.005,-0.96,-0.244,60675
-0.293,-0.005,-0.96,-0.183,60679
-0.294,-0.006,-0.962,-0.183,60683
-0.294,-0.006,-0.962,-0.183,60687
-0.294,-0.006,-0.962,-0.244,60691
-0.293,-0.006,-0.96,-0.183,60695
-0.293,-0.006,-0.96,-0.122,60699
-0.294,-0.006,-0.961,-0.061,60703
-0.294,-0.006,-0.961,-0.183,60707
-0.294,-0.006,-0.961,-0.183,60711
-0.293,-0.006,-0.961,-0.244,60715
-0.293,-0.006,-0.961,-0.366,60719
-0.292,-0.006,-0.961,-0.244,60723
-0.292,-0.006,-0.961,-0.305,60727
-0.292,-0.006,-0.961,-0.305,60731
-0.296,-0.007,-0.96,-0.305,60735
-0.296,-0.007,-0.96,-0.366,60739
-0.296,-0.006,-0.96,-0.244,60743
-0.296,-0.006,-0.96,-0.305,60747
-0.296,-0.006,-0.96,-0.305,60751
-0.298,-0.008,-0.959,-0.244,60755
-0.298,-0.008,-0.959,-0.305,60759
-0.299,-0.01,-0.959,-0.244,60763
-0.299,-0.01,-0.959,-0.183,60767
-0.299,-0.01,-0.959,-0.183,60771
-0.299,-0.009,-0.958,-0.183,60775
-0.299,-0.009,-0.958,-0.305,60779
-0.299,-0.009,-0.957,-0.305,60783
-0.299,-0.009,-0.957,-0.305,60787
-0.301,-0.01,-0.957,-0.305,60791
-0.301,-0.01,-0.957,-0.305,60795
-0.301,-0.01,-0.957,-0.183,60799
-0.303,-0.01,-0.956,-0.244,60803
-0.303,-0.01,-0.956,-0.244,60807
-0.303,-0.009,-0.955,-0.244,60811
-0.303,-0.009,-0.955,-0.244,60815
-0.303,-0.009,-0.955,-0.183,60819
-0.302,-0.009,-0.955,-0.244,60823
-0.302,-0.009,-0.955,-0.305,60827
-0.302,-0.01,-0.956,-0.244,60831
-0.302,-0.01,-0.956,-0.244,60835
-0.302,-0.01,-0.956,-0.305,60840
-0.302,-0.012,-0.956,-0.244,60844
-0.302,-0.012,-0.956,-0.183,60848
-0.302,-0.01,-0.957,-0.305,60852
-0.302,-0.01,-0.957,-0.366,60856
-0.302,-0.01,-0.957,-0.366,60860
-0.303,-0.011,-0.957,-0.183,60864
-0.303,-0.011,-0.957,-0.122,60868
-0.301,-0.011,-0.956,-0.183,60872
-0.301,-0.011,-0.956,-0.244,60876
-0.301,-0.011,-0.956,-0.244,60880
-0.302,-0.01,-0.958,-0.305,60884
-0.302,-0.01,-0.958,-0.122,60888
-0.301,-0.01,-0.957,-0.122,60892
-0.301,-0.01,-0.957,-0.061,60896
-0.301,-0.01,-0.957,-0.061,60900
-0.3,-0.009,-0.958,-0.061,60904
-0.3,-0.009,-0.958,-0.122,60908
-0.3,-0.01,-0.957,-0.244,60912
-0.3,-0.01,-0.957,-0.244,60916
-0.3,-0.01,-0.957,-0.244,60920
-0.299,-0.009,-0.96,-0.061,60924
-0.299,-0.009,-0.96,-0.244,60928
-0.298,-0.007,-0.959,-0.122,60932
-0.298,-0.007,-0.959,-0.061,60936
-0.297,-0.007,-0.958,-0.183,60940
-0.297,-0.007,-0.958,-0.183,60944
-0.297,-0.007,-0.958,-0.244,60948
-0.295,-0.008,-0.96,-0.122,60952
-0.295,-0.008,-0.96,-0.061,60956
-0.295,-0.007,-0.961,-0.061,60960
-0.295,-0.007,-0.961,-0.061,60964
-0.295,-0.007,-0.961,-0.122,60968
-0.294,-0.007,-0.961,-0.183,60972
-0.294,-0.007,-0.961,-0.122,60976
-0.294,-0.006,-0.962,-0.244,60980
-0.294,-0.006,-0.962,-0.244,60984
-0.294,-0.006,-0.962,-0.244,60988
-0.293,-0.006,-0.961,-0.366,60992
-0.293,-0.006,-0.961,-0.427,60996
-0.293,-0.006,-0.96,-0.366,61000
-0.293,-0.006,-0.96,-0.183,61004
-0.293,-0.006,-0.96,-0.183,61008
-0.294,-0.006,-0.962,-0.305,61012
-0.294,-0.006,-0.962,-0.122,61016
-0.295,-0.006,-0.96,0.0,61020
-0.295,-0.006,-0.96,-0.305,61024
-0.295,-0.006,-0.96,-0.305,61028
-0.294,-0.006,-0.961,-0.305,61032
-0.294,-0.006,-0.961,-0.183,61037
-0.294,-0.004,-0.962,-0.305,61041
-0.294,-0.004,-0.962,-0.305,61045
-0.294,-0.004,-0.962,-0.305,61049
-0.295,-0.006,-0.959,-0.244,61053
-0.295,-0.006,-0.959,-0.305,61057
-0.296,-0.007,-0.958,-0.244,61061
-0.296,-0.007,-0.958,-0.244,61065
-0.296,-0.007,-0.958,-0.244,61069
-0.297,-0.007,-0.958,-0.183,61073
-0.297,-0.007,-0.958,-0.244,61077
-0.298,-0.007,-0.959,-0.427,61081
-0.298,-0.007,-0.959,-0.244,61085
-0.298,-0.008,-0.958,-0.305,61089
-0.298,-0.008,-0.958,-0.305,61093
-0.298,-0.008,-0.958,-0.305,61097
-0.3,-0.008,-0.958,-0.305,61101
-0.3,-0.008,-0.958,-0.244,61105
-0.299,-0.008,-0.958,-0.183,61109
-0.299,-0.008,-0.958,-0.183,61113
-0.299,-0.008,-0.958,-0.305,61117
-0.301,-0.009,-0.955,-0.427,61121
-0.301,-0.009,-0.955,-0.305,61125
-0.301,-0.008,-0.957,-0.366,61129
-0.301,-0.008,-0.957,-0.366,61133
-0.301,-0.008,-0.957,-0.305,61137
-0.302,-0.009,-0.957,-0.244,61141
-0.302,-0.009,-0.957,-0.305,61145
-0.302,-0.011,-0.956,-0.244,61149
-0.302,-0.011,-0.956,-0.183,61153
-0.302,-0.011,-0.956,-0.183,61157
-0.302,-0.011,-0.956,-0.183,61161
-0.302,-0.011,-0.956,-0.183,61165
-0.301,-0.012,-0.956,-0.183,61169
-0.301,-0.012,-0.956,-0.244,61173
-0.301,-0.012,-0.956,-0.244,61177
-0.3,-0.012,-0.957,-0.366,61181
-0.3,-0.012,-0.957,-0.122,61185
-0.302,-0.01,-0.957,-0.122,61189
-0.302,-0.01,-0.957,-0.183,61193
-0.302,-0.01,-0.957,-0.183,61198
-0.301,-0.01,-0.957,-0.061,61202
-0.301,-0.01,-0.957,-0.061,61206
-0.3,-0.011,-0.956,-0.122,61210
-0.3,-0.011,-0.956,-0.244,61214
-0.299,-0.01,-0.958,-0.183,61218
-0.299,-0.01,-0.958,-0.183,61222
-0.299,-0.01,-0.958,-0.061,61226
-0.299,-0.01,-0.958,0.0,61230
-0.299,-0.01,-0.958,-0.183,61234
-0.298,-0.01,-0.959,-0.183,61238
-0.298,-0.01,-0.959,-0.183,61242
-0.298,-0.01,-0.959,-0.122,61246
-0.298,-0.008,-0.958,-0.122,61250
-0.298,-0.008,-0.958,-0.061,61254
-0.298,-0.009,-0.96,-0.183,61258
-0.298,-0.009,-0.96,-0.183,61262
-0.298,-0.009,-0.96,-0.183,61266
-0.297,-0.008,-0.96,-0.183,61270
-0.297,-0.008,-0.96,-0.061,61274
-0.296,-0.006,-0.959,-0.244,61278
-0.296,-0.006,-0.959,-0.244,61282
-0.296,-0.006,-0.959,-0.122,61286
-0.295,-0.007,-0.96,-0.183,61290
-0.295,-0.007,-0.96,-0.122,61294
-0.294,-0.007,-0.959,-0.061,61298
-0.294,-0.007,-0.959,-0.061,61302
-0.294,-0.007,-0.959,-0.061,61306
-0.294,-0.005,-0.959,-0.183,61310
-0.294,-0.005,-0.959,-0.183,61314
-0.294,-0.006,-0.961,-0.244,61318
-0.294,-0.006,-0.961,-0.305,61322
-0.294,-0.006,-0.961,-0.305,61326
-0.294,-0.005,-0.96,-0.244,61330
-0.294,-0.005,-0.96,-0.244,61334
-0.295,-0.005,-0.959,-0.122,61338
-0.295,-0.005,-0.959,-0.122,61342
-0.295,-0.005,-0.959,-0.122,61346
-0.295,-0.005,-0.961,-0.244,61350
-0.295,-0.005,-0.961,-0.305,61354
-0.296,-0.006,-0.961,-0.366,61358
-0.296,-0.006,-0.961,-0.244,61362
-0.295,-0.006,-0.96,-0.244,61367
-0.295,-0.006,-0.96,-0.244,61371
-0.295,-0.006,-0.96,-0.305,61375
-0.295,-0.008,-0.959,-0.305,61379
-0.295,-0.008,-0.959,-0.366,61383
-0.296,-0.007,-0.961,-0.366,61387
-0.296,-0.007,-0.961,-0.366,61391
-0.296,-0.007,-0.961,-0.183,61395
-0.299,-0.007,-0.959,-0.122,61399
-0.299,-0.007,-0.959,-0.122,61403
-0.297,-0.009,-0.959,-0.061,61407
-0.297,-0.009,-0.959,-0.061,61411
-0.297,-0.009,-0.959,-0.305,61415
-0.297,-0.01,-0.957,-0.305,61419
-0.297,-0.01,-0.957,-0.183,61423
-0.3,-0.009,-0.958,-0.244,61427
-0.3,-0.009,-0.958,-0.122,61431
-0.3,-0.009,-0.958,-0.122,61435
-0.299,-0.011,-0.957,-0.183,61439
-0.299,-0.011,-0.957,-0.244,61443
-0.301,-0.011,-0.958,-0.183,61447
-0.301,-0.011,-0.958,-0.244,61451
-0.301,-0.011,-0.958,-0.244,61455
-0.301,-0.01,-0.956,-0.305,61459
-0.301,-0.01,-0.956,-0.183,61463
-0.3,-0.011,-0.956,-0.244,61467
-0.3,-0.011,-0.956,-0.305,61471
-0.3,-0.011,-0.956,-0.305,61475
-0.301,-0.01,-0.957,-0.366,61479
-0.301,-0.01,-0.957,-0.366,61483
-0.301,-0.01,-0.957,-0.244,61487
-0.301,-0.01,-0.957,-0.183,61491
-0.302,-0.011,-0.956,-0.305,61495
-0.302,-0.011,-0.956,-0.305,61499
-0.302,-0.011,-0.956,-0.183,61503
-0.3,-0.011,-0.956,-0.122,61507
-0.3,-0.011,-0.956,-0.122,61511
-0.3,-0.01,-0.956,-0.244,61515
-0.3,-0.01,-0.956,-0.244,61519
-0.3,-0.01,-0.956,-0.244,61523
-0.3,-0.008,-0.957,-0.122,61528
-0.3,-0.008,-0.957,-0.122,61532
-0.301,-0.01,-0.957,-0.183,61536
-0.301,-0.01,-0.957,-0.183,61540
-0.301,-0.01,-0.957,-0.183,61544
-0.301,-0.01,-0.958,-0.183,61548
-0.301,-0.01,-0.958,-0.122,61552
-0.299,-0.007,-0.958,-0.122,61556
-0.299,-0.007,-0.958,-0.122,61560
-0.299,-0.007,-0.958,-0.305,61564
-0.299,-0.007,-0.96,-0.244,61568
-0.299,-0.007,-0.96,-0.122,61572
-0.297,-0.008,-0.96,-0.183,61576
-0.297,-0.008,-0.96,-0.183,61580
-0.297,-0.008,-0.96,-0.183,61584
-0.295,-0.005,-0.96,-0.244,61588
-0.295,-0.005,-0.96,-0.244,61592
-0.297,-0.006,-0.959,-0.122,61596
-0.297,-0.006,-0.959,-0.122,61600
-0.297,-0.006,-0.959,-0.122,61604
-0.295,-0.005,-0.96,-0.183,61608
-0.295,-0.005,-0.96,-0.183,61612
-0.294,-0.005,-0.959,-0.244,61616
-0.294,-0.005,-0.959,-0.244,61620
-0.294,-0.005,-0.959,-0.244,61624
-0.295,-0.006,-0.961,-0.305,61628
-0.295,-0.006,-0.961,-0.366,61632
-0.294,-0.005,-0.961,-0.183,61636
-0.294,-0.005,-0.961,-0.183,61640
-0.293,-0.005,-0.959,-0.244,61644
-0.293,-0.005,-0.959,-0.244,61648
-0.293,-0.005,-0.959,-0.122,61652
-0.294,-0.006,-0.962,-0.183,61656
-0.294,-0.006,-0.962,-0.305,61660
-0.296,-0.007,-0.961,-0.183,61664
-0.296,-0.007,-0.961,-0.183,61668
-0.296,-0.007,-0.961,-0.244,61672
-0.295,-0.007,-0.959,-0.244,61676
-0.295,-0.007,-0.959,-0.244,61680
-0.297,-0.008,-0.96,-0.183,61684
-0.297,-0.008,-0.96,-0.183,61688
-0.297,-0.008,-0.96,-0.305,61692
-0.296,-0.01,-0.959,-0.305,61697
-0.296,-0.01,-0.959,-0.244,61701
-0.296,-0.01,-0.958,-0.183,61705
-0.296,-0.01,-0.958,-0.244,61709
-0.296,-0.01,-0.958,-0.244,61713
-0.297,-0.009,-0.958,-0.305,61717
-0.297,-0.009,-0.958,-0.183,61721
-0.298,-0.008,-0.957,-0.244,61725
-0.298,-0.008,-0.957,-0.244,61729
-0.298,-0.008,-0.957,-0.244,61733
-0.299,-0.009,-0.957,-0.244,61737
-0.299,-0.009,-0.957,-0.244,61741
-0.3,-0.009,-0.958,-0.122,61745
-0.3,-0.009,-0.958,-0.122,61749
-0.3,-0.009,-0.958,-0.122,61753
-0.3,-0.009,-0.957,-0.183,61757
-0.3,-0.009,-0.957,-0.244,61761
-0.3,-0.01,-0.958,-0.244,61765
-0.3,-0.01,-0.958,-0.183,61769
-0.3,-0.01,-0.958,-0.183,61773
-0.3,-0.01,-0.956,-0.244,61777
-0.3,-0.01,-0.956,-0.244,61781
-0.301,-0.009,-0.955,-0.244,61785
-0.301,-0.009,-0.955,-0.305,61789
-0.301,-0.008,-0.953,-0.183,61793
-0.301,-0.008,-0.953,-0.183,61797
-0.301,-0.008,-0.953,-0.183,61801
-0.302,-0.011,-0.952,-0.122,61805
-0.302,-0.011,-0.952,-0.122,61809
-0.304,-0.01,-0.95,-0.305,61813
-0.304,-0.01,-0.95,-0.305,61817
-0.304,-0.01,-0.95,-0.183,61821
-0.305,-0.012,-0.96,-0.305,61825
-0.305,-0.012,-0.96,-0.366,61829
-0.305,-0.013,-0.963,-0.305,61833
-0.305,-0.013,-0.963,-0.305,61837
-0.305,-0.013,-0.963,-0.183,61841
-0.3,-0.012,-0.951,-0.366,61845
-0.3,-0.012,-0.951,-0.366,61849
-0.3,-0.013,-0.958,-0.305,61853
-0.3,-0.013,-0.958,-0.366,61857
-0.3,-0.013,-0.958,-0.366,61862
-0.302,-0.014,-0.967,-0.122,61866
-0.302,-0.014,-0.967,-0.122,61870
-0.302,-0.013,-0.964,-0.244,61874
-0.302,-0.013,-0.964,-0.183,61878
-0.302,-0.013,-0.964,-0.183,61882
-0.294,-0.01,-0.949,-0.183,61886
-0.294,-0.01,-0.949,-0.122,61890
-0.295,-0.008,-0.951,0.061,61894
-0.295,-0.008,-0.951,0.061,61898
-0.295,-0.008,-0.951,0.061,61902
-0.296,-0.006,-0.962,0.061,61906
-0.296,-0.006,-0.962,-0.061,61910
-0.295,-0.004,-0.963,0.122,61914
-0.295,-0.004,-0.963,0.061,61918
-0.295,-0.004,-0.963,0.061,61922
-0.291,-0.003,-0.961,0.0,61926
-0.291,-0.003,-0.961,-0.061,61930
-0.289,0.001,-0.962,-0.122,61934
-0.289,0.001,-0.962,-0.061,61938
-0.292,0.002,-0.966,-0.183,61942
-0.292,0.002,-0.966,-0.183,61946
-0.292,0.002,-0.966,-0.183,61950
-0.291,0.001,-0.961,-0.244,61954
-0.291,0.001,-0.961,-0.366,61958
-0.293,-0.001,-0.958,-0.305,61962
-0.293,-0.001,-0.958,-0.305,61966
-0.293,-0.001,-0.958,-0.427,61970
-0.294,-0.003,-0.961,-0.488,61974
-0.294,-0.003,-0.961,-0.427,61978
-0.294,-0.005,-0.964,-0.366,61982
-0.294,-0.005,-0.964,-0.366,61986
-0.294,-0.005,-0.964,-0.549,61990
-0.292,-0.007,-0.958,-0.488,61994
-0.292,-0.007,-0.958,-0.488,61998
-0.292,-0.009,-0.958,-0.366,62002
-0.292,-0.009,-0.958,-0.366,62006
-0.292,-0.009,-0.958,-0.244,62010
-0.296,-0.009,-0.962,-0.244,62014
-0.296,-0.009,-0.962,-0.244,62018
-0.299,-0.011,-0.966,-0.183,62022
-0.299,-0.011,-0.966,-0.305,62026
-0.299,-0.011,-0.966,-0.305,62030
-0.298,-0.01,-0.957,-0.183,62034
-0.298,-0.01,-0.957,-0.305,62038
-0.297,-0.01,-0.95,-0.244,62042
-0.297,-0.01,-0.95,-0.183,62046
-0.297,-0.01,-0.95,-0.183,62050
-0.301,-0.011,-0.957,-0.183,62054
-0.301,-0.011,-0.957,-0.244,62058
-0.303,-0.013,-0.961,-0.183,62062
-0.303,-0.013,-0.961,-0.244,62066
-0.303,-0.013,-0.961,-0.244,62070
-0.303,-0.012,-0.958,-0.183,62074
-0.303,-0.012,-0.958,-0.305,62078
-0.303,-0.011,-0.955,-0.305,62082
-0.303,-0.011,-0.955,-0.366,62086
-0.304,-0.012,-0.954,-0.305,62090
-0.304,-0.012,-0.954,-0.305,62095
-0.304,-0.012,-0.954,-0.122,62099
-0.304,-0.012,-0.957,-0.305,62103
-0.304,-0.012,-0.957,-0.305,62107
-0.304,-0.012,-0.953,-0.244,62111
-0.304,-0.012,-0.953,-0.244,62115
-0.304,-0.012,-0.953,-0.244,62119
-0.302,-0.012,-0.951,-0.183,62123
-0.302,-0.012,-0.951,-0.183,62127
-0.303,-0.014,-0.956,-0.183,62131
-0.303,-0.014,-0.956,-0.183,62135
-0.303,-0.014,-0.956,-0.183,62139
-0.301,-0.012,-0.958,-0.061,62143
-0.301,-0.012,-0.958,-0.061,62147
-0.3,-0.009,-0.955,0.0,62151
-0.3,-0.009,-0.955,0.0,62155
-0.3,-0.009,-0.955,0.061,62159
-0.302,-0.009,-0.957,-0.122,62163
-0.302,-0.009,-0.957,-0.122,62167
-0.3,-0.009,-0.96,-0.122,62171
-0.3,-0.009,-0.96,-0.122,62175
-0.3,-0.009,-0.96,-0.122,62179
-0.299,-0.006,-0.96,-0.061,62183
-0.299,-0.006,-0.96,-0.183,62187
-0.299,-0.005,-0.955,-0.122,62191
-0.299,-0.005,-0.955,-0.183,62195
-0.299,-0.005,-0.955,-0.183,62199
-0.297,-0.007,-0.956,-0.183,62203
-0.297,-0.007,-0.956,-0.183,62207
-0.297,-0.008,-0.959,-0.244,62211
-0.297,-0.008,-0.959,-0.183,62215
-0.297,-0.008,-0.959,-0.183,62219
-0.297,-0.006,-0.96,-0.244,62223
-0.297,-0.006,-0.96,-0.244,62227
-0.294,-0.008,-0.96,-0.244,62231
-0.294,-0.008,-0.96,-0.183,62235
-0.294,-0.008,-0.96,-0.183,62239
-0.293,-0.006,-0.96,-0.183,62243
-0.293,-0.006,-0.96,-0.061,62247
-0.293,-0.007,-0.961,-0.061,62251
-0.293,-0.007,-0.961,-0.183,62255
-0.294,-0.007,-0.966,-0.183,62259
-0.294,-0.007,-0.966,-0.183,62263
-0.294,-0.007,-0.966,-0.244,62267
-0.293,-0.007,-0.963,-0.305,62271
-0.293,-0.007,-0.963,-0.244,62275
-0.292,-0.006,-0.96,-0.061,62279
-0.292,-0.006,-0.96,-0.061,62283
-0.292,-0.006,-0.96,-0.122,62287
-0.292,-0.005,-0.962,-0.183,62291
-0.292,-0.005,-0.962,-0.183,62295
-0.292,-0.004,-0.964,-0.305,62299
-0.292,-0.004,-0.964,-0.305,62303
-0.292,-0.004,-0.964,-0.244,62307
-0.292,-0.004,-0.961,-0.122,62311
-0.292,-0.004,-0.961,-0.244,62316
-0.292,-0.005,-0.96,-0.244,62320
-0.292,-0.005,-0.96,-0.366,62324
-0.292,-0.005,-0.96,-0.366,62328
-0.295,-0.006,-0.962,-0.366,62332
-0.295,-0.006,-0.962,-0.122,62336
-0.297,-0.005,-0.96,-0.244,62340
-0.297,-0.005,-0.96,-0.305,62344
-0.297,-0.005,-0.96,-0.305,62348
-0.297,-0.007,-0.959,-0.366,62352
-0.297,-0.007,-0.959,-0.244,62356
-0.298,-0.009,-0.957,-0.244,62360
-0.298,-0.009,-0.957,-0.244,62364
-0.298,-0.009,-0.957,-0.244,62368
-0.299,-0.009,-0.956,-0.305,62372
-0.299,-0.009,-0.956,-0.244,62376
-0.3,-0.008,-0.957,-0.427,62380
-0.3,-0.008,-0.957,-0.427,62384
-0.3,-0.008,-0.957,-0.427,62388
-0.302,-0.008,-0.958,-0.366,62392
-0.302,-0.008,-0.958,-0.305,62396
-0.299,-0.007,-0.955,-0.183,62400
-0.299,-0.007,-0.955,-0.183,62404
-0.301,-0.009,-0.956,-0.183,62408
-0.301,-0.009,-0.956,-0.183,62412
-0.301,-0.009,-0.956,-0.122,62416
-0.301,-0.01,-0.958,-0.183,62420
-0.301,-0.01,-0.958,-0.244,62424
-0.3,-0.008,-0.956,-0.305,62428
-0.3,-0.008,-0.956,-0.305,62432
-0.3,-0.008,-0.956,-0.305,62436
-0.301,-0.009,-0.957,-0.305,62440
-0.301,-0.009,-0.957,-0.183,62444
-0.301,-0.01,-0.958,-0.305,62448
-0.301,-0.01,-0.958,-0.305,62452
-0.301,-0.01,-0.958,-0.244,62456
-0.301,-0.01,-0.955,-0.244,62460
-0.301,-0.01,-0.955,-0.183,62464
-0.302,-0.01,-0.955,-0.122,62468
-0.302,-0.01,-0.955,-0.122,62472
-0.302,-0.01,-0.955,-0.122,62476
-0.302,-0.009,-0.957,-0.122,62480
-0.302,-0.009,-0.957,-0.122,62484
-0.3,-0.009,-0.957,-0.183,62489
-0.3,-0.009,-0.957,-0.183,62493
-0.3,-0.009,-0.957,-0.183,62497
-0.3,-0.01,-0.957,-0.305,62501
-0.3,-0.01,-0.957,-0.305,62505
-0.299,-0.009,-0.957,-0.244,62509
-0.299,-0.009,-0.957,-0.183,62513
-0.299,-0.009,-0.957,-0.183,62517
-0.299,-0.008,-0.956,-0.183,62521
-0.299,-0.008,-0.956,-0.122,62525
-0.297,-0.01,-0.958,-0.122,62529
-0.297,-0.01,-0.958,-0.122,62533
-0.296,-0.011,-0.958,-0.244,62537
-0.296,-0.011,-0.958,-0.244,62541
-0.296,-0.011,-0.958,-0.183,62545
-0.297,-0.01,-0.956,-0.122,62549
-0.297,-0.01,-0.956,-0.305,62553
-0.297,-0.01,-0.959,-0.122,62557
-0.297,-0.01,-0.959,-0.122,62561
-0.297,-0.01,-0.959,-0.183,62565
-0.298,-0.01,-0.964,-0.122,62569
-0.298,-0.01,-0.964,0.0,62573
-0.297,-0.009,-0.962,-0.183,62577
-0.297,-0.009,-0.962,-0.183,62581
-0.297,-0.009,-0.962,-0.122,62585
-0.294,-0.008,-0.957,-0.061,62589
-0.294,-0.008,-0.957,-0.122,62593
-0.294,-0.008,-0.957,-0.183,62597
-0.294,-0.008,-0.957,-0.183,62601
-0.294,-0.008,-0.957,-0.061,62605
-0.298,-0.008,-0.961,-0.122,62609
-0.298,-0.008,-0.961,-0.183,62613
-0.299,-0.005,-0.963,-0.061,62617
-0.299,-0.005,-0.963,-0.244,62621
-0.299,-0.005,-0.963,-0.244,62625
-0.296,-0.003,-0.959,-0.122,62629
-0.296,-0.003,-0.959,-0.183,62633
-0.292,-0.004,-0.957,-0.061,62637
-0.292,-0.004,-0.957,-0.183,62641
-0.292,-0.004,-0.957,-0.183,62645
-0.295,-0.001,-0.962,-0.305,62649
-0.295,-0.001,-0.962,-0.244,62653
-0.294,0.0,-0.965,-0.244,62657
-0.294,0.0,-0.965,-0.122,62661
-0.294,0.0,-0.965,-0.122,62665
-0.294,-0.002,-0.962,-0.061,62669
-0.294,-0.002,-0.962,-0.122,62673
-0.295,-0.003,-0.959,-0.244,62677
-0.295,-0.003,-0.959,-0.244,62681
-0.295,-0.003,-0.959,-0.244,62685
-0.295,-0.003,-0.958,-0.244,62689
-0.295,-0.003,-0.958,-0.366,62693
-0.294,-0.004,-0.958,-0.305,62697
-0.294,-0.004,-0.958,-0.183,62701
-0.295,-0.007,-0.957,-0.244,62705
-0.295,-0.007,-0.957,-0.244,62710
-0.295,-0.007,-0.957,-0.427,62714
-0.298,-0.01,-0.96,-0.183,62718
-0.298,-0.01,-0.96,-0.183,62722
-0.3,-0.012,-0.961,-0.305,62726
-0.3,-0.012,-0.961,-0.305,62730
-0.3,-0.012,-0.961,-0.366,62734
-0.299,-0.011,-0.956,-0.366,62738
-0.299,-0.011,-0.956,-0.244,62742
-0.299,-0.011,-0.952,-0.305,62746
-0.299,-0.011,-0.952,-0.305,62750
-0.299,-0.011,-0.952,-0.183,62754
-0.301,-0.013,-0.957,-0.183,62758
-0.301,-0.013,-0.957,-0.305,62762
-0.302,-0.014,-0.961,-0.366,62766
-0.302,-0.014,-0.961,0.0,62770
-0.302,-0.014,-0.961,0.0,62774
-0.301,-0.013,-0.96,-0.183,62778
-0.301,-0.013,-0.96,-0.183,62782
-0.299,-0.013,-0.956,-0.244,62786
-0.299,-0.013,-0.956,-0.183,62790
-0.299,-0.013,-0.956,-0.183,62794
-0.299,-0.013,-0.957,-0.122,62798
-0.299,-0.013,-0.957,-0.061,62802
-0.301,-0.013,-0.959,-0.122,62806
-0.301,-0.013,-0.959,-0.183,62810
-0.301,-0.013,-0.959,-0.183,62814
-0.301,-0.011,-0.957,-0.183,62818
-0.301,-0.011,-0.957,-0.183,62822
-0.302,-0.011,-0.955,-0.183,62826
-0.302,-0.011,-0.955,-0.061,62830
-0.302,-0.011,-0.955,-0.061,62834
-0.302,-0.011,-0.955,-0.305,62838
-0.302,-0.011,-0.955,-0.244,62842
-0.302,-0.01,-0.958,-0.122,62846
-0.302,-0.01,-0.958,-0.061,62850
-0.3,-0.009,-0.957,-0.122,62854
-0.3,-0.009,-0.957,-0.122,62858
-0.3,-0.009,-0.957,-0.122,62862
-0.299,-0.01,-0.956,-0.122,62866
-0.299,-0.01,-0.956,-0.122,62870
-0.3,-0.009,-0.958,-0.122,62874
-0.3,-0.009,-0.958,-0.122,62878
-0.3,-0.009,-0.958,-0.183,62882
-0.299,-0.005,-0.958,-0.061,62886
-0.299,-0.005,-0.958,0.305,62890
-0.32,-0.008,-0.95,7.08,62894
-0.32,-0.008,-0.95,7.08,62898
-0.32,-0.008,-0.95,9.949,62902
-0.281,-0.003,-0.965,3.174,62906
-0.281,-0.003,-0.965,-1.038,62910
-0.293,-0.003,-0.96,-0.122,62915
-0.293,-0.003,-0.96,-0.122,62919
-0.293,-0.003,-0.96,-0.122,62923
-0.296,-0.006,-0.96,-0.183,62927
-0.296,-0.006,-0.96,-0.061,62931
-0.294,-0.004,-0.959,-0.061,62935
-0.294,-0.004,-0.959,-0.183,62939
-0.294,-0.004,-0.959,-0.183,62943
-0.293,-0.003,-0.959,-0.183,62947
-0.293,-0.003,-0.959,-0.183,62951
-0.305,-0.007,-0.958,1.038,62955
-0.305,-0.007,-0.958,7.385,62959
-0.305,-0.007,-0.958,7.385,62963
-0.348,-0.014,-0.941,21.24,62967
-0.348,-0.014,-0.941,31.006,62971
-0.282,-0.012,-0.974,21.423,62975
-0.282,-0.012,-0.974,7.874,62979
-0.282,-0.012,-0.974,7.874,62983
-0.236,0.006,-0.977,2.747,62987
-0.236,0.006,-0.977,-0.488,62991
-0.296,-0.005,-0.96,-0.305,62995
-0.296,-0.005,-0.96,-0.305,62999
-0.3,-0.009,-0.96,-0.488,63003
-0.3,-0.009,-0.96,-0.488,63007
-0.3,-0.009,-0.96,-0.244,63011
-0.294,-0.009,-0.962,-0.244,63015
-0.294,-0.009,-0.962,-0.183,63019
-0.29,-0.012,-0.961,-0.549,63023
-0.29,-0.012,-0.961,-0.549,63027
-0.29,-0.012,-0.961,-9.216,63031
-0.224,-0.08,-0.985,-55.481,63035
-0.224,-0.08,-0.985,-112.427,63039
-0.309,-0.027,-0.929,-94.116,63043
-0.309,-0.027,-0.929,-94.116,63047
-0.309,-0.027,-0.929,11.292,63051
-0.332,-0.015,-0.953,-1.038,63055
-0.332,-0.015,-0.953,-28.32,63059
-0.313,0.059,-0.96,1.77,63063
-0.313,0.059,-0.96,5.31,63067
-0.313,0.059,-0.96,5.31,63071
-0.303,0.01,-0.954,-1.587,63075
-0.303,0.01,-0.954,-0.549,63079
-0.295,-0.022,-0.955,-0.061,63084
-0.295,-0.022,-0.955,-0.122,63088
-0.295,-0.022,-0.955,-0.122,63092
-0.3,-0.009,-0.958,-0.183,63096
-0.3,-0.009,-0.958,-0.122,63100
-0.301,-0.009,-0.959,-0.122,63104
-0.301,-0.009,-0.959,-0.061,63108
-0.301,-0.009,-0.959,-0.061,63112
-0.302,-0.009,-0.956,0.0,63116
-0.302,-0.009,-0.956,0.061,63120
-0.302,-0.01,-0.958,0.122,63124
-0.302,-0.01,-0.958,0.732,63128
-0.302,-0.01,-0.958,0.732,63132
-0.304,-0.009,-0.957,1.465,63136
-0.304,-0.009,-0.957,-0.122,63140
-0.302,-0.008,-0.955,-0.183,63144
-0.302,-0.008,-0.955,0.183,63148
-0.302,-0.008,-0.956,-0.305,63152
-0.302,-0.008,-0.956,-0.305,63156
-0.302,-0.008,-0.956,-0.183,63160
-0.305,-0.008,-0.958,-0.122,63164
-0.305,-0.008,-0.958,-0.183,63168
-0.303,-0.008,-0.956,-0.122,63172
-0.303,-0.008,-0.956,-0.122,63176
-0.303,-0.008,-0.956,-0.061,63180
-0.302,-0.01,-0.954,0.122,63184
-0.302,-0.01,-0.954,0.366,63188
-0.302,-0.01,-0.957,0.061,63192
-0.302,-0.01,-0.957,0.061,63196
-0.302,-0.01,-0.957,0.732,63200
-0.3,-0.006,-0.956,1.892,63204
-0.3,-0.006,-0.956,4.7,63208
-0.283,0.004,-0.957,16.846,63212
-0.283,0.004,-0.957,16.846,63216
-0.283,0.004,-0.957,26.978,63220
-0.286,-0.046,-0.959,22.156,63224
-0.286,-0.046,-0.959,18.494,63228
-0.311,-0.002,-0.976,6.348,63232
-0.311,-0.002,-0.976,-0.793,63236
-0.311,-0.002,-0.976,-0.793,63240
-0.292,-0.001,-0.966,-0.732,63244
-0.292,-0.001,-0.966,-1.099,63248
-0.297,-0.017,-0.95,-6.287,63252
-0.297,-0.017,-0.95,-4.028,63256
-0.297,-0.017,-0.95,-4.028,63260
-0.309,-0.006,-0.953,-1.709,63264
-0.309,-0.006,-0.953,-0.671,63268
-0.295,-0.006,-0.961,0.122,63272
-0.295,-0.006,-0.961,-0.183,63276
-0.295,-0.006,-0.961,-0.183,63280
-0.294,-0.009,-0.962,-0.122,63284
-0.294,-0.009,-0.962,0.061,63288
-0.296,-0.008,-0.958,0.549,63292
-0.296,-0.008,-0.958,0.61,63296
-0.296,-0.008,-0.958,0.61,63300
-0.291,-0.007,-0.963,0.122,63304
-0.291,-0.007,-0.963,-0.183,63308
-0.285,-0.007,-0.971,-0.244,63312
-0.285,-0.007,-0.971,-0.183,63316
-0.294,-0.008,-0.958,-0.305,63320
-0.294,-0.008,-0.958,-0.305,63324
-0.294,-0.008,-0.958,-0.427,63328
-0.292,-0.004,-0.965,-0.244,63332
-0.292,-0.004,-0.965,-0.305,63336
-0.294,-0.003,-0.961,-0.244,63341
-0.294,-0.003,-0.961,-0.244,63345
-0.294,-0.003,-0.961,-0.183,63349
-0.295,-0.002,-0.961,-0.244,63353
-0.295,-0.002,-0.961,-0.305,63357
-0.295,-0.002,-0.961,-0.305,63361
-0.295,-0.002,-0.961,-0.305,63365
-0.295,-0.002,-0.961,-0.244,63369
-0.295,-0.002,-0.958,-0.183,63373
-0.295,-0.002,-0.958,-0.366,63377
-0.297,-0.003,-0.957,-0.366,63381
-0.297,-0.003,-0.957,-0.305,63385
-0.297,-0.003,-0.957,-0.305,63389
-0.299,-0.004,-0.958,-0.305,63393
-0.299,-0.004,-0.958,-0.305,63397
-0.298,-0.005,-0.957,-0.244,63401
-0.298,-0.005,-0.957,-0.183,63405
-0.298,-0.005,-0.957,-0.183,63409
-0.299,-0.006,-0.957,-0.183,63413
-0.299,-0.006,-0.957,-0.305,63417
-0.3,-0.007,-0.955,-0.305,63421
-0.3,-0.007,-0.955,-0.488,63425
-0.3,-0.007,-0.955,-0.488,63429
-0.301,-0.007,-0.955,-0.244,63433
-0.301,-0.007,-0.955,-0.183,63437
-0.302,-0.008,-0.958,-0.305,63441
-0.302,-0.008,-0.958,-0.244,63445
-0.303,-0.012,-0.956,-0.183,63449
-0.303,-0.012,-0.956,-0.183,63453
-0.303,-0.012,-0.956,-0.183,63457
-0.302,-0.013,-0.955,-0.305,63461
-0.302,-0.013,-0.955,-0.183,63465
-0.303,-0.013,-0.955,-0.244,63469
-0.303,-0.013,-0.955,-0.244,63473
-0.303,-0.013,-0.955,-0.244,63477
-0.304,-0.014,-0.956,-0.244,63481
-0.304,-0.014,-0.956,-0.183,63485
-0.304,-0.015,-0.955,-0.183,63489
-0.304,-0.015,-0.955,-0.183,63493
-0.304,-0.015,-0.955,-0.122,63497
-0.305,-0.017,-0.954,-0.183,63501
-0.305,-0.017,-0.954,-0.061,63506
-0.303,-0.017,-0.954,-0.122,63510
-0.303,-0.017,-0.954,-0.122,63514
-0.303,-0.017,-0.954,-0.122,63518
-0.302,-0.016,-0.958,-0.244,63522
-0.302,-0.016,-0.958,-0.122,63526
-0.301,-0.015,-0.957,-0.061,63530
-0.301,-0.015,-0.957,-0.183,63534
-0.301,-0.015,-0.957,-0.183,63538
-0.302,-0.013,-0.957,-0.183,63542
-0.302,-0.013,-0.957,-0.061,63546
-0.302,-0.013,-0.956,-0.305,63550
-0.302,-0.013,-0.956,-0.183,63554
-0.302,-0.013,-0.956,-0.183,63558
-0.3,-0.011,-0.957,-0.061,63562
-0.3,-0.011,-0.957,0.0,63566
-0.297,-0.008,-0.957,-0.122,63570
-0.297,-0.008,-0.957,-0.122,63574
-0.297,-0.008,-0.957,-0.122,63578
-0.296,-0.006,-0.958,-0.122,63582
-0.296,-0.006,-0.958,-0.061,63586
-0.297,-0.006,-0.958,-0.122,63590
-0.297,-0.006,-0.958,-0.122,63594
-0.295,-0.005,-0.96,-0.122,63598
-0.295,-0.005,-0.96,-0.122,63602
-0.295,-0.005,-0.96,-0.061,63606
-0.296,-0.004,-0.96,0.0,63610
-0.296,-0.004,-0.96,-0.305,63614
-0.296,-0.003,-0.96,-0.305,63618
-0.296,-0.003,-0.96,-0.305,63622
-0.296,-0.003,-0.96,0.0,63626
-0.296,-0.001,-0.962,-0.122,63630
-0.296,-0.001,-0.962,-0.122,63634
-0.294,-0.0,-0.961,-0.061,63638
-0.294,-0.0,-0.961,-0.061,63642
-0.294,-0.0,-0.961,-0.244,63646
-0.294,-0.002,-0.961,-0.244,63650
-0.294,-0.002,-0.961,-0.061,63654
-0.293,-0.001,-0.961,-0.183,63658
-0.293,-0.001,-0.961,-0.183,63662
-0.293,-0.001,-0.961,-0.244,63666
-0.293,-0.002,-0.961,-0.305,63670
-0.293,-0.002,-0.961,-0.244,63674
-0.294,-0.002,-0.961,-0.244,63678
-0.294,-0.002,-0.961,-0.366,63682
-0.294,-0.002,-0.961,-0.366,63686
-0.295,-0.004,-0.962,-0.244,63690
-0.295,-0.004,-0.962,-0.305,63694
-0.295,-0.005,-0.961,-0.305,63698
-0.295,-0.005,-0.961,-0.183,63702
-0.295,-0.005,-0.961,-0.183,63706
-0.294,-0.005,-0.961,-0.122,63710
-0.294,-0.005,-0.961,-0.244,63715
-0.296,-0.008,-0.961,-0.183,63719
-0.296,-0.008,-0.961,-0.244,63723
-0.296,-0.008,-0.961,-0.244,63727
-0.297,-0.011,-0.958,-0.366,63731
-0.297,-0.011,-0.958,-0.183,63735
-0.298,-0.011,-0.958,-0.183,63739
-0.298,-0.011,-0.958,-0.305,63743
-0.298,-0.011,-0.958,-0.305,63747
-0.297,-0.012,-0.958,-0.244,63751
-0.297,-0.012,-0.958,-0.244,63755
-0.298,-0.015,-0.958,-0.305,63759
-0.298,-0.015,-0.958,-0.183,63763
-0.3,-0.016,-0.957,-0.183,63767
-0.3,-0.016,-0.957,-0.183,63771
-0.3,-0.016,-0.957,-0.244,63775
-0.299,-0.014,-0.954,-0.183,63779
-0.299,-0.014,-0.954,-0.122,63783
-0.301,-0.014,-0.957,-0.244,63787
-0.301,-0.014,-0.957,-0.244,63791
-0.301,-0.014,-0.957,-0.183,63795
-0.302,-0.013,-0.957,-0.183,63799
-0.302,-0.013,-0.957,-0.244,63803
-0.302,-0.012,-0.956,-0.122,63807
-0.302,-0.012,-0.956,-0.122,63811
-0.302,-0.012,-0.956,-0.122,63815
-0.302,-0.012,-0.958,-0.366,63819
-0.302,-0.012,-0.958,-0.366,63823
-0.303,-0.01,-0.958,-0.305,63827
-0.303,-0.01,-0.958,-0.183,63831
-0.303,-0.01,-0.958,-0.183,63835
-0.302,-0.008,-0.955,-0.122,63839
-0.302,-0.008,-0.955,-0.244,63843
-0.302,-0.008,-0.952,-0.244,63847
-0.302,-0.008,-0.952,-0.183,63851
-0.302,-0.008,-0.952,-0.183,63855
-0.303,-0.008,-0.955,-0.122,63859
-0.303,-0.008,-0.955,-0.122,63863
-0.304,-0.007,-0.958,-0.122,63867
-0.304,-0.007,-0.958,-0.122,63871
-0.304,-0.007,-0.958,-0.122,63876
-0.301,-0.003,-0.957,-0.061,63880
-0.301,-0.003,-0.957,-0.122,63884
-0.298,-0.005,-0.956,-0.183,63888
-0.298,-0.005,-0.956,-0.305,63892
-0.3,-0.005,-0.959,-0.244,63896
-0.3,-0.005,-0.959,-0.244,63900
-0.3,-0.005,-0.959,-0.122,63904
-0.296,-0.004,-0.96,0.122,63908
-0.296,-0.004,-0.96,-0.244,63912
-0.295,-0.004,-0.958,-0.305,63916
-0.295,-0.004,-0.958,-0.305,63920
-0.295,-0.004,-0.958,-0.122,63924
-0.295,-0.005,-0.957,-0.122,63928
-0.295,-0.005,-0.957,-0.183,63932
-0.294,-0.005,-0.96,-0.244,63936
-0.294,-0.005,-0.96,-0.244,63940
-0.294,-0.005,-0.96,-0.183,63944
-0.293,-0.006,-0.963,-0.122,63948
-0.293,-0.006,-0.963,-0.061,63952
-0.291,-0.008,-0.962,-0.122,63956
-0.291,-0.008,-0.962,-0.122,63960
-0.291,-0.008,-0.962,-0.122,63964
-0.29,-0.008,-0.962,-0.122,63968
-0.29,-0.008,-0.962,-0.183,63972
-0.292,-0.008,-0.963,-0.244,63976
-0.292,-0.008,-0.963,-0.244,63980
-0.292,-0.008,-0.963,-0.244,63984
-0.293,-0.011,-0.962,-0.305,63988
-0.293,-0.011,-0.962,-0.122,63992
-0.293,-0.011,-0.961,-0.244,63996
-0.293,-0.011,-0.961,-0.183,64000
-0.293,-0.011,-0.961,-0.183,64004
-0.293,-0.01,-0.963,-0.061,64008
-0.293,-0.01,-0.963,-0.122,64012
-0.296,-0.009,-0.964,-0.122,64016
-0.296,-0.009,-0.964,-0.244,64020
-0.296,-0.009,-0.964,-0.244,64024
-0.295,-0.01,-0.959,-0.183,64029
-0.295,-0.01,-0.959,-0.305,64033
-0.297,-0.008,-0.958,-0.366,64037
-0.297,-0.008,-0.958,-0.122,64041
-0.299,-0.008,-0.959,-0.122,64045
-0.299,-0.008,-0.959,-0.122,64049
-0.299,-0.008,-0.959,-0.244,64053
-0.298,-0.007,-0.958,-0.305,64057
-0.298,-0.007,-0.958,-0.305,64061
-0.301,-0.007,-0.956,-0.305,64065
-0.301,-0.007,-0.956,-0.305,64069
-0.301,-0.007,-0.956,-0.305,64073
-0.302,-0.008,-0.955,-0.122,64077
-0.302,-0.008,-0.955,-0.122,64081
-0.304,-0.008,-0.956,-0.122,64085
-0.304,-0.008,-0.956,-0.122,64089
-0.304,-0.008,-0.956,-0.244,64093
-0.304,-0.008,-0.956,-0.183,64097
-0.304,-0.008,-0.956,-0.305,64101
-0.303,-0.007,-0.956,-0.366,64105
-0.303,-0.007,-0.956,-0.244,64109
-0.303,-0.007,-0.956,-0.244,64113
-0.304,-0.006,-0.954,-0.061,64117
-0.304,-0.006,-0.954,-0.061,64121
-0.305,-0.007,-0.953,-0.244,64125
-0.305,-0.007,-0.953,-0.244,64129
-0.305,-0.007,-0.953,-0.244,64133
-0.303,-0.008,-0.952,-0.244,64137
-0.303,-0.008,-0.952,-0.183,64141
-0.304,-0.008,-0.955,-0.183,64145
-0.304,-0.008,-0.955,-0.061,64149
-0.304,-0.008,-0.955,-0.061,64153
-0.305,-0.009,-0.955,-0.061,64157
-0.305,-0.009,-0.955,-0.183,64161
-0.302,-0.011,-0.954,-0.122,64165
-0.302,-0.011,-0.954,-0.305,64169
-0.302,-0.01,-0.957,-0.305,64173
-0.302,-0.01,-0.957,-0.305,64177
-0.302,-0.01,-0.957,-0.183,64181
-0.301,-0.011,-0.959,-0.244,64185
-0.301,-0.011,-0.959,-0.061,64189
-0.3,-0.013,-0.958,-0.061,64193
-0.3,-0.013,-0.958,-0.061,64197
-0.3,-0.013,-0.958,0.0,64201
-0.297,-0.013,-0.957,-0.122,64205
-0.297,-0.013,-0.957,-0.061,64209
-0.297,-0.01,-0.958,-0.122,64213
-0.297,-0.01,-0.958,-0.122,64217
-0.297,-0.01,-0.958,-0.183,64221
-0.296,-0.01,-0.961,-0.122,64225
-0.296,-0.01,-0.961,-0.122,64229
-0.294,-0.011,-0.96,-0.183,64234
-0.294,-0.011,-0.96,-0.183,64238
-0.294,-0.011,-0.96,-0.061,64242
-0.292,-0.01,-0.961,-0.183,64246
-0.292,-0.01,-0.961,-0.244,64250
-0.292,-0.008,-0.961,-0.122,64254
-0.292,-0.008,-0.961,-0.061,64258
-0.292,-0.008,-0.961,-0.061,64262
-0.292,-0.008,-0.962,-0.122,64266
-0.292,-0.008,-0.962,0.0,64270
-0.293,-0.009,-0.959,-0.122,64274
-0.293,-0.009,-0.959,-0.244,64278
-0.293,-0.009,-0.959,-0.244,64282
-0.294,-0.005,-0.96,-0.183,64286
-0.294,-0.005,-0.96,-0.183,64290
-0.294,-0.004,-0.96,-0.122,64294
-0.294,-0.004,-0.96,-0.183,64298
-0.294,-0.004,-0.96,-0.183,64302
-0.295,-0.005,-0.962,-0.183,64306
-0.295,-0.005,-0.962,-0.183,64310
-0.294,-0.005,-0.959,-0.183,64314
-0.294,-0.005,-0.959,-0.183,64318
-0.294,-0.005,-0.959,-0.183,64322
-0.296,-0.004,-0.959,-0.244,64326
-0.296,-0.004,-0.959,-0.244,64330
-0.298,-0.004,-0.96,-0.183,64334
-0.298,-0.004,-0.96,-0.244,64338
-0.3,-0.002,-0.958,-0.244,64342
-0.3,-0.002,-0.958,-0.244,64346
-0.3,-0.002,-0.958,-0.244,64350
-0.299,-0.002,-0.958,-0.305,64354
-0.299,-0.002,-0.958,-0.183,64358
-0.3,-0.003,-0.959,-0.122,64362
-0.3,-0.003,-0.959,-0.122,64366
-0.3,-0.003,-0.959,-0.427,64370
-0.3,-0.004,-0.959,-0.305,64374
-0.3,-0.004,-0.959,-0.305,64378
-0.301,-0.005,-0.958,-0.244,64382
-0.301,-0.005,-0.958,-0.244,64386
-0.301,-0.005,-0.958,-0.305,64390
-0.299,-0.006,-0.957,-0.061,64394
-0.299,-0.006,-0.957,-0.244,64398
-0.301,-0.007,-0.957,-0.244,64402
-0.301,-0.007,-0.957,-0.244,64407
-0.301,-0.007,-0.957,-0.244,64411
-0.301,-0.01,-0.957,-0.244,64415
-0.301,-0.01,-0.957,-0.183,64419
-0.302,-0.01,-0.957,-0.183,64423
-0.302,-0.01,-0.957,-0.122,64427
-0.302,-0.01,-0.957,-0.122,64431
-0.3,-0.011,-0.956,-0.244,64435
-0.3,-0.011,-0.956,-0.305,64439
-0.3,-0.013,-0.957,-0.305,64443
-0.3,-0.013,-0.957,-0.244,64447
-0.3,-0.013,-0.957,-0.244,64451
-0.301,-0.014,-0.956,-0.122,64455
-0.301,-0.014,-0.956,-0.305,64459
-0.3,-0.011,-0.955,-0.183,64463
-0.3,-0.011,-0.955,-0.183,64467
-0.3,-0.014,-0.956,-0.244,64471
-0.3,-0.014,-0.956,-0.244,64475
-0.3,-0.014,-0.956,-0.244,64479
-0.302,-0.015,-0.958,-0.183,64483
-0.302,-0.015,-0.958,-0.244,64487
-0.3,-0.014,-0.957,-0.244,64491
-0.3,-0.014,-0.957,-0.244,64495
-0.3,-0.014,-0.957,-0.122,64499
-0.298,-0.015,-0.956,-0.122,64503
-0.298,-0.015,-0.956,-0.061,64507
-0.299,-0.013,-0.958,-0.183,64511
-0.299,-0.013,-0.958,-0.183,64515
-0.299,-0.013,-0.958,-0.183,64519
-0.298,-0.011,-0.959,-0.122,64523
-0.298,-0.011,-0.959,-0.122,64527
-0.299,-0.009,-0.959,-0.122,64531
-0.299,-0.009,-0.959,-0.061,64535
-0.299,-0.009,-0.959,-0.061,64539
-0.298,-0.008,-0.958,-0.122,64543
-0.298,-0.008,-0.958,-0.061,64547
-0.296,-0.005,-0.958,-0.122,64551
-0.296,-0.005,-0.958,-0.122,64556
-0.296,-0.005,-0.958,-0.122,64560
-0.298,-0.004,-0.958,-0.122,64564
-0.298,-0.004,-0.958,-0.122,64568
-0.295,-0.004,-0.961,-0.122,64572
-0.295,-0.004,-0.961,-0.244,64576
-0.295,-0.004,-0.961,-0.244,64580
-0.295,-0.002,-0.961,-0.244,64584
-0.295,-0.002,-0.961,-0.305,64588
-0.295,-0.003,-0.959,-0.244,64592
-0.295,-0.003,-0.959,-0.183,64596
-0.295,-0.002,-0.962,-0.183,64600
-0.295,-0.002,-0.962,-0.183,64604
-0.295,-0.002,-0.962,-0.183,64608
-0.297,-0.001,-0.96,-0.244,64612
-0.297,-0.001,-0.96,-0.305,64616
-0.293,-0.003,-0.96,-0.244,64620
-0.293,-0.003,-0.96,-0.244,64624
-0.293,-0.003,-0.96,-0.244,64628
-0.294,-0.003,-0.962,-0.122,64632
-0.294,-0.003,-0.962,-0.305,64636
-0.296,-0.003,-0.96,-0.305,64640
-0.296,-0.003,-0.96,-0.305,64644
-0.296,-0.003,-0.96,-0.183,64648
-0.296,-0.004,-0.96,-0.183,64652
-0.296,-0.004,-0.96,-0.183,64656
-0.296,-0.003,-0.958,-0.122,64660
-0.296,-0.003,-0.958,-0.122,64664
-0.296,-0.003,-0.958,-0.305,64668
-0.295,-0.005,-0.959,-0.305,64672
-0.295,-0.005,-0.959,-0.183,64676
-0.294,-0.007,-0.96,-0.244,64680
-0.294,-0.007,-0.96,-0.244,64684
-0.294,-0.007,-0.96,-0.244,64688
-0.296,-0.007,-0.958,-0.244,64692
-0.296,-0.007,-0.958,-0.366,64696
-0.297,-0.008,-0.958,-0.366,64700
-0.297,-0.008,-0.958,-0.244,64704
-0.297,-0.008,-0.958,-0.244,64708
-0.3,-0.009,-0.957,-0.244,64712
-0.3,-0.009,-0.957,-0.183,64716
-0.298,-0.011,-0.958,-0.183,64721
-0.298,-0.011,-0.958,-0.305,64725
-0.298,-0.011,-0.958,-0.305,64729
-0.298,-0.011,-0.958,-0.244,64733
-0.298,-0.011,-0.958,-0.122,64737
-0.3,-0.013,-0.959,-0.305,64741
-0.3,-0.013,-0.959,-0.305,64745
-0.3,-0.013,-0.958,-0.244,64749
-0.3,-0.013,-0.958,-0.244,64753
-0.3,-0.013,-0.958,-0.244,64757
-0.3,-0.014,-0.956,-0.244,64761
-0.3,-0.014,-0.956,-0.122,64765
-0.299,-0.012,-0.957,-0.122,64769
-0.299,-0.012,-0.957,-0.122,64773
-0.299,-0.012,-0.957,-0.183,64777
-0.301,-0.013,-0.958,-0.244,64781
-0.301,-0.013,-0.958,-0.244,64785
-0.301,-0.012,-0.956,-0.244,64789
-0.301,-0.012,-0.956,-0.244,64793
-0.301,-0.012,-0.956,-0.244,64797
-0.301,-0.01,-0.957,-0.183,64801
-0.301,-0.01,-0.957,-0.122,64805
-0.301,-0.009,-0.956,-0.183,64809
-0.301,-0.009,-0.956,-0.122,64813
-0.301,-0.009,-0.956,-0.122,64817
-0.302,-0.008,-0.956,-0.122,64821
-0.302,-0.008,-0.956,-0.122,64825
-0.301,-0.009,-0.956,-0.244,64829
-0.301,-0.009,-0.956,-0.244,64833
-0.301,-0.009,-0.956,-0.244,64837
-0.301,-0.007,-0.957,-0.305,64841
-0.301,-0.007,-0.957,-0.122,64845
-0.302,-0.007,-0.955,-0.183,64849
-0.302,-0.007,-0.955,0.0,64853
-0.302,-0.007,-0.955,0.0,64857
-0.3,-0.007,-0.958,-0.122,64861
-0.3,-0.007,-0.958,-0.244,64865
-0.298,-0.005,-0.958,-0.122,64869
-0.298,-0.005,-0.958,-0.244,64873
-0.298,-0.005,-0.958,-0.244,64877
-0.297,-0.005,-0.958,-0.183,64881
-0.297,-0.005,-0.958,-0.122,64885
-0.298,-0.005,-0.958,-0.061,64889
-0.298,-0.005,-0.958,-0.122,64893
-0.296,-0.004,-0.959,-0.183,64897
-0.296,-0.004,-0.959,-0.183,64901
-0.296,-0.004,-0.959,-0.122,64905
-0.297,-0.004,-0.959,-0.122,64909
-0.297,-0.004,-0.959,-0.183,64914
-0.295,-0.005,-0.961,-0.122,64918
-0.295,-0.005,-0.961,-0.122,64922
-0.295,-0.005,-0.961,0.0,64926
-0.294,-0.005,-0.961,-0.061,64930
-0.294,-0.005,-0.961,-0.244,64934
-0.294,-0.005,-0.961,-0.305,64938
-0.294,-0.005,-0.961,-0.305,64942
-0.294,-0.005,-0.961,-0.305,64946
-0.292,-0.008,-0.961,-0.305,64950
-0.292,-0.008,-0.961,-0.366,64954
-0.293,-0.007,-0.961,-0.183,64958
-0.293,-0.007,-0.961,-0.183,64962
-0.293,-0.007,-0.961,-0.122,64966
-0.294,-0.008,-0.962,-0.244,64970
-0.294,-0.008,-0.962,-0.244,64974
-0.296,-0.008,-0.962,-0.244,64978
-0.296,-0.008,-0.962,-0.305,64982
-0.296,-0.008,-0.962,-0.305,64986
-0.294,-0.008,-0.961,-0.244,64990
-0.294,-0.008,-0.961,-0.305,64994
-0.296,-0.01,-0.96,-0.305,64998
-0.296,-0.01,-0.96,-0.122,65002
-0.296,-0.01,-0.96,-0.122,65006
-0.295,-0.01,-0.96,-0.244,65010
-0.295,-0.01,-0.96,-0.244,65014
-0.296,-0.01,-0.959,-0.305,65018
-0.296,-0.01,-0.959,-0.244,65022
-0.296,-0.01,-0.959,-0.244,65026
-0.296,-0.01,-0.959,-0.183,65030
-0.296,-0.01,-0.959,-0.366,65034
-0.298,-0.008,-0.959,-0.305,65038
-0.298,-0.008,-0.959,-0.183,65042
-0.299,-0.008,-0.959,-0.305,65046
-0.299,-0.008,-0.959,-0.305,65050
-0.299,-0.008,-0.959,-0.244,65054
-0.297,-0.01,-0.957,-0.244,65058
-0.297,-0.01,-0.957,-0.305,65062
-0.299,-0.008,-0.956,-0.305,65066
-0.299,-0.008,-0.956,-0.305,65070
-0.299,-0.008,-0.956,-0.244,65074
-0.3,-0.008,-0.956,-0.122,65078
-0.3,-0.008,-0.956,-0.244,65082
-0.302,-0.008,-0.956,-0.305,65086
-0.302,-0.008,-0.956,-0.305,65090
-0.302,-0.008,-0.956,-0.122,65094
-0.302,-0.008,-0.958,-0.244,65099
-0.302,-0.008,-0.958,-0.366,65103
-0.302,-0.008,-0.957,-0.244,65107
-0.302,-0.008,-0.957,-0.244,65111
-0.302,-0.008,-0.957,-0.244,65115
-0.303,-0.006,-0.955,-0.244,65119
-0.303,-0.006,-0.955,-0.244,65123
-0.302,-0.007,-0.956,-0.305,65127
-0.302,-0.007,-0.956,-0.183,65131
-0.302,-0.007,-0.956,-0.183,65135
-0.302,-0.006,-0.956,-0.122,65139
-0.302,-0.006,-0.956,-0.244,65143
-0.301,-0.007,-0.957,-0.122,65147
-0.301,-0.007,-0.957,-0.183,65151
-0.301,-0.007,-0.957,-0.183,65155
-0.3,-0.006,-0.958,-0.244,65159
-0.3,-0.006,-0.958,-0.122,65163
-0.3,-0.006,-0.956,-0.122,65167
-0.3,-0.006,-0.956,-0.061,65171
-0.3,-0.006,-0.956,-0.061,65175
-0.299,-0.007,-0.957,-0.244,65179
-0.299,-0.007,-0.957,-0.244,65183
-0.298,-0.007,-0.958,-0.183,65187
-0.298,-0.007,-0.958,-0.122,65191
-0.297,-0.007,-0.958,-0.122,65195
-0.297,-0.007,-0.958,-0.122,65199
-0.297,-0.007,-0.958,-0.122,65203
-0.297,-0.008,-0.959,-0.122,65207
-0.297,-0.008,-0.959,-0.305,65211
-0.295,-0.008,-0.96,-0.366,65215
-0.295,-0.008,-0.96,-0.366,65219
-0.295,-0.008,-0.96,-0.183,65223
-0.294,-0.008,-0.96,-0.366,65227
-0.294,-0.008,-0.96,-0.183,65231
-0.296,-0.009,-0.96,-0.122,65235
-0.296,-0.009,-0.96,-0.122,65239
-0.296,-0.009,-0.96,-0.061,65243
-0.296,-0.006,-0.959,-0.122,65247
-0.296,-0.006,-0.959,-0.244,65251
-0.295,-0.008,-0.96,-0.183,65255
-0.295,-0.008,-0.96,-0.183,65259
-0.295,-0.008,-0.96,-0.183,65263
-0.292,-0.008,-0.962,-0.122,65267
-0.292,-0.008,-0.962,-0.244,65271
-0.293,-0.006,-0.96,-0.244,65276
-0.293,-0.006,-0.96,-0.244,65280
-0.293,-0.006,-0.96,-0.244,65284
-0.292,-0.008,-0.96,-0.244,65288
-0.292,-0.008,-0.96,-0.305,65292
-0.294,-0.007,-0.961,-0.244,65296
-0.294,-0.007,-0.961,-0.183,65300
-0.294,-0.007,-0.961,-0.183,65304
-0.297,-0.006,-0.96,-0.183,65308
-0.297,-0.006,-0.96,-0.183,65312
-0.296,-0.008,-0.959,-0.122,65316
-0.296,-0.008,-0.959,-0.305,65320
-0.298,-0.005,-0.958,-0.244,65324
-0.298,-0.005,-0.958,-0.244,65328
-0.298,-0.005,-0.958,-0.244,65332
-0.297,-0.005,-0.958,-0.183,65336
-0.297,-0.005,-0.958,-0.305,65340
-0.297,-0.006,-0.958,-0.183,65344
-0.297,-0.006,-0.958,-0.183,65348
-0.297,-0.006,-0.958,-0.244,65352
-0.301,-0.006,-0.958,-0.305,65356
-0.301,-0.006,-0.958,-0.244,65360
-0.301,-0.006,-0.959,-0.244,65364
-0.301,-0.006,-0.959,-0.244,65368
-0.301,-0.006,-0.959,-0.244,65372
-0.3,-0.006,-0.958,-0.244,65376
-0.3,-0.006,-0.958,-0.122,65380
-0.3,-0.006,-0.958,-0.183,65384
-0.3,-0.006,-0.958,-0.183,65388
-0.3,-0.006,-0.958,-0.122,65392
-0.3,-0.007,-0.958,-0.122,65396
-0.3,-0.007,-0.958,-0.183,65400
-0.3,-0.008,-0.957,-0.244,65404
-0.3,-0.008,-0.957,-0.244,65408
-0.3,-0.008,-0.957,-0.244,65412
-0.3,-0.007,-0.957,-0.122,65416
-0.3,-0.007,-0.957,-0.122,65420
-0.301,-0.009,-0.957,-0.122,65424
-0.301,-0.009,-0.957,-0.122,65428
-0.301,-0.009,-0.957,-0.122,65432
-0.3,-0.008,-0.957,-0.183,65436
-0.3,-0.008,-0.957,-0.244,65440
-0.3,-0.009,-0.956,-0.244,65444
-0.3,-0.009,-0.956,-0.061,65448
-0.3,-0.009,-0.956,-0.061,65453
-0.299,-0.009,-0.957,-0.244,65457
-0.299,-0.009,-0.957,-0.366,65461
-0.3,-0.01,-0.958,-0.305,65465
-0.3,-0.01,-0.958,-0.183,65469
-0.3,-0.01,-0.958,-0.183,65473
-0.3,-0.01,-0.958,-0.183,65477
-0.3,-0.01,-0.958,-0.122,65481
-0.298,-0.01,-0.958,-0.122,65485
-0.298,-0.01,-0.958,-0.183,65489
-0.298,-0.011,-0.958,-0.305,65493
-0.298,-0.011,-0.958,-0.305,65497
-0.298,-0.011,-0.958,-0.305,65501
-0.299,-0.011,-0.957,-0.122,65505
-0.299,-0.011,-0.957,-0.305,65509
-0.298,-0.009,-0.957,-0.244,65513
-0.298,-0.009,-0.957,-0.244,65517
-0.298,-0.009,-0.957,-0.122,65521
-0.299,-0.009,-0.959,0.061,65525
-0.299,-0.009,-0.959,-0.061,65529
-0.297,-0.008,-0.96,-0.061,65533
-0.297,-0.008,-0.96,-0.061,65537
-0.297,-0.008,-0.96,-0.183,65541
-0.297,-0.008,-0.959,-0.122,65545
-0.297,-0.008,-0.959,-0.061,65549
-0.297,-0.007,-0.957,-0.122,65553
-0.297,-0.007,-0.957,-0.122,65557
-0.297,-0.007,-0.957,-0.122,65561
-0.297,-0.006,-0.958,-0.183,65565
-0.297,-0.006,-0.958,-0.244,65569
-0.298,-0.006,-0.96,-0.183,65573
-0.298,-0.006,-0.96,-0.183,65577
-0.298,-0.006,-0.96,-0.183,65581
-0.296,-0.006,-0.961,-0.061,65585
-0.296,-0.006,-0.961,-0.061,65589
-0.296,-0.005,-0.96,-0.061,65593
-0.296,-0.005,-0.96,-0.122,65597
-0.296,-0.005,-0.96,-0.122,65601
-0.296,-0.003,-0.959,-0.061,65605
-0.296,-0.003,-0.959,-0.244,65609
-0.296,-0.005,-0.959,-0.305,65613
-0.296,-0.005,-0.959,-0.244,65617
-0.297,-0.006,-0.959,-0.244,65621
-0.297,-0.006,-0.959,-0.244,65625
-0.297,-0.006,-0.959,-0.305,65630
-0.298,-0.004,-0.96,-0.183,65634
-0.298,-0.004,-0.96,-0.244,65638
-0.298,-0.006,-0.96,-0.183,65642
-0.298,-0.006,-0.96,-0.183,65646
-0.298,-0.006,-0.96,-0.183,65650
-0.297,-0.006,-0.958,-0.183,65654
-0.297,-0.006,-0.958,-0.244,65658
-0.297,-0.007,-0.96,-0.183,65662
-0.297,-0.007,-0.96,-0.183,65666
-0.297,-0.007,-0.96,-0.366,65670
-0.298,-0.006,-0.96,-0.366,65674
-0.298,-0.006,-0.96,-0.183,65678
-0.299,-0.008,-0.96,-0.305,65682
-0.299,-0.008,-0.96,-0.305,65686
-0.299,-0.008,-0.96,-0.305,65690
-0.299,-0.009,-0.958,-0.183,65694
-0.299,-0.009,-0.958,-0.183,65698
-0.298,-0.009,-0.957,-0.183,65702
-0.298,-0.009,-0.957,-0.122,65706
-0.298,-0.009,-0.957,-0.122,65710
-0.299,-0.01,-0.958,-0.305,65714
-0.299,-0.01,-0.958,-0.366,65718
-0.298,-0.011,-0.958,-0.427,65722
-0.298,-0.011,-0.958,-0.305,65726
-0.298,-0.011,-0.958,-0.305,65730
-0.298,-0.01,-0.956,-0.305,65734
-0.298,-0.01,-0.956,-0.305,65738
-0.299,-0.009,-0.959,-0.183,65742
-0.299,-0.009,-0.959,-0.122,65746
-0.299,-0.009,-0.959,-0.122,65750
-0.299,-0.011,-0.958,-0.183,65754
-0.299,-0.011,-0.958,-0.244,65758
-0.298,-0.011,-0.957,-0.183,65762
-0.298,-0.011,-0.957,-0.183,65766
-0.297,-0.01,-0.957,-0.244,65770
-0.297,-0.01,-0.957,-0.244,65774
-0.297,-0.01,-0.957,-0.305,65778
-0.299,-0.011,-0.958,-0.244,65782
-0.299,-0.011,-0.958,-0.183,65786
-0.298,-0.009,-0.958,-0.122,65790
-0.298,-0.009,-0.958,-0.122,65794
-0.298,-0.009,-0.958,-0.244,65799
-0.298,-0.009,-0.958,-0.183,65803
-0.298,-0.009,-0.958,-0.183,65807
-0.298,-0.008,-0.957,-0.122,65811
-0.298,-0.008,-0.957,-0.122,65815
-0.298,-0.008,-0.957,-0.183,65819
-0.299,-0.008,-0.957,-0.183,65823
-0.299,-0.008,-0.957,-0.244,65827
-0.298,-0.008,-0.958,-0.122,65831
-0.298,-0.008,-0.958,-0.183,65835
-0.298,-0.008,-0.958,-0.183,65839
-0.297,-0.007,-0.958,-0.122,65843
-0.297,-0.007,-0.958,-0.183,65847
-0.298,-0.008,-0.958,-0.244,65851
-0.298,-0.008,-0.958,-0.183,65855
-0.298,-0.008,-0.958,-0.183,65859
-0.299,-0.006,-0.958,-0.061,65863
-0.299,-0.006,-0.958,-0.183,65867
-0.297,-0.008,-0.957,-0.183,65871
-0.297,-0.008,-0.957,-0.183,65875
-0.297,-0.008,-0.957,-0.183,65879
-0.297,-0.007,-0.958,-0.244,65883
-0.297,-0.007,-0.958,-0.183,65887
-0.296,-0.004,-0.959,-0.122,65891
-0.296,-0.004,-0.959,-0.122,65895
-0.297,-0.006,-0.959,-0.183,65899
-0.297,-0.006,-0.959,-0.183,65903
-0.297,-0.006,-0.959,-0.244,65907
-0.297,-0.004,-0.959,-0.244,65911
-0.297,-0.004,-0.959,-0.061,65915
-0.297,-0.007,-0.959,-0.183,65919
-0.297,-0.007,-0.959,-0.183,65923
-0.297,-0.007,-0.959,-0.244,65927
-0.296,-0.006,-0.958,-0.183,65931
-0.296,-0.006,-0.958,-0.244,65935
-0.296,-0.007,-0.96,-0.244,65939
-0.296,-0.007,-0.96,-0.244,65943
-0.296,-0.007,-0.96,-0.305,65947
-0.296,-0.008,-0.959,-0.244,65951
-0.296,-0.008,-0.959,-0.061,65955
-0.297,-0.009,-0.958,-0.061,65959
-0.297,-0.009,-0.958,-0.061,65964
-0.297,-0.009,-0.958,-0.244,65968
-0.296,-0.008,-0.958,-0.305,65972
-0.296,-0.008,-0.958,-0.244,65976
-0.297,-0.008,-0.957,-0.183,65980
-0.297,-0.008,-0.957,-0.244,65984
-0.297,-0.008,-0.957,-0.244,65988
-0.297,-0.009,-0.959,-0.305,65992
-0.297,-0.009,-0.959,-0.366,65996
-0.298,-0.009,-0.959,-0.305,66000
-0.298,-0.009,-0.959,-0.122,66004
-0.298,-0.009,-0.959,-0.122,66008
-0.298,-0.009,-0.958,-0.305,66012
-0.298,-0.009,-0.958,-0.305,66016
-0.298,-0.009,-0.958,-0.244,66020
-0.298,-0.009,-0.958,-0.244,66024
-0.298,-0.009,-0.958,-0.244,66028
-0.3,-0.01,-0.958,-0.305,66032
-0.3,-0.01,-0.958,-0.183,66036
-0.299,-0.01,-0.959,-0.122,66040
-0.299,-0.01,-0.959,-0.244,66044
-0.298,-0.01,-0.957,-0.244,66048
-0.298,-0.01,-0.957,-0.244,66052
-0.298,-0.01,-0.957,-0.244,66056
-0.299,-0.009,-0.958,-0.244,66060
-0.299,-0.009,-0.958,-0.183,66064
-0.298,-0.007,-0.958,-0.183,66068
-0.298,-0.007,-0.958,-0.183,66072
-0.298,-0.007,-0.958,-0.183,66076
-0.299,-0.009,-0.956,-0.183,66080
-0.299,-0.009,-0.956,-0.122,66084
-0.299,-0.008,-0.958,-0.183,66088
-0.299,-0.008,-0.958,-0.183,66092
-0.299,-0.008,-0.958,-0.183,66096
-0.302,-0.009,-0.957,-0.183,66100
-0.302,-0.009,-0.957,-0.244,66104
-0.3,-0.008,-0.956,-0.183,66108
-0.3,-0.008,-0.956,-0.183,66112
-0.3,-0.008,-0.956,-0.183,66116
-0.3,-0.005,-0.957,-0.244,66120
-0.3,-0.005,-0.957,-0.183,66124
-0.298,-0.006,-0.956,-0.183,66129
-0.298,-0.006,-0.956,-0.305,66133
-0.298,-0.006,-0.956,-0.305,66137
-0.299,-0.006,-0.957,-0.183,66141
-0.299,-0.006,-0.957,0.0,66145
-0.298,-0.006,-0.958,-0.244,66149
-0.298,-0.006,-0.958,-0.305,66153
-0.298,-0.006,-0.958,-0.305,66157
-0.298,-0.007,-0.96,-0.183,66161
-0.298,-0.007,-0.96,-0.122,66165
-0.298,-0.008,-0.959,-0.183,66169
-0.298,-0.008,-0.959,-0.244,66173
-0.298,-0.008,-0.959,-0.244,66177
-0.297,-0.008,-0.958,-0.244,66181
-0.297,-0.008,-0.958,-0.183,66185
-0.297,-0.006,-0.958,-0.183,66189
-0.297,-0.006,-0.958,-0.061,66193
-0.296,-0.007,-0.96,-0.061,66197
-0.296,-0.007,-0.96,-0.061,66201
-0.296,-0.007,-0.96,-0.122,66205
-0.296,-0.007,-0.96,-0.244,66209
-0.296,-0.007,-0.96,-0.183,66213
-0.297,-0.008,-0.96,-0.244,66217
-0.297,-0.008,-0.96,-0.244,66221
-0.297,-0.008,-0.96,-0.183,66225
-0.296,-0.008,-0.96,-0.061,66229
-0.296,-0.008,-0.96,-0.183,66233
-0.296,-0.006,-0.96,-0.244,66237
-0.296,-0.006,-0.96,-0.244,66241
-0.296,-0.006,-0.96,-0.244,66245
-0.295,-0.008,-0.959,-0.183,66249
-0.295,-0.008,-0.959,-0.244,66253
-0.296,-0.008,-0.96,-0.122,66257
-0.296,-0.008,-0.96,-0.122,66261
-0.296,-0.008,-0.96,-0.122,66265
-0.297,-0.008,-0.961,-0.305,66269
-0.297,-0.008,-0.961,-0.366,66273
-0.295,-0.008,-0.96,-0.122,66277
-0.295,-0.008,-0.96,-0.183,66281
-0.295,-0.008,-0.96,-0.183,66285
-0.296,-0.008,-0.959,-0.244,66289
-0.296,-0.008,-0.959,-0.244,66293
-0.296,-0.006,-0.959,-0.183,66297
-0.296,-0.006,-0.959,-0.183,66301
-0.296,-0.006,-0.959,-0.183,66305
-0.298,-0.007,-0.957,-0.305,66310
-0.298,-0.007,-0.957,-0.183,66314
-0.298,-0.008,-0.958,0.0,66317
-0.298,-0.008,-0.958,-0.061,66321
-0.298,-0.008,-0.958,-0.061,66326
-0.298,-0.007,-0.958,-0.122,66330
-0.298,-0.007,-0.958,-0.183,66334
-0.3,-0.008,-0.958,-0.244,66338
-0.3,-0.008,-0.958,-0.183,66342
-0.298,-0.008,-0.958,-0.183,66346
-0.298,-0.008,-0.958,-0.183,66350
-0.298,-0.008,-0.958,-0.244,66354
-0.298,-0.006,-0.958,-0.122,66358
-0.298,-0.006,-0.958,-0.244,66362
-0.301,-0.006,-0.958,-0.244,66366
-0.301,-0.006,-0.958,-0.244,66370
-0.301,-0.006,-0.958,-0.305,66374
-0.299,-0.006,-0.956,-0.244,66378
-0.299,-0.006,-0.956,-0.244,66382
-0.3,-0.006,-0.957,-0.305,66386
-0.3,-0.006,-0.957,-0.305,66390
-0.3,-0.006,-0.957,-0.305,66394
-0.299,-0.007,-0.957,-0.183,66398
-0.299,-0.007,-0.957,-0.244,66402
-0.302,-0.007,-0.957,-0.183,66406
-0.302,-0.007,-0.957,-0.122,66410
-0.302,-0.007,-0.957,-0.122,66414
-0.301,-0.01,-0.956,-0.305,66418
-0.301,-0.01,-0.956,-0.244,66422
-0.299,-0.008,-0.956,-0.244,66426
-0.299,-0.008,-0.956,-0.122,66430
-0.299,-0.008,-0.956,-0.122,66434
-0.297,-0.01,-0.958,-0.061,66438
-0.297,-0.01,-0.958,-0.183,66442
-0.299,-0.009,-0.959,-0.122,66446
-0.299,-0.009,-0.959,-0.122,66450
-0.299,-0.009,-0.959,-0.122,66454
-0.298,-0.009,-0.958,-0.183,66458
-0.298,-0.009,-0.958,-0.122,66462
-0.298,-0.008,-0.957,-0.305,66466
-0.298,-0.008,-0.957,-0.305,66470
-0.295,-0.009,-0.958,0.0,66474
-0.295,-0.009,-0.958,0.0,66478
-0.295,-0.009,-0.958,-0.061,66482
-0.297,-0.009,-0.958,-0.183,66486
-0.297,-0.009,-0.958,-0.244,66490
-0.298,-0.007,-0.959,-0.183,66494
-0.298,-0.007,-0.959,-0.183,66498
-0.298,-0.007,-0.959,-0.183,66502
-0.296,-0.01,-0.958,-0.122,66506
-0.296,-0.01,-0.958,-0.183,66510
-0.298,-0.008,-0.96,-0.183,66515
-0.298,-0.008,-0.96,-0.183,66519
-0.298,-0.008,-0.96,-0.244,66523
-0.297,-0.008,-0.96,-0.244,66527
-0.297,-0.008,-0.96,-0.244,66531
-0.295,-0.008,-0.958,-0.244,66535
-0.295,-0.008,-0.958,-0.244,66539
-0.295,-0.008,-0.958,-0.305,66543
-0.295,-0.007,-0.959,-0.183,66547
-0.295,-0.007,-0.959,-0.122,66551
-0.296,-0.007,-0.959,-0.122,66555
-0.296,-0.007,-0.959,-0.305,66559
-0.296,-0.007,-0.959,-0.305,66563
-0.295,-0.006,-0.957,-0.366,66567
-0.295,-0.006,-0.957,-0.183,66571
-0.295,-0.006,-0.958,-0.244,66575
-0.295,-0.006,-0.958,-0.183,66579
-0.295,-0.006,-0.958,-0.183,66583
-0.298,-0.006,-0.96,-0.305,66587
-0.298,-0.006,-0.96,-0.183,66591
-0.297,-0.006,-0.96,-0.305,66595
-0.297,-0.006,-0.96,-0.183,66599
-0.297,-0.006,-0.96,-0.183,66603
-0.297,-0.006,-0.959,-0.122,66607
-0.297,-0.006,-0.959,-0.244,66611
-0.296,-0.006,-0.959,-0.183,66615
-0.296,-0.006,-0.959,-0.244,66619
-0.296,-0.006,-0.959,-0.244,66623
-0.298,-0.005,-0.959,-0.366,66627
-0.298,-0.005,-0.959,-0.305,66631
-0.298,-0.006,-0.958,-0.366,66635
-0.298,-0.006,-0.958,-0.305,66639
-0.299,-0.007,-0.958,-0.183,66643
-0.299,-0.007,-0.958,-0.183,66647
-0.299,-0.007,-0.958,-0.305,66651
-0.298,-0.007,-0.958,-0.305,66655
-0.298,-0.007,-0.958,-0.183,66659
-0.299,-0.007,-0.958,-0.427,66663
-0.299,-0.007,-0.958,-0.427,66667
-0.299,-0.007,-0.958,-0.244,66671
-0.298,-0.007,-0.958,-0.122,66675
-0.298,-0.007,-0.958,-0.305,66679
-0.298,-0.009,-0.957,-0.244,66684
-0.298,-0.009,-0.957,-0.244,66688
-0.298,-0.009,-0.957,-0.183,66692
-0.299,-0.009,-0.958,-0.183,66696
-0.299,-0.009,-0.958,-0.244,66700
-0.299,-0.008,-0.96,-0.244,66704
-0.299,-0.008,-0.96,-0.183,66708
-0.299,-0.008,-0.96,-0.183,66712
-0.299,-0.009,-0.959,-0.305,66716
-0.299,-0.009,-0.959,-0.366,66720
-0.298,-0.009,-0.958,-0.244,66724
-0.298,-0.009,-0.958,-0.183,66728
-0.298,-0.009,-0.958,-0.183,66732
-0.298,-0.009,-0.958,-0.244,66736
-0.298,-0.009,-0.958,-0.305,66740
-0.299,-0.009,-0.957,0.0,66744
-0.299,-0.009,-0.957,-0.244,66748
-0.299,-0.009,-0.957,-0.244,66752
-0.299,-0.009,-0.958,-0.366,66756
-0.299,-0.009,-0.958,-0.244,66760
-0.299,-0.009,-0.959,-0.183,66764
-0.299,-0.009,-0.959,-0.244,66768
-0.299,-0.011,-0.957,-0.305,66772
-0.299,-0.011,-0.957,-0.305,66776
-0.299,-0.011,-0.957,-0.183,66780
-0.299,-0.01,-0.958,-0.183,66784
-0.299,-0.01,-0.958,-0.061,66788
-0.299,-0.008,-0.958,-0.122,66792
-0.299,-0.008,-0.958,-0.122,66796
-0.299,-0.008,-0.958,-0.244,66800
-0.298,-0.007,-0.957,-0.183,66804
-0.298,-0.007,-0.957,-0.244,66808
-0.296,-0.006,-0.958,-0.183,66812
-0.296,-0.006,-0.958,-0.183,66816
-0.296,-0.006,-0.958,-0.244,66820
-0.298,-0.006,-0.959,-0.183,66824
-0.298,-0.006,-0.959,-0.183,66828
-0.298,-0.007,-0.959,-0.122,66832
-0.298,-0.007,-0.959,-0.122,66836
-0.298,-0.007,-0.959,0.0,66840
-0.298,-0.007,-0.958,-0.305,66844
-0.298,-0.007,-0.958,-0.305,66848
-0.298,-0.005,-0.958,-0.183,66852
-0.298,-0.005,-0.958,-0.122,66856
-0.298,-0.005,-0.958,-0.122,66860
-0.297,-0.005,-0.959,-0.244,66864
-0.297,-0.005,-0.959,-0.244,66868
-0.295,-0.005,-0.959,-0.183,66873
-0.295,-0.005,-0.959,-0.122,66877
-0.295,-0.005,-0.959,-0.122,66881
-0.295,-0.005,-0.958,-0.122,66885
-0.295,-0.005,-0.958,-0.244,66889
-0.298,-0.006,-0.959,-0.305,66893
-0.298,-0.006,-0.959,-0.305,66897
-0.298,-0.006,-0.959,-0.305,66901
-0.297,-0.007,-0.96,-0.305,66905
-0.297,-0.007,-0.96,-0.244,66909
-0.296,-0.007,-0.96,-0.366,66913
-0.296,-0.007,-0.96,-0.183,66917
-0.299,-0.007,-0.96,-0.244,66921
-0.299,-0.007,-0.96,-0.244,66925
-0.299,-0.007,-0.96,-0.183,66929
-0.296,-0.006,-0.959,-0.305,66933
-0.296,-0.006,-0.959,-0.244,66937
-0.295,-0.008,-0.96,-0.244,66941
-0.295,-0.008,-0.96,-0.244,66945
-0.295,-0.008,-0.96,-0.183,66949
-0.297,-0.009,-0.962,-0.305,66953
-0.297,-0.009,-0.962,-0.366,66957
-0.296,-0.009,-0.959,-0.305,66961
-0.296,-0.009,-0.959,-0.305,66965
-0.296,-0.009,-0.959,-0.183,66969
-0.296,-0.008,-0.959,-0.183,66973
-0.296,-0.008,-0.959,-0.183,66977
-0.297,-0.008,-0.958,-0.183,66981
-0.297,-0.008,-0.958,-0.183,66985
-0.297,-0.008,-0.958,-0.183,66989
-0.296,-0.007,-0.959,-0.244,66993
-0.296,-0.007,-0.959,-0.305,66997
-0.297,-0.009,-0.958,-0.122,67001
-0.297,-0.009,-0.958,-0.122,67005
-0.297,-0.009,-0.958,-0.122,67009
-0.299,-0.009,-0.958,-0.183,67013
-0.299,-0.009,-0.958,-0.244,67017
-0.299,-0.008,-0.958,-0.305,67021
-0.299,-0.008,-0.958,-0.244,67025
-0.299,-0.008,-0.958,-0.244,67030
-0.298,-0.01,-0.958,-0.427,67034
-0.298,-0.01,-0.958,-0.366,67038
-0.3,-0.009,-0.958,-0.305,67042
-0.3,-0.009,-0.958,-0.122,67046
-0.3,-0.009,-0.958,-0.122,67050
-0.3,-0.009,-0.957,-0.122,67054
-0.3,-0.009,-0.957,-0.244,67058
-0.299,-0.009,-0.959,-0.244,67062
-0.299,-0.009,-0.959,-0.183,67066
-0.3,-0.007,-0.957,-0.183,67070
-0.3,-0.007,-0.957,-0.183,67074
-0.3,-0.007,-0.957,-0.366,67078
-0.3,-0.009,-0.959,-0.244,67082
-0.3,-0.009,-0.959,-0.122,67086
-0.299,-0.008,-0.958,-0.122,67090
-0.299,-0.008,-0.958,-0.122,67094
-0.299,-0.008,-0.958,-0.244,67098
-0.299,-0.006,-0.957,-0.244,67102
-0.299,-0.006,-0.957,-0.183,67106
-0.299,-0.007,-0.958,-0.183,67110
-0.299,-0.007,-0.958,-0.183,67114
-0.299,-0.007,-0.958,-0.244,67118
-0.299,-0.008,-0.958,-0.183,67122
-0.299,-0.008,-0.958,-0.183,67126
-0.298,-0.008,-0.958,-0.183,67130
-0.298,-0.008,-0.958,-0.244,67134
-0.298,-0.008,-0.958,-0.244,67138
-0.298,-0.009,-0.959,-0.427,67142
-0.298,-0.009,-0.959,-0.244,67146
-0.297,-0.008,-0.959,-0.244,67150
-0.297,-0.008,-0.959,-0.122,67154
-0.297,-0.008,-0.959,-0.122,67158
-0.298,-0.008,-0.958,-0.183,67162
-0.298,-0.008,-0.958,-0.244,67166
-0.297,-0.009,-0.958,-0.244,67170
-0.297,-0.009,-0.958,-0.122,67174
-0.297,-0.009,-0.958,-0.122,67178
-0.297,-0.008,-0.96,-0.244,67183
-0.297,-0.008,-0.96,-0.305,67187
-0.299,-0.008,-0.959,-0.244,67191
-0.299,-0.008,-0.959,-0.244,67195
-0.297,-0.007,-0.96,-0.122,67199
-0.297,-0.007,-0.96,-0.122,67203
-0.297,-0.007,-0.96,-0.183,67207
-0.297,-0.008,-0.96,-0.244,67211
-0.297,-0.008,-0.96,-0.244,67215
-0.297,-0.007,-0.958,-0.061,67219
-0.297,-0.007,-0.958,-0.061,67223
-0.297,-0.007,-0.958,-0.305,67227
-0.297,-0.008,-0.959,-0.305,67231
-0.297,-0.008,-0.959,-0.183,67235
-0.297,-0.008,-0.958,-0.183,67239
-0.297,-0.008,-0.958,-0.183,67243
-0.297,-0.008,-0.958,-0.305,67247
-0.296,-0.006,-0.959,-0.366,67251
-0.296,-0.006,-0.959,-0.122,67255
-0.297,-0.009,-0.959,-0.183,67259
-0.297,-0.009,-0.959,-0.183,67263
-0.297,-0.009,-0.959,-0.183,67267
-0.297,-0.008,-0.959,-0.305,67271
-0.297,-0.008,-0.959,-0.305,67275
-0.298,-0.008,-0.96,-0.244,67279
-0.298,-0.008,-0.96,-0.244,67283
-0.298,-0.008,-0.96,-0.244,67287
-0.298,-0.009,-0.958,-0.183,67291
-0.298,-0.009,-0.958,-0.183,67295
-0.298,-0.008,-0.959,-0.183,67299
-0.298,-0.008,-0.959,-0.305,67303
-0.298,-0.008,-0.959,-0.305,67307
-0.298,-0.008,-0.958,-0.122,67311
-0.298,-0.008,-0.958,-0.244,67315
-0.298,-0.007,-0.958,-0.305,67319
-0.298,-0.007,-0.958,-0.183,67323
-0.298,-0.007,-0.958,-0.183,67327
-0.298,-0.006,-0.958,-0.244,67331
-0.298,-0.006,-0.958,-0.244,67335
-0.299,-0.007,-0.957,-0.244,67339
-0.299,-0.007,-0.957,-0.366,67343
-0.3,-0.007,-0.956,-0.122,67347
-0.3,-0.007,-0.956,-0.122,67351
-0.3,-0.007,-0.956,-0.244,67355
-0.3,-0.007,-0.957,-0.122,67359
-0.3,-0.007,-0.957,-0.305,67363
-0.298,-0.008,-0.958,-0.183,67367
-0.298,-0.008,-0.958,-0.183,67372
-0.298,-0.008,-0.958,-0.122,67376
-0.298,-0.008,-0.958,-0.183,67380
-0.298,-0.008,-0.958,-0.183,67384
-0.299,-0.009,-0.957,-0.183,67388
-0.299,-0.009,-0.957,-0.183,67392
-0.299,-0.009,-0.957,-0.122,67396
-0.298,-0.009,-0.957,-0.183,67400
-0.298,-0.009,-0.957,-0.244,67404
-0.3,-0.008,-0.958,-0.244,67408
-0.3,-0.008,-0.958,-0.183,67412
-0.3,-0.008,-0.958,-0.183,67416
-0.299,-0.008,-0.958,-0.244,67420
-0.299,-0.008,-0.958,-0.244,67424
-0.297,-0.009,-0.959,-0.122,67428
-0.297,-0.009,-0.959,-0.183,67432
-0.297,-0.009,-0.959,-0.183,67436
-0.299,-0.009,-0.957,-0.244,67440
-0.299,-0.009,-0.957,-0.183,67444
-0.297,-0.007,-0.959,-0.244,67448
-0.297,-0.007,-0.959,-0.183,67452
-0.297,-0.007,-0.959,-0.183,67456
-0.297,-0.009,-0.959,-0.122,67460
-0.297,-0.009,-0.959,-0.183,67464
-0.297,-0.01,-0.957,-0.122,67468
-0.297,-0.01,-0.957,-0.183,67472
-0.297,-0.01,-0.957,-0.183,67476
-0.297,-0.008,-0.959,-0.244,67480
-0.297,-0.008,-0.959,-0.122,67484
-0.298,-0.007,-0.959,-0.244,67488
-0.298,-0.007,-0.959,-0.183,67492
-0.297,-0.007,-0.958,-0.183,67496
-0.297,-0.007,-0.958,-0.183,67500
-0.297,-0.007,-0.958,-0.183,67504
-0.297,-0.008,-0.958,-0.122,67508
-0.297,-0.008,-0.958,-0.305,67512
-0.299,-0.008,-0.959,-0.122,67516
-0.299,-0.008,-0.959,-0.122,67520
-0.299,-0.008,-0.959,-0.122,67524
-0.298,-0.006,-0.959,-0.305,67528
-0.298,-0.006,-0.959,-0.183,67533
-0.297,-0.007,-0.958,-0.122,67537
-0.297,-0.007,-0.958,-0.122,67541
-0.297,-0.007,-0.958,-0.244,67545
-0.298,-0.006,-0.96,-0.244,67549
-0.298,-0.006,-0.96,-0.244,67553
-0.299,-0.008,-0.96,-0.244,67557
-0.299,-0.008,-0.96,-0.183,67561
-0.299,-0.008,-0.96,-0.183,67565
-0.297,-0.007,-0.958,-0.183,67569
-0.297,-0.007,-0.958,-0.244,67573
-0.299,-0.006,-0.959,-0.183,67577
-0.299,-0.006,-0.959,-0.183,67581
-0.299,-0.006,-0.959,-0.183,67585
-0.297,-0.006,-0.958,-0.244,67589
-0.297,-0.006,-0.958,-0.366,67593
-0.297,-0.007,-0.957,-0.244,67597
-0.297,-0.007,-0.957,-0.183,67601
-0.297,-0.007,-0.957,-0.183,67605
-0.299,-0.008,-0.956,-0.122,67609
-0.299,-0.008,-0.956,-0.244,67613
-0.299,-0.008,-0.958,-0.244,67617
-0.299,-0.008,-0.958,-0.244,67621
-0.298,-0.007,-0.959,-0.122,67625
-0.298,-0.007,-0.959,-0.122,67629
-0.298,-0.007,-0.959,-0.244,67633
-0.299,-0.008,-0.957,-0.122,67637
-0.299,-0.008,-0.957,-0.122,67641
-0.298,-0.007,-0.958,-0.305,67645
-0.298,-0.007,-0.958,-0.305,67649
-0.298,-0.007,-0.958,-0.122,67653
-0.298,-0.009,-0.957,-0.183,67657
-0.298,-0.009,-0.957,-0.244,67661
-0.296,-0.008,-0.958,-0.122,67665
-0.296,-0.008,-0.958,-0.122,67669
-0.296,-0.008,-0.958,-0.122,67673
-0.298,-0.007,-0.958,-0.183,67677
-0.298,-0.007,-0.958,-0.244,67681
-0.298,-0.009,-0.959,-0.244,67685
-0.298,-0.009,-0.959,-0.244,67689
-0.298,-0.009,-0.959,-0.244,67693
-0.298,-0.009,-0.959,-0.244,67698
-0.298,-0.009,-0.959,-0.061,67702
-0.298,-0.009,-0.959,-0.122,67706
-0.298,-0.009,-0.959,-0.183,67710
-0.298,-0.009,-0.959,-0.183,67714
-0.298,-0.009,-0.958,-0.122,67718
-0.298,-0.009,-0.958,-0.244,67722
-0.3,-0.009,-0.956,-0.244,67726
-0.3,-0.009,-0.956,-0.061,67730
-0.3,-0.009,-0.956,-0.061,67734
-0.298,-0.01,-0.957,-0.305,67738
-0.298,-0.01,-0.957,-0.305,67742
-0.296,-0.01,-0.958,-0.122,67746
-0.296,-0.01,-0.958,-0.122,67750
-0.296,-0.01,-0.958,-0.122,67754
-0.297,-0.009,-0.957,-0.244,67758
-0.297,-0.009,-0.957,-0.183,67762
-0.299,-0.009,-0.958,-0.183,67766
-0.299,-0.009,-0.958,-0.244,67770
-0.298,-0.008,-0.958,-0.183,67774
-0.298,-0.008,-0.958,-0.183,67778
-0.298,-0.008,-0.958,-0.305,67782
-0.297,-0.008,-0.958,-0.366,67786
-0.297,-0.008,-0.958,-0.183,67790
-0.298,-0.007,-0.957,-0.244,67794
-0.298,-0.007,-0.957,-0.244,67798
-0.298,-0.007,-0.957,-0.244,67802
-0.297,-0.007,-0.96,-0.061,67806
-0.297,-0.007,-0.96,-0.122,67810
-0.297,-0.005,-0.958,-0.122,67814
-0.297,-0.005,-0.958,-0.122,67818
-0.297,-0.005,-0.958,-0.305,67822
-0.297,-0.006,-0.958,-0.244,67826
-0.297,-0.006,-0.958,-0.244,67830
-0.299,-0.006,-0.959,-0.244,67834
-0.299,-0.006,-0.959,-0.244,67838
-0.299,-0.006,-0.959,-0.244,67842
-0.299,-0.006,-0.959,-0.244,67846
-0.299,-0.006,-0.959,-0.244,67850
-0.297,-0.006,-0.959,-0.305,67854
-0.297,-0.006,-0.959,-0.244,67858
-0.297,-0.006,-0.959,-0.244,67862
-0.298,-0.008,-0.959,-0.305,67866
-0.298,-0.008,-0.959,-0.244,67871
-0.297,-0.005,-0.957,-0.244,67875
-0.297,-0.005,-0.957,-0.427,67879
-0.297,-0.005,-0.957,-0.427,67883
-0.297,-0.006,-0.958,-0.244,67887
-0.297,-0.006,-0.958,-0.122,67891
-0.298,-0.008,-0.958,-0.305,67895
-0.298,-0.008,-0.958,-0.183,67899
-0.297,-0.008,-0.959,-0.061,67903
-0.297,-0.008,-0.959,-0.061,67907
-0.297,-0.008,-0.959,-0.244,67911
-0.297,-0.008,-0.958,-0.183,67915
-0.297,-0.008,-0.958,-0.122,67919
-0.299,-0.007,-0.959,-0.122,67923
-0.299,-0.007,-0.959,-0.122,67927
-0.299,-0.007,-0.959,-0.183,67931
-0.298,-0.01,-0.958,-0.183,67935
-0.298,-0.01,-0.958,-0.244,67939
-0.298,-0.011,-0.957,-0.244,67943
-0.298,-0.011,-0.957,-0.244,67947
-0.298,-0.011,-0.957,-0.244,67951
-0.298,-0.01,-0.958,-0.183,67955
-0.298,-0.01,-0.958,-0.122,67959
-0.298,-0.01,-0.959,-0.244,67963
-0.298,-0.01,-0.959,-0.244,67967
-0.298,-0.01,-0.959,-0.183,67971
-0.298,-0.009,-0.959,-0.183,67975
-0.298,-0.009,-0.959,-0.244,67979
-0.297,-0.009,-0.958,-0.183,67983
-0.297,-0.009,-0.958,-0.183,67987
-0.297,-0.009,-0.958,-0.183,67991
-0.298,-0.01,-0.958,-0.244,67995
-0.298,-0.01,-0.958,-0.305,67999
-0.298,-0.01,-0.958,-0.305,68003
-0.298,-0.01,-0.958,-0.183,68007
-0.298,-0.01,-0.958,-0.183,68011
-0.299,-0.007,-0.959,-0.122,68015
-0.299,-0.007,-0.959,-0.244,68019
-0.297,-0.007,-0.959,-0.244,68023
-0.297,-0.007,-0.959,-0.183,68027
-0.297,-0.007,-0.959,-0.183,68032
-0.298,-0.007,-0.959,-0.183,68036
-0.298,-0.007,-0.959,-0.305,68040
-0.298,-0.006,-0.96,-0.244,68044
-0.298,-0.006,-0.96,-0.305,68048
-0.3,-0.007,-0.958,-0.183,68052
-0.3,-0.007,-0.958,-0.183,68056
-0.3,-0.007,-0.958,-0.305,68060
-0.299,-0.007,-0.958,-0.305,68064
-0.299,-0.007,-0.958,-0.122,68068
-0.298,-0.008,-0.959,-0.183,68072
-0.298,-0.008,-0.959,-0.183,68076
-0.298,-0.008,-0.959,-0.244,68080
-0.297,-0.006,-0.958,-0.183,68084
-0.297,-0.006,-0.958,-0.122,68088
-0.299,-0.006,-0.96,-0.244,68092
-0.299,-0.006,-0.96,-0.244,68096
-0.299,-0.006,-0.96,-0.122,68100
-0.297,-0.005,-0.957,-0.183,68104
-0.297,-0.005,-0.957,-0.183,68108
-0.299,-0.006,-0.958,-0.366,68112
-0.299,-0.006,-0.958,-0.366,68116
-0.299,-0.006,-0.958,-0.366,68120
-0.298,-0.008,-0.959,-0.183,68124
-0.298,-0.008,-0.959,-0.183,68128
-0.297,-0.006,-0.96,-0.122,68132
-0.297,-0.006,-0.96,-0.183,68136
