Acc_X,Acc_Y,Acc_Z,Rot_Z,Millis
-0.4,-0.96,0.024,6.531,16506.0
-0.38,-0.959,-0.01,2.319,16529.0
-0.377,-0.968,-0.025,0.427,16548.0
-0.371,-0.985,-0.03,1.709,16568.0
-0.354,-0.949,-0.019,0.244,16587.0
-0.351,-0.95,-0.016,0.61,16607.0
-0.374,-0.954,-0.017,1.953,16632.0
-0.368,-0.955,-0.01,0.244,16651.0
-0.352,-0.946,-0.004,0.488,16673.0
-0.371,-0.958,-0.001,0.366,16693.0
-0.35,-0.95,-0.007,-1.892,16712.0
-0.378,-0.965,-0.037,-0.793,16732.0
-0.351,-0.952,-0.02,-1.099,16750.0
-0.35,-0.947,-0.011,0.122,16770.0
-0.36,-0.947,0.001,1.099,16790.0
-0.357,-0.956,-0.014,0.854,16809.0
-0.378,-0.957,-0.004,-2.258,16828.0
-0.354,-0.95,-0.004,-3.052,16847.0
-0.342,-0.941,0.006,-2.38,16867.0
-0.339,-0.934,0.008,-0.793,16888.0
-0.355,-0.939,-0.0,0.366,16908.0
-0.388,-0.967,-0.02,0.671,16926.0
-0.383,-0.97,-0.007,-1.587,16946.0
-0.354,-0.952,0.008,-3.235,16966.0
-0.339,-0.94,-0.0,-3.174,16987.0
-0.336,-0.941,-0.013,-1.404,17005.0
-0.372,-0.961,-0.021,0.0,17025.0
-0.344,-0.963,-0.015,-1.465,17045.0
-0.333,-0.951,-0.022,-0.671,17066.0
-0.344,-0.941,-0.004,0.305,17087.0
-0.352,-0.946,0.003,0.0,17107.0
-0.354,-0.951,0.001,-1.465,17128.0
-0.343,-0.95,-0.008,-0.427,17147.0
-0.349,-0.953,-0.002,0.061,17165.0
-0.357,-0.958,-0.006,-1.038,17188.0
-0.367,-0.954,0.001,-0.183,17207.0
-0.349,-0.954,0.001,-1.77,17228.0
-0.353,-0.95,-0.006,-0.549,17249.0
-0.344,-0.947,-0.01,-0.488,17268.0
-0.364,-0.951,-0.002,-0.977,17288.0
-0.354,-0.953,-0.001,-2.136,17305.0
-0.334,-0.949,-0.002,-1.038,17323.0
-0.34,-0.953,-0.007,-0.427,17345.0
-0.37,-0.96,-0.013,0.183,17367.0
-0.349,-0.948,-0.001,-1.892,17386.0
-0.334,-0.949,-0.01,-0.854,17406.0
-0.331,-0.95,-0.011,-0.671,17426.0
-0.341,-0.953,-0.021,0.0,17449.0
-0.365,-0.96,-0.017,1.099,17467.0
-0.356,-0.95,0.001,0.244,17487.0
-0.376,-0.964,0.003,0.366,17507.0
-0.351,-0.953,0.002,-1.038,17527.0
-0.354,-0.945,0.009,-0.61,17549.0
-0.35,-0.945,0.004,-0.732,17568.0
-0.36,-0.957,-0.006,0.671,17586.0
-0.358,-0.964,-0.015,-0.977,17604.0
-0.347,-0.957,-0.002,-1.282,17624.0
-0.342,-0.95,-0.005,-1.099,17645.0
-0.334,-0.944,0.001,-0.122,17664.0
-0.346,-0.95,-0.004,0.305,17686.0
-0.365,-0.971,-0.032,-0.549,17705.0
-0.341,-0.961,-0.025,-1.648,17723.0
-0.33,-0.943,-0.007,-0.549,17741.0
-0.338,-0.943,0.004,0.183,17764.0
-0.333,-0.945,0.001,1.404,17784.0
-0.383,-0.972,-0.017,1.404,17803.0
-0.363,-0.973,-0.015,-1.709,17822.0
-0.338,-0.955,-0.009,-1.709,17840.0
-0.338,-0.944,-0.004,-0.427,17866.0
-0.348,-0.95,-0.004,-0.244,17885.0
-0.38,-0.961,-0.007,0.427,17904.0
-0.345,-0.953,0.001,-1.77,17924.0
-0.336,-0.948,-0.007,-1.038,17944.0
-0.33,-0.941,-0.004,0.549,17964.0
-0.351,-0.947,0.003,1.831,17983.0
-0.365,-0.961,-0.007,0.732,18002.0
-0.341,-0.964,-0.017,0.427,18024.0
-0.334,-0.962,-0.022,1.038,18043.0
-0.351,-0.969,-0.026,-0.061,18067.0
-0.315,-0.944,-0.035,2.502,18087.0
-0.315,-0.922,-0.012,8.545,18108.0
-0.34,-0.94,0.006,15.198,18130.0
-0.4,-0.975,0.016,15.625,18148.0
-0.425,-0.969,0.056,7.202,18168.0
-0.37,-0.934,0.069,-0.549,18189.0
-0.348,-0.918,0.044,0.549,18208.0
-0.354,-0.914,0.061,4.639,18228.0
-0.432,-0.965,0.031,4.395,18245.0
-0.395,-0.953,0.039,-1.221,18265.0
-0.35,-0.935,0.042,-1.526,18284.0
-0.358,-0.94,0.031,0.793,18304.0
-0.413,-0.965,0.017,1.526,18324.0
-0.423,-0.979,0.005,-3.052,18342.0
-0.344,-0.943,0.012,-4.517,18364.0
-0.333,-0.93,0.019,-2.319,18384.0
-0.339,-0.933,0.021,0.916,18402.0
-0.4,-0.959,0.028,0.61,18423.0
-0.383,-0.951,0.026,-2.808,18441.0
-0.347,-0.937,0.024,-3.235,18459.0
-0.34,-0.93,0.03,0.0,18480.0
-0.367,-0.944,0.028,1.404,18500.0
-0.383,-0.963,0.016,-0.427,18520.0
-0.364,-0.953,0.014,-2.197,18541.0
-0.368,-0.953,0.023,-0.61,18563.0
-0.365,-0.948,0.031,-0.916,18583.0
-0.352,-0.942,0.029,-1.16,18601.0
-0.362,-0.941,0.033,-0.061,18625.0
-0.374,-0.95,0.023,0.244,18643.0
-0.383,-0.955,0.028,-1.648,18665.0
-0.378,-0.955,0.031,-2.441,18684.0
-0.367,-0.943,0.031,-2.93,18704.0
-0.353,-0.943,0.018,-2.136,18727.0
-0.347,-0.938,0.022,-1.099,18745.0
-0.361,-0.952,0.014,-1.282,18766.0
-0.347,-0.947,0.017,-1.648,18788.0
-0.343,-0.943,0.019,-0.549,18806.0
-0.345,-0.934,0.035,0.854,18826.0
-0.371,-0.945,0.032,1.587,18845.0
-0.384,-0.958,0.021,-0.61,18864.0
-0.359,-0.952,0.019,-2.38,18887.0
-0.342,-0.946,0.019,-1.16,18905.0
-0.364,-0.948,0.021,0.488,18923.0
-0.377,-0.961,0.016,0.549,18941.0
-0.386,-0.965,0.017,-1.038,18959.0
-0.357,-0.953,0.023,-3.052,18978.0
-0.339,-0.937,0.023,-1.221,19000.0
-0.358,-0.937,0.02,0.488,19018.0
-0.392,-0.965,0.012,-0.427,19039.0
-0.333,-0.948,0.025,-2.686,19061.0
-0.341,-0.946,0.029,-0.427,19080.0
-0.353,-0.95,0.007,0.488,19100.0
-0.377,-0.958,0.009,-0.671,19120.0
-0.35,-0.954,0.009,-2.441,19139.0
-0.311,-0.936,0.016,-0.305,19159.0
-0.347,-0.951,0.012,2.38,19177.0
-0.382,-0.956,0.034,2.014,19198.0
-0.364,-0.947,0.031,-1.343,19220.0
-0.347,-0.943,0.014,0.122,19242.0
-0.36,-0.951,0.017,1.587,19261.0
-0.354,-0.952,0.027,2.319,19279.0
-0.389,-0.965,0.016,0.793,19300.0
-0.36,-0.938,0.025,-1.099,19320.0
-0.349,-0.92,0.042,0.977,19340.0
-0.355,-0.932,0.047,0.977,19361.0
-0.337,-0.942,0.025,1.526,19380.0
-0.379,-0.956,0.011,2.197,19399.0
-0.35,-0.951,0.0,-0.61,19419.0
-0.329,-0.936,0.006,0.366,19439.0
-0.331,-0.936,0.005,2.563,19459.0
-0.365,-0.951,0.011,4.944,19479.0
-0.397,-0.96,0.016,3.906,19498.0
-0.372,-0.958,0.008,-0.366,19516.0
-0.349,-0.944,0.012,0.183,19537.0
-0.354,-0.939,0.026,2.747,19557.0
-0.391,-0.947,0.03,4.944,19576.0
-0.424,-0.974,0.009,1.587,19595.0
-0.504,-0.984,0.076,0.854,19613.0
-0.367,-0.971,0.014,-5.249,19632.0
-0.339,-0.967,-0.104,-0.366,19653.0
-0.266,-0.942,-0.148,11.108,19672.0
-0.213,-0.961,-0.217,30.701,19692.0
-0.19,-0.965,-0.229,45.044,19711.0
-0.283,-0.962,-0.112,56.213,19731.0
-0.395,-0.989,-0.023,55.969,19750.0
-0.493,-0.986,0.055,41.687,19769.0
-0.492,-0.958,0.099,27.771,19788.0
-0.447,-0.881,0.14,19.775,19808.0
-0.45,-0.798,0.263,20.874,19828.0
-0.491,-0.73,0.412,21.301,19848.0
-0.549,-0.731,0.496,18.616,19869.0
-0.589,-0.75,0.492,7.324,19891.0
-0.584,-0.802,0.386,-1.77,19911.0
-0.602,-0.806,0.378,-3.235,19932.0
-0.624,-0.809,0.385,-6.592,19950.0
-0.645,-0.802,0.441,-8.789,19970.0
-0.678,-0.808,0.434,-17.273,19990.0
-0.653,-0.862,0.293,-33.02,20011.0
-0.571,-0.914,0.124,-48.523,20029.0
-0.522,-0.933,0.02,-53.284,20049.0
-0.452,-0.936,-0.053,-58.655,20067.0
-0.335,-0.886,-0.044,-53.711,20086.0
-0.281,-0.878,-0.056,-45.227,20106.0
-0.221,-0.88,-0.115,-37.17,20127.0
-0.215,-0.917,-0.153,-32.898,20146.0
-0.229,-0.959,-0.183,-28.931,20168.0
-0.209,-0.935,-0.171,-24.658,20187.0
-0.242,-0.986,-0.228,-18.677,20205.0
-0.224,-1.02,-0.462,-20.325,20226.0
-0.217,-0.996,-0.339,-14.587,20245.0
-0.076,-0.962,-0.426,-5.798,20266.0
0.012,-0.996,-0.57,13.55,20285.0
0.079,-0.968,-0.568,38.391,20306.0
-0.006,-0.993,-0.572,55.969,20325.0
-0.136,-0.988,-0.466,67.993,20343.0
-0.307,-0.992,-0.333,72.876,20361.0
-0.372,-0.928,-0.145,71.899,20381.0
-0.471,-0.866,0.042,75.806,20399.0
-0.597,-0.811,0.223,73.914,20419.0
-0.494,-0.773,0.304,86.121,20440.0
-0.732,-0.656,0.484,53.223,20459.0
-0.746,-0.597,0.652,36.743,20478.0
-0.78,-0.621,0.664,24.78,20497.0
-0.855,-0.744,0.509,2.502,20520.0
-0.735,-0.736,0.447,-8.423,20540.0
-0.731,-0.767,0.4,-9.766,20560.0
-0.73,-0.781,0.399,-14.771,20579.0
-0.692,-0.82,0.344,-21.606,20598.0
-0.66,-0.845,0.276,-30.701,20617.0
-0.602,-0.858,0.216,-38.757,20637.0
-0.526,-0.849,0.189,-40.771,20657.0
-0.499,-0.857,0.16,-38.94,20675.0
-0.486,-0.868,0.126,-40.527,20693.0
-0.48,-0.862,0.14,-42.542,20711.0
-0.439,-0.839,0.162,-42.542,20733.0
-0.408,-0.87,0.061,-44.128,20751.0
-0.37,-0.907,-0.042,-46.387,20772.0
-0.347,-0.936,-0.105,-47.241,20790.0
-0.338,-0.937,-0.127,-46.204,20809.0
-0.288,-0.933,-0.131,-44.25,20829.0
-0.224,-0.908,-0.133,-36.865,20849.0
-0.215,-0.918,-0.175,-29.48,20868.0
-0.231,-0.945,-0.215,-25.94,20886.0
-0.237,-0.967,-0.238,-27.161,20906.0
-0.22,-0.967,-0.24,-23.499,20927.0
-0.167,-0.961,-0.255,-19.714,20946.0
-0.157,-0.974,-0.295,-11.719,20966.0
-0.174,-0.998,-0.369,-6.958,20986.0
-0.145,-1.003,-0.387,-0.366,21005.0
-0.161,-0.996,-0.372,11.475,21024.0
-0.156,-1.02,-0.424,14.526,21044.0
-0.167,-1.012,-0.389,21.973,21065.0
-0.202,-0.989,-0.315,30.64,21086.0
-0.263,-0.977,-0.238,38.147,21107.0
-0.259,-0.949,-0.151,41.992,21127.0
-0.276,-0.915,-0.096,48.523,21147.0
-0.357,-0.887,-0.009,55.908,21166.0
-0.441,-0.883,0.061,55.603,21184.0
-0.48,-0.879,0.106,51.025,21202.0
-0.484,-0.853,0.17,45.166,21221.0
-0.5,-0.812,0.236,37.537,21242.0
-0.497,-0.791,0.27,35.828,21261.0
-0.581,-0.813,0.259,33.447,21282.0
-0.608,-0.812,0.292,29.358,21301.0
-0.642,-0.816,0.357,26.367,21322.0
-0.674,-0.817,0.397,18.372,21341.0
-0.693,-0.822,0.4,6.226,21361.0
-0.655,-0.833,0.347,-5.615,21381.0
-0.66,-0.844,0.307,-10.315,21400.0
-0.652,-0.867,0.27,-18.799,21420.0
-0.537,-0.872,0.193,-29.724,21443.0
-0.476,-0.861,0.16,-29.663,21467.0
-0.461,-0.861,0.139,-28.015,21487.0
-0.483,-0.895,0.108,-28.198,21510.0
-0.445,-0.913,0.075,-31.921,21528.0
-0.397,-0.917,0.043,-33.569,21548.0
-0.412,-0.935,0.016,-32.837,21566.0
-0.403,-0.933,-0.005,-35.034,21584.0
-0.365,-0.912,-0.004,-35.706,21602.0
-0.346,-0.907,-0.017,-35.4,21621.0
-0.293,-0.883,-0.031,-32.166,21640.0
-0.335,-0.936,-0.097,-27.405,21661.0
-0.327,-0.963,-0.161,-27.405,21679.0
-0.27,-0.975,-0.219,-32.532,21701.0
-0.213,-0.966,-0.236,-32.593,21720.0
-0.203,-0.955,-0.228,-23.865,21738.0
-0.184,-0.978,-0.303,-17.273,21758.0
-0.193,-0.989,-0.306,-5.859,21780.0
-0.196,-0.994,-0.308,-0.916,21801.0
-0.178,-0.979,-0.278,4.639,21820.0
-0.229,-0.984,-0.265,7.446,21838.0
-0.205,-0.991,-0.305,6.226,21858.0
-0.165,-0.974,-0.308,10.132,21876.0
-0.195,-0.972,-0.299,21.362,21896.0
-0.227,-0.964,-0.245,33.142,21914.0
-0.299,-0.97,-0.192,39.307,21932.0
-0.325,-0.949,-0.119,39.734,21950.0
-0.323,-0.92,-0.057,39.185,21970.0
-0.362,-0.912,-0.018,39.185,21988.0
-0.409,-0.907,0.033,37.781,22006.0
-0.418,-0.89,0.067,37.476,22024.0
-0.439,-0.88,0.084,38.879,22043.0
-0.463,-0.88,0.094,39.734,22061.0
-0.5,-0.865,0.169,38.391,22081.0
-0.528,-0.872,0.183,34.668,22101.0
-0.562,-0.875,0.207,28.809,22120.0
-0.613,-0.868,0.243,23.193,22141.0
-0.633,-0.847,0.319,15.93,22161.0
-0.614,-0.825,0.327,7.935,22181.0
-0.601,-0.837,0.295,2.258,22199.0
-0.579,-0.858,0.24,-6.042,22220.0
-0.573,-0.872,0.2,-8.545,22238.0
-0.555,-0.876,0.181,-12.756,22258.0
-0.523,-0.876,0.167,-14.404,22279.0
-0.528,-0.883,0.16,-15.686,22300.0
-0.507,-0.886,0.144,-18.799,22320.0
-0.498,-0.905,0.098,-24.963,22340.0
-0.471,-0.899,0.083,-28.137,22360.0
-0.436,-0.891,0.069,-28.259,22382.0
-0.428,-0.896,0.047,-27.527,22401.0
-0.426,-0.888,0.068,-27.71,22421.0
-0.416,-0.892,0.042,-28.198,22441.0
-0.395,-0.913,-0.029,-34.668,22459.0
-0.349,-0.926,-0.093,-36.072,22478.0
-0.3,-0.942,-0.175,-37.781,22499.0
-0.301,-0.959,-0.206,-32.471,22522.0
-0.27,-0.953,-0.212,-32.104,22540.0
-0.234,-0.968,-0.257,-29.297,22560.0
-0.164,-0.963,-0.297,-25.757,22579.0
-0.158,-0.982,-0.343,-17.883,22598.0
-0.207,-1.007,-0.357,-11.047,22620.0
-0.185,-0.975,-0.304,-3.052,22639.0
-0.197,-0.966,-0.267,5.981,22661.0
-0.197,-0.943,-0.239,7.874,22680.0
-0.178,-0.933,-0.241,11.23,22699.0
-0.238,-0.964,-0.27,17.883,22721.0
-0.267,-0.991,-0.307,16.418,22741.0
-0.229,-0.977,-0.286,20.081,22759.0
-0.261,-0.962,-0.234,29.846,22781.0
-0.309,-0.95,-0.179,35.522,22800.0
-0.336,-0.942,-0.142,38.818,22820.0
-0.364,-0.944,-0.113,41.199,22839.0
-0.379,-0.918,-0.048,40.955,22858.0
-0.356,-0.882,-0.008,42.603,22879.0
-0.411,-0.873,0.025,46.814,22897.0
-0.513,-0.896,0.058,45.532,22918.0
-0.525,-0.873,0.121,39.612,22941.0
-0.542,-0.856,0.185,36.987,22961.0
-0.555,-0.832,0.258,34.546,22980.0
-0.576,-0.794,0.33,29.663,22998.0
-0.65,-0.808,0.351,23.865,23017.0
-0.675,-0.827,0.325,10.071,23037.0
-0.623,-0.836,0.262,0.183,23057.0
-0.595,-0.863,0.192,-4.272,23081.0
-0.566,-0.87,0.178,-7.019,23104.0
-0.558,-0.889,0.142,-11.353,23124.0
-0.522,-0.89,0.135,-15.076,23144.0
-0.483,-0.89,0.122,-15.564,23164.0
-0.473,-0.889,0.107,-14.771,23185.0
-0.465,-0.893,0.086,-15.015,23206.0
-0.482,-0.876,0.139,-10.498,23224.0
-0.517,-0.873,0.168,-12.207,23247.0
-0.493,-0.875,0.14,-19.714,23266.0
-0.452,-0.843,0.159,-20.325,23286.0
-0.524,-0.897,0.091,-19.714,23306.0
-0.469,-0.908,0.035,-28.687,23326.0
-0.406,-0.903,-0.002,-30.212,23346.0
-0.364,-0.9,-0.035,-28.381,23364.0
-0.368,-0.908,-0.06,-25.269,23384.0
-0.378,-0.906,-0.052,-25.757,23405.0
-0.338,-0.908,-0.079,-26.733,23425.0
-0.286,-0.901,-0.118,-26.367,23445.0
-0.281,-0.928,-0.18,-22.217,23463.0
-0.284,-0.959,-0.235,-20.508,23482.0
-0.271,-0.975,-0.281,-16.602,23502.0
-0.276,-0.998,-0.305,-14.587,23520.0
-0.248,-1.008,-0.338,-12.146,23540.0
-0.233,-1.008,-0.352,-3.418,23562.0
-0.248,-1.008,-0.344,2.197,23580.0
-0.277,-1.001,-0.313,5.31,23601.0
-0.222,-0.974,-0.29,6.775,23621.0
-0.24,-0.968,-0.278,15.198,23642.0
-0.254,-0.947,-0.24,21.973,23661.0
-0.257,-0.925,-0.189,28.015,23679.0
-0.3,-0.919,-0.157,33.997,23699.0
-0.362,-0.933,-0.116,34.912,23718.0
-0.346,-0.906,-0.085,37.781,23738.0
-0.367,-0.895,-0.057,42.847,23761.0
-0.382,-0.854,0.023,47.913,23780.0
-0.448,-0.833,0.101,51.331,23799.0
-0.525,-0.839,0.14,47.852,23819.0
-0.563,-0.838,0.178,42.48,23837.0
-0.598,-0.813,0.241,35.706,23856.0
-0.627,-0.802,0.297,31.616,23874.0
-0.673,-0.815,0.316,25.635,23893.0
-0.719,-0.861,0.257,12.268,23916.0
-0.703,-0.893,0.192,-0.61,23936.0
-0.627,-0.887,0.147,-5.249,23957.0
-0.603,-0.884,0.13,-8.423,23975.0
-0.576,-0.872,0.131,-14.038,23998.0
-0.542,-0.863,0.13,-16.846,24018.0
-0.502,-0.839,0.139,-17.151,24036.0
-0.505,-0.847,0.13,-14.465,24056.0
-0.539,-0.886,0.08,-15.686,24074.0
-0.513,-0.899,0.043,-25.818,24092.0
-0.457,-0.868,0.057,-23.743,24112.0
-0.469,-0.895,0.023,-22.644,24132.0
-0.447,-0.873,0.027,-22.4,24152.0
-0.471,-0.907,0.013,-20.996,24174.0
-0.469,-0.912,-0.02,-24.475,24192.0
-0.417,-0.91,-0.041,-29.724,24213.0
-0.384,-0.921,-0.092,-30.945,24232.0
-0.332,-0.912,-0.111,-28.687,24252.0
-0.354,-0.926,-0.126,-21.301,24274.0
-0.344,-0.928,-0.147,-22.156,24292.0
-0.276,-0.926,-0.168,-19.165,24310.0
-0.268,-0.918,-0.165,-12.268,24332.0
-0.296,-0.918,-0.149,-6.714,24350.0
-0.314,-0.932,-0.156,-2.502,24369.0
-0.359,-0.962,-0.174,-4.211,24388.0
-0.323,-0.95,-0.183,-3.418,24408.0
-0.315,-0.951,-0.184,0.061,24427.0
-0.318,-0.955,-0.199,2.502,24446.0
-0.346,-0.969,-0.21,3.052,24465.0
-0.354,-0.97,-0.22,0.488,24485.0
-0.314,-0.963,-0.228,1.282,24503.0
-0.291,-0.955,-0.245,5.127,24526.0
-0.285,-0.953,-0.234,8.545,24545.0
-0.314,-0.977,-0.273,11.963,24566.0
-0.302,-0.96,-0.238,15.137,24584.0
-0.296,-0.942,-0.222,22.888,24604.0
-0.302,-0.929,-0.211,30.396,24626.0
-0.332,-0.916,-0.17,37.354,24645.0
-0.374,-0.897,-0.115,44.8,24666.0
-0.442,-0.889,-0.055,49.5,24684.0
-0.488,-0.865,0.025,50.232,24703.0
-0.562,-0.871,0.077,47.241,24725.0
-0.588,-0.851,0.136,40.344,24743.0
-0.621,-0.843,0.183,32.104,24766.0
-0.628,-0.824,0.214,23.926,24785.0
-0.624,-0.806,0.263,19.531,24805.0
-0.669,-0.823,0.243,12.756,24824.0
-0.641,-0.832,0.219,3.784,24844.0
-0.63,-0.849,0.177,-1.221,24862.0
-0.615,-0.844,0.176,-6.409,24883.0
-0.585,-0.853,0.143,-10.376,24904.0
-0.563,-0.87,0.108,-11.475,24924.0
-0.543,-0.864,0.11,-11.475,24944.0
-0.546,-0.865,0.115,-12.268,24964.0
-0.524,-0.876,0.101,-17.212,24986.0
-0.49,-0.869,0.085,-19.653,25008.0
-0.449,-0.876,0.031,-18.982,25030.0
-0.471,-0.902,-0.007,-17.334,25050.0
-0.451,-0.891,0.018,-14.771,25070.0
-0.462,-0.914,-0.013,-14.954,25091.0
-0.408,-0.886,0.003,-14.038,25109.0
-0.432,-0.879,0.038,-6.836,25129.0
-0.463,-0.905,0.03,-6.165,25147.0
-0.474,-0.913,0.021,-7.812,25165.0
-0.463,-0.922,-0.012,-9.399,25184.0
-0.466,-0.897,0.033,-9.521,25204.0
-0.466,-0.894,0.046,-8.972,25222.0
-0.451,-0.882,0.043,-9.888,25243.0
-0.449,-0.893,0.033,-11.597,25262.0
-0.438,-0.91,-0.002,-15.015,25280.0
-0.41,-0.923,-0.039,-19.287,25300.0
-0.402,-0.934,-0.077,-20.813,25318.0
-0.32,-0.928,-0.135,-22.217,25341.0
-0.25,-0.943,-0.209,-15.808,25361.0
-0.198,-0.932,-0.231,-6.775,25379.0
-0.241,-0.919,-0.169,7.874,25398.0
-0.361,-0.947,-0.121,18.738,25420.0
-0.448,-0.972,-0.095,13.611,25441.0
-0.413,-0.957,-0.1,10.742,25460.0
-0.414,-0.906,-0.02,15.32,25478.0
-0.473,-0.886,0.045,19.47,25497.0
-0.508,-0.887,0.066,16.541,25515.0
-0.531,-0.897,0.051,10.559,25535.0
-0.536,-0.905,0.053,5.798,25556.0
-0.538,-0.912,0.04,3.052,25576.0
-0.509,-0.902,0.027,-0.427,25597.0
-0.495,-0.898,0.033,-0.061,25614.0
-0.519,-0.917,0.026,-2.014,25633.0
-0.489,-0.915,0.003,-6.775,25655.0
-0.472,-0.917,-0.008,-5.798,25673.0
-0.464,-0.927,-0.019,-8.362,25691.0
-0.418,-0.915,-0.04,-10.986,25710.0
-0.371,-0.903,-0.053,-10.437,25731.0
-0.345,-0.905,-0.084,-7.385,25753.0
-0.357,-0.931,-0.11,-2.625,25771.0
-0.344,-0.928,-0.103,-0.916,25789.0
-0.343,-0.924,-0.103,1.953,25809.0
-0.349,-0.917,-0.095,5.005,25827.0
-0.372,-0.923,-0.094,7.629,25848.0
-0.38,-0.928,-0.091,9.338,25867.0
-0.391,-0.945,-0.114,10.437,25885.0
-0.411,-0.929,-0.083,10.803,25903.0
-0.429,-0.922,-0.061,17.029,25921.0
-0.476,-0.913,-0.029,20.508,25940.0
-0.496,-0.889,0.055,22.095,25961.0
-0.541,-0.873,0.118,22.4,25982.0
-0.599,-0.838,0.212,21.912,26004.0
-0.669,-0.864,0.216,13.306,26024.0
-0.643,-0.865,0.185,1.709,26042.0
-0.614,-0.861,0.157,-7.08,26063.0
-0.575,-0.866,0.119,-9.888,26082.0
-0.557,-0.877,0.089,-11.902,26101.0
-0.552,-0.901,0.059,-13.611,26120.0
-0.52,-0.9,0.056,-16.541,26140.0
-0.512,-0.91,0.039,-21.423,26160.0
-0.454,-0.901,0.021,-23.865,26178.0
-0.427,-0.883,0.015,-20.813,26198.0
-0.413,-0.878,0.014,-16.785,26218.0
-0.448,-0.905,-0.018,-16.357,26238.0
-0.435,-0.923,-0.036,-20.325,26258.0
-0.379,-0.904,-0.049,-21.851,26278.0
-0.377,-0.903,-0.054,-17.212,26301.0
-0.368,-0.905,-0.066,-14.587,26320.0
-0.355,-0.919,-0.109,-10.925,26339.0
-0.376,-0.963,-0.153,-10.742,26358.0
-0.355,-0.958,-0.158,-13.611,26381.0
-0.32,-0.935,-0.15,-12.512,26402.0
-0.311,-0.938,-0.167,-7.324,26422.0
-0.334,-0.946,-0.155,-0.977,26442.0
-0.35,-0.951,-0.145,-1.282,26463.0
-0.346,-0.952,-0.146,-2.991,26483.0
-0.295,-0.935,-0.15,-3.113,26502.0
-0.264,-0.917,-0.158,0.854,26520.0
-0.26,-0.923,-0.189,6.409,26541.0
-0.324,-0.961,-0.207,15.747,26562.0
-0.344,-0.969,-0.21,20.264,26580.0
-0.386,-0.974,-0.185,21.851,26601.0
-0.368,-0.946,-0.132,23.743,26621.0
-0.37,-0.92,-0.078,27.283,26641.0
-0.397,-0.882,-0.009,31.25,26663.0
-0.473,-0.881,0.026,31.006,26683.0
-0.501,-0.88,0.05,27.283,26704.0
-0.505,-0.868,0.063,25.33,26726.0
-0.525,-0.885,0.083,25.696,26745.0
-0.564,-0.861,0.143,23.926,26766.0
-0.619,-0.853,0.181,19.287,26784.0
-0.613,-0.852,0.201,12.756,26804.0
-0.611,-0.85,0.184,10.62,26822.0
-0.621,-0.843,0.215,7.202,26840.0
-0.659,-0.873,0.184,1.526,26859.0
-0.605,-0.867,0.155,-8.423,26878.0
-0.557,-0.861,0.125,-10.437,26898.0
-0.54,-0.863,0.115,-12.878,26918.0
-0.514,-0.855,0.115,-15.198,26937.0
-0.49,-0.873,0.067,-15.747,26956.0
-0.481,-0.886,0.038,-15.32,26976.0
-0.483,-0.913,-0.006,-15.564,26996.0
-0.458,-0.916,-0.018,-16.235,27014.0
-0.444,-0.892,0.024,-14.038,27035.0
-0.432,-0.876,0.034,-12.939,27054.0
-0.433,-0.878,0.038,-11.23,27074.0
-0.461,-0.884,0.04,-11.353,27094.0
-0.455,-0.882,0.02,-13.489,27112.0
-0.449,-0.903,-0.027,-14.648,27132.0
-0.435,-0.914,-0.061,-14.587,27151.0
-0.443,-0.952,-0.109,-17.456,27171.0
-0.386,-0.95,-0.136,-21.973,27190.0
-0.373,-0.951,-0.149,-18.188,27211.0
-0.34,-0.931,-0.122,-13.062,27229.0
-0.344,-0.937,-0.124,-8.85,27250.0
-0.377,-0.954,-0.137,-5.92,27272.0
-0.377,-0.959,-0.149,-8.667,27293.0
-0.314,-0.928,-0.136,-11.169,27313.0
-0.254,-0.906,-0.16,-4.333,27334.0
-0.332,-0.924,-0.133,9.094,27356.0
-0.423,-0.964,-0.134,9.399,27377.0
-0.392,-0.968,-0.152,4.395,27398.0
-0.345,-0.965,-0.174,4.333,27419.0
-0.301,-0.949,-0.191,8.545,27438.0
-0.337,-0.934,-0.159,15.137,27459.0
-0.355,-0.925,-0.118,21.606,27479.0
-0.418,-0.927,-0.074,27.771,27500.0
-0.449,-0.918,-0.027,29.724,27520.0
-0.469,-0.903,0.018,28.687,27538.0
-0.485,-0.885,0.052,24.78,27559.0
-0.519,-0.891,0.08,20.691,27580.0
-0.5,-0.866,0.105,13.977,27604.0
-0.507,-0.849,0.135,14.587,27624.0
-0.517,-0.83,0.166,17.273,27646.0
-0.552,-0.83,0.204,17.883,27668.0
-0.598,-0.836,0.205,13.672,27689.0
-0.621,-0.849,0.219,8.545,27708.0
-0.642,-0.87,0.209,1.831,27726.0
-0.603,-0.876,0.159,-6.958,27744.0
-0.526,-0.863,0.112,-11.353,27764.0
-0.515,-0.87,0.088,-7.324,27783.0
-0.528,-0.895,0.074,-7.874,27803.0
-0.493,-0.874,0.114,-8.423,27827.0
-0.486,-0.864,0.106,-8.789,27848.0
-0.482,-0.865,0.086,-10.742,27869.0
-0.497,-0.871,0.09,-7.69,27892.0
-0.52,-0.909,0.051,-10.193,27913.0
-0.489,-0.903,0.034,-14.282,27931.0
-0.459,-0.885,0.043,-16.296,27949.0
-0.438,-0.866,0.052,-14.771,27969.0
-0.476,-0.895,0.008,-12.573,27991.0
-0.474,-0.9,-0.007,-16.846,28012.0
-0.46,-0.909,-0.029,-20.325,28031.0
-0.434,-0.917,-0.055,-22.278,28051.0
-0.393,-0.916,-0.084,-23.438,28069.0
-0.359,-0.916,-0.116,-20.569,28088.0
-0.359,-0.94,-0.152,-17.029,28108.0
-0.369,-0.964,-0.179,-15.259,28129.0
-0.322,-0.958,-0.18,-14.038,28148.0
-0.303,-0.961,-0.215,-10.498,28167.0
-0.282,-0.957,-0.218,-6.714,28186.0
-0.258,-0.938,-0.198,2.075,28206.0
-0.336,-0.943,-0.157,11.658,28226.0
-0.395,-0.962,-0.14,12.756,28245.0
-0.382,-0.939,-0.111,10.986,28265.0
-0.4,-0.933,-0.097,10.498,28286.0
-0.385,-0.921,-0.08,10.071,28307.0
-0.393,-0.927,-0.085,13.245,28328.0
-0.442,-0.951,-0.103,12.878,28347.0
-0.415,-0.924,-0.075,14.587,28368.0
-0.408,-0.902,-0.032,18.555,28388.0
-0.42,-0.878,0.012,22.522,28408.0
-0.491,-0.888,0.039,25.757,28428.0
-0.541,-0.899,0.074,22.034,28449.0
-0.547,-0.892,0.115,16.296,28468.0
-0.511,-0.864,0.148,12.756,28490.0
-0.508,-0.852,0.156,12.878,28511.0
-0.544,-0.866,0.149,12.024,28531.0
-0.557,-0.858,0.158,9.583,28551.0
-0.571,-0.84,0.212,7.019,28572.0
-0.583,-0.848,0.188,2.563,28592.0
-0.557,-0.862,0.148,-3.845,28612.0
-0.526,-0.869,0.099,-9.155,28631.0
-0.518,-0.886,0.078,-8.789,28654.0
-0.473,-0.875,0.085,-9.46,28675.0
-0.486,-0.874,0.098,-6.042,28696.0
-0.489,-0.865,0.109,-5.066,28715.0
-0.502,-0.881,0.084,-3.967,28735.0
-0.525,-0.899,0.046,-9.155,28753.0
-0.471,-0.885,0.056,-13.916,28771.0
-0.448,-0.848,0.092,-11.841,28789.0
-0.479,-0.862,0.067,-9.46,28808.0
-0.496,-0.877,0.042,-11.536,28828.0
-0.476,-0.924,-0.052,-18.494,28848.0
-0.443,-0.93,-0.089,-21.24,28872.0
-0.417,-0.946,-0.122,-24.78,28891.0
-0.374,-0.933,-0.136,-23.376,28911.0
-0.356,-0.943,-0.177,-20.569,28932.0
-0.353,-0.952,-0.198,-17.151,28953.0
-0.353,-0.97,-0.2,-13.916,28973.0
-0.328,-0.973,-0.218,-11.963,28991.0
-0.305,-0.959,-0.209,-8.484,29011.0
-0.292,-0.933,-0.18,-4.028,29034.0
-0.297,-0.928,-0.172,0.549,29052.0
-0.314,-0.927,-0.161,4.639,29073.0
-0.323,-0.944,-0.179,8.85,29093.0
-0.338,-0.94,-0.161,14.526,29111.0
-0.383,-0.933,-0.111,18.311,29131.0
-0.427,-0.932,-0.089,18.677,29152.0
-0.451,-0.942,-0.077,15.32,29170.0
-0.416,-0.917,-0.07,12.085,29190.0
-0.423,-0.921,-0.059,11.475,29209.0
-0.409,-0.904,-0.03,12.024,29230.0
-0.381,-0.885,-0.021,16.602,29250.0
-0.449,-0.902,-0.021,25.696,29271.0
-0.479,-0.917,-0.002,28.32,29291.0
-0.479,-0.897,0.035,27.893,29310.0
-0.509,-0.884,0.085,25.391,29330.0
-0.521,-0.86,0.14,22.4,29348.0
-0.534,-0.86,0.12,23.193,29366.0
-0.576,-0.855,0.161,21.851,29386.0
-0.594,-0.837,0.216,17.395,29407.0
-0.6,-0.818,0.248,11.719,29430.0
-0.618,-0.815,0.274,6.775,29452.0
-0.632,-0.815,0.267,2.075,29471.0
-0.6,-0.844,0.193,-7.935,29492.0
-0.545,-0.847,0.15,-11.475,29511.0
-0.483,-0.857,0.117,-10.498,29532.0
-0.69,-0.895,0.239,-9.583,29550.0
-0.553,-0.868,0.165,-1.892,29570.0
-0.539,-0.879,0.139,-6.775,29591.0
-0.527,-0.866,0.135,-8.179,29612.0
-0.525,-0.863,0.098,-12.634,29631.0
-0.51,-0.888,0.077,-16.296,29650.0
-0.459,-0.854,0.078,-15.747,29668.0
-0.468,-0.866,0.089,-10.315,29691.0
-0.492,-0.881,0.073,-10.071,29710.0
-0.488,-0.903,0.033,-14.282,29731.0
-0.441,-0.882,0.028,-16.479,29754.0
-0.437,-0.882,0.032,-13.184,29773.0
-0.444,-0.892,-0.008,-9.277,29794.0
-0.421,-0.905,-0.048,-13.55,29813.0
-0.412,-0.889,-0.021,-10.376,29833.0
-0.461,-0.928,-0.052,-10.986,29852.0
-0.432,-0.927,-0.066,-15.259,29872.0
-0.402,-0.937,-0.097,-15.198,29890.0
-0.399,-0.941,-0.134,-12.634,29911.0
-0.391,-0.954,-0.155,-12.695,29931.0
-0.352,-0.948,-0.162,-10.132,29951.0
-0.35,-0.932,-0.14,-3.601,29973.0
-0.359,-0.938,-0.132,-0.244,29992.0
-0.369,-0.924,-0.108,0.977,30011.0
-0.385,-0.934,-0.121,0.977,30031.0
-0.36,-0.921,-0.118,2.808,30053.0
-0.383,-0.911,-0.072,9.277,30075.0
-0.421,-0.918,-0.062,9.705,30099.0
-0.425,-0.926,-0.073,8.057,30117.0
-0.434,-0.929,-0.092,6.348,30137.0
-0.403,-0.93,-0.116,5.737,30157.0
-0.389,-0.939,-0.157,5.798,30176.0
-0.348,-0.937,-0.183,5.798,30194.0
-0.331,-0.932,-0.192,8.911,30212.0
-0.357,-0.93,-0.164,18.738,30231.0
-0.429,-0.939,-0.125,26.367,30252.0
-0.482,-0.941,-0.082,25.818,30270.0
-0.478,-0.918,-0.025,24.292,30291.0
-0.493,-0.892,0.043,24.475,30312.0
-0.53,-0.866,0.087,23.743,30334.0
-0.558,-0.844,0.147,23.376,30357.0
-0.57,-0.84,0.171,21.667,30375.0
-0.588,-0.822,0.219,18.372,30395.0
-0.601,-0.78,0.3,15.991,30417.0
-0.617,-0.769,0.322,10.376,30439.0
-0.627,-0.789,0.269,5.554,30457.0
-0.628,-0.824,0.213,-2.075,30477.0
-0.598,-0.823,0.2,-5.005,30495.0
-0.586,-0.846,0.168,-7.935,30513.0
-0.544,-0.848,0.157,-11.169,30531.0
-0.518,-0.847,0.146,-10.132,30549.0
-0.545,-0.87,0.128,-8.118,30569.0
-0.561,-0.911,0.064,-13.428,30589.0
-0.499,-0.897,0.062,-15.808,30607.0
-0.465,-0.884,0.046,-13.367,30625.0
-0.47,-0.87,0.085,-10.559,30645.0
-0.484,-0.862,0.091,-8.118,30665.0
-0.52,-0.893,0.078,-7.996,30683.0
-0.505,-0.891,0.057,-9.827,30701.0
-0.453,-0.855,0.082,-11.414,30721.0
-0.462,-0.85,0.073,-8.179,30741.0
-0.488,-0.864,0.062,-8.484,30759.0
-0.475,-0.873,0.048,-10.925,30779.0
-0.453,-0.858,0.06,-9.705,30798.0
-0.496,-0.901,0.021,-10.254,30819.0
-0.477,-0.915,-0.019,-14.954,30837.0
-0.427,-0.899,-0.02,-16.907,30856.0
-0.425,-0.911,-0.069,-16.296,30877.0
-0.43,-0.938,-0.128,-18.555,30895.0
-0.384,-0.963,-0.182,-20.081,30915.0
-0.307,-0.95,-0.221,-17.273,30935.0
-0.281,-0.954,-0.26,-8.667,30953.0
-0.316,-0.949,-0.208,2.441,30972.0
-0.363,-0.958,-0.177,7.568,30992.0
-0.413,-0.979,-0.176,5.249,31012.0
-0.366,-0.964,-0.179,2.38,31030.0
-0.319,-0.927,-0.171,6.287,31051.0
-0.32,-0.91,-0.17,15.32,31069.0
-0.328,-0.901,-0.156,24.475,31089.0
-0.386,-0.902,-0.115,32.715,31107.0
-0.475,-0.916,-0.074,36.438,31126.0
-0.498,-0.899,0.008,34.668,31146.0
-0.534,-0.875,0.077,31.921,31167.0
-0.578,-0.854,0.13,25.513,31188.0
-0.588,-0.834,0.172,21.545,31208.0
-0.603,-0.826,0.188,18.921,31228.0
-0.633,-0.822,0.214,15.808,31249.0
-0.619,-0.787,0.28,15.259,31268.0
-0.647,-0.774,0.331,14.221,31286.0
-0.673,-0.792,0.303,6.714,31306.0
-0.681,-0.826,0.234,-3.662,31324.0
-0.636,-0.844,0.179,-10.559,31342.0
-0.591,-0.843,0.161,-14.404,31360.0
-0.561,-0.841,0.157,-14.16,31382.0
-0.552,-0.849,0.139,-14.893,31401.0
-0.531,-0.86,0.101,-16.174,31421.0
-0.542,-0.883,0.063,-18.372,31441.0
-0.514,-0.878,0.068,-21.667,31459.0
-0.46,-0.847,0.086,-19.714,31480.0
-0.459,-0.834,0.1,-14.709,31500.0
-0.504,-0.868,0.048,-14.221,31520.0
-0.487,-0.86,0.057,-17.883,31538.0
-0.491,-0.879,0.025,-17.334,31558.0
-0.469,-0.901,-0.044,-24.536,31579.0
-0.437,-0.925,-0.125,-27.954,31597.0
-0.385,-0.931,-0.16,-30.029,31617.0
-0.368,-0.919,-0.143,-24.658,31635.0
-0.356,-0.927,-0.177,-21.606,31653.0
-0.326,-0.94,-0.187,-18.433,31671.0
-0.322,-0.958,-0.217,-12.39,31692.0
-0.337,-0.981,-0.257,-11.658,31710.0
-0.27,-0.959,-0.266,-9.277,31731.0
-0.256,-0.943,-0.248,-1.77,31750.0
-0.28,-0.941,-0.226,6.714,31769.0
-0.313,-0.951,-0.232,11.658,31790.0
-0.367,-0.967,-0.218,14.282,31812.0
-0.347,-0.948,-0.192,14.832,31831.0
-0.349,-0.935,-0.18,17.944,31849.0
-0.346,-0.911,-0.134,22.949,31870.0
-0.398,-0.895,-0.078,32.471,31892.0
-0.482,-0.888,-0.016,37.231,31914.0
-0.531,-0.879,0.06,35.278,31932.0
-0.551,-0.86,0.127,31.189,31953.0
-0.57,-0.847,0.155,26.306,31972.0
-0.619,-0.843,0.184,22.156,31995.0
-0.629,-0.838,0.208,16.052,32016.0
-0.615,-0.824,0.242,10.254,32037.0
-0.572,-0.785,0.269,8.85,32055.0
-0.596,-0.787,0.284,10.376,32075.0
-0.655,-0.833,0.232,4.333,32095.0
-0.627,-0.848,0.177,-4.578,32114.0
-0.564,-0.838,0.155,-7.629,32134.0
-0.559,-0.852,0.149,-8.484,32153.0
-0.533,-0.845,0.148,-11.536,32173.0
-0.543,-0.857,0.133,-10.742,32194.0
-0.537,-0.872,0.103,-11.719,32212.0
-0.512,-0.873,0.075,-12.085,32231.0
-0.513,-0.887,0.059,-12.756,32253.0
-0.499,-0.867,0.077,-15.991,32274.0
-0.493,-0.874,0.037,-16.846,32296.0
-0.462,-0.88,0.002,-18.86,32318.0
-0.426,-0.875,-0.02,-18.005,32336.0
-0.409,-0.87,-0.031,-13.672,32356.0
-0.478,-0.903,-0.046,-12.024,32375.0
-0.458,-0.915,-0.089,-16.174,32395.0
-0.429,-0.919,-0.108,-19.47,32415.0
-0.37,-0.91,-0.129,-19.104,32435.0
-0.35,-0.908,-0.155,-13.733,32454.0
-0.37,-0.936,-0.229,-10.62,32472.0
-0.368,-0.969,-0.255,-12.756,32492.0
-0.331,-0.973,-0.269,-14.648,32511.0
-0.309,-0.96,-0.231,-6.104,32533.0
-0.294,-0.937,-0.235,5.249,32553.0
-0.337,-0.937,-0.221,11.841,32571.0
-0.355,-0.934,-0.197,15.381,32592.0
-0.401,-0.95,-0.194,15.015,32614.0
-0.386,-0.941,-0.183,14.16,32634.0
-0.37,-0.93,-0.176,16.052,32653.0
-0.418,-0.93,-0.157,19.165,32673.0
-0.419,-0.884,-0.086,22.095,32692.0
-0.474,-0.869,-0.009,28.931,32711.0
-0.504,-0.856,0.06,30.518,32730.0
-0.545,-0.855,0.095,29.907,32748.0
-0.558,-0.847,0.128,25.94,32766.0
-0.572,-0.84,0.153,21.179,32784.0
-0.6,-0.841,0.176,16.724,32803.0
-0.622,-0.858,0.156,11.78,32822.0
-0.596,-0.844,0.176,6.653,32842.0
-0.565,-0.812,0.199,3.723,32861.0
-0.552,-0.789,0.238,4.761,32880.0
-0.584,-0.796,0.233,7.385,32901.0
-0.651,-0.855,0.188,2.563,32922.0
-0.575,-0.85,0.153,-7.507,32944.0
-0.542,-0.849,0.125,-9.338,32963.0
-0.52,-0.842,0.118,-8.545,32984.0
-0.579,-0.884,0.095,-6.287,33005.0
-0.546,-0.902,0.063,-15.808,33025.0
-0.47,-0.872,0.043,-16.541,33045.0
-0.446,-0.84,0.095,-10.864,33064.0
-0.462,-0.827,0.104,-3.479,33081.0
-0.513,-0.872,0.048,-4.272,33101.0
-0.506,-0.883,0.024,-10.986,33123.0
-0.462,-0.869,0.02,-11.353,33141.0
-0.494,-0.882,-0.012,-10.437,33163.0
-0.473,-0.89,-0.034,-13.0,33183.0
-0.451,-0.89,-0.064,-12.878,33202.0
-0.439,-0.895,-0.078,-10.925,33223.0
-0.455,-0.902,-0.083,-9.338,33242.0
-0.482,-0.91,-0.073,-10.803,33263.0
-0.492,-0.942,-0.125,-14.526,33281.0
-0.423,-0.945,-0.188,-19.287,33300.0
-0.372,-0.943,-0.217,-17.334,33319.0
-0.352,-0.924,-0.212,-13.611,33337.0
-0.383,-0.954,-0.241,-8.667,33355.0
-0.381,-0.954,-0.25,-9.399,33373.0
-0.332,-0.933,-0.233,-5.859,33392.0
-0.324,-0.922,-0.219,-0.488,33410.0
-0.333,-0.898,-0.168,8.484,33430.0
-0.382,-0.903,-0.132,14.099,33449.0
-0.426,-0.916,-0.125,14.832,33468.0
-0.448,-0.932,-0.131,11.353,33487.0
-0.443,-0.936,-0.146,9.949,33505.0
-0.427,-0.93,-0.148,9.827,33525.0
-0.419,-0.913,-0.148,10.986,33543.0
-0.426,-0.903,-0.123,15.564,33562.0
-0.48,-0.873,-0.01,23.56,33583.0
-0.567,-0.895,0.042,27.466,33602.0
-0.604,-0.91,0.066,16.846,33622.0
-0.551,-0.886,0.077,8.118,33642.0
-0.555,-0.867,0.079,3.967,33664.0
-0.526,-0.822,0.142,3.418,33682.0
-0.529,-0.804,0.176,7.202,33700.0
-0.608,-0.845,0.152,6.47,33720.0
-0.598,-0.867,0.115,-0.549,33740.0
-0.575,-0.876,0.098,-7.69,33760.0
-0.53,-0.853,0.092,-10.559,33777.0
-0.524,-0.853,0.084,-9.033,33795.0
-0.524,-0.852,0.102,-7.019,33815.0
-0.572,-0.901,0.051,-10.803,33835.0
-0.571,-0.917,0.027,-16.968,33853.0
-0.493,-0.898,0.017,-22.705,33874.0
-0.467,-0.884,-0.008,-22.766,33893.0
-0.46,-0.87,0.013,-18.127,33914.0
-0.528,-0.894,0.021,-14.282,33934.0
-0.554,-0.925,-0.031,-24.658,33954.0
-0.416,-0.899,-0.073,-34.912,33974.0
-0.363,-0.872,-0.076,-31.86,33992.0
-0.376,-0.887,-0.09,-26.55,34012.0
-0.375,-0.895,-0.129,-25.513,34034.0
-0.348,-0.903,-0.147,-26.978,34053.0
-0.332,-0.918,-0.188,-23.071,34072.0
-0.365,-0.954,-0.226,-20.691,34094.0
-0.346,-0.955,-0.239,-21.912,34113.0
-0.309,-0.954,-0.268,-21.912,34135.0
-0.281,-0.957,-0.31,-18.127,34156.0
-0.274,-0.966,-0.325,-14.221,34175.0
-0.274,-0.963,-0.32,-11.78,34192.0
-0.302,-0.986,-0.336,-10.803,34215.0
-0.229,-0.966,-0.35,-7.874,34234.0
-0.204,-0.959,-0.365,-2.197,34253.0
-0.188,-0.932,-0.342,2.686,34272.0
-0.155,-0.903,-0.299,12.695,34291.0
-0.292,-0.94,-0.261,24.902,34312.0
-0.309,-0.921,-0.195,26.917,34331.0
-0.301,-0.907,-0.135,33.203,34351.0
-0.368,-0.906,-0.097,41.687,34370.0
-0.455,-0.913,-0.028,44.067,34390.0
-0.49,-0.907,0.03,39.246,34410.0
-0.511,-0.905,0.056,33.081,34428.0
-0.516,-0.897,0.069,26.306,34450.0
-0.526,-0.883,0.107,24.536,34469.0
-0.519,-0.848,0.156,25.33,34491.0
-0.554,-0.848,0.187,25.146,34512.0
-0.573,-0.83,0.231,21.973,34532.0
-0.609,-0.856,0.23,17.639,34551.0
-0.623,-0.87,0.221,5.371,34573.0
-0.578,-0.863,0.187,-3.784,34594.0
-0.514,-0.858,0.143,-7.69,34614.0
-0.476,-0.848,0.13,-5.005,34636.0
-0.531,-0.895,0.102,-2.747,34657.0
-0.524,-0.914,0.076,-7.507,34676.0
-0.461,-0.891,0.085,-10.437,34697.0
-0.462,-0.877,0.105,-9.094,34719.0
-0.469,-0.835,0.19,-2.869,34737.0
-0.539,-0.875,0.132,-2.991,34761.0
-0.525,-0.9,0.055,-10.803,34780.0
-0.456,-0.887,0.037,-15.93,34799.0
-0.47,-0.884,0.036,-12.878,34820.0
-0.458,-0.908,-0.044,-16.418,34838.0
-0.424,-0.921,-0.109,-17.822,34857.0
-0.401,-0.931,-0.142,-22.4,34879.0
-0.345,-0.887,-0.111,-15.137,34900.0
-0.393,-0.938,-0.166,-13.611,34918.0
-0.335,-0.938,-0.199,-14.526,34940.0
-0.356,-0.966,-0.251,-13.306,34960.0
-0.326,-0.953,-0.254,-12.634,34978.0
-0.323,-0.957,-0.261,-8.972,35000.0
-0.302,-0.964,-0.288,-8.057,35019.0
-0.266,-0.959,-0.285,-3.296,35038.0
-0.289,-0.947,-0.263,3.296,35059.0
-0.295,-0.948,-0.265,5.066,35077.0
-0.297,-0.958,-0.274,9.155,35097.0
-0.317,-0.959,-0.279,9.338,35118.0
-0.304,-0.934,-0.231,13.672,35136.0
-0.331,-0.918,-0.183,20.63,35158.0
-0.357,-0.901,-0.136,26.855,35178.0
-0.401,-0.895,-0.093,33.569,35198.0
-0.447,-0.904,-0.068,36.072,35221.0
-0.452,-0.891,-0.031,36.865,35239.0
-0.501,-0.895,0.007,37.048,35258.0
-0.595,-0.901,0.063,32.349,35278.0
-0.633,-0.889,0.114,23.987,35298.0
-0.605,-0.861,0.154,15.564,35318.0
-0.561,-0.834,0.164,12.451,35338.0
-0.583,-0.827,0.179,13.0,35359.0
-0.586,-0.81,0.224,12.268,35379.0
-0.616,-0.812,0.246,9.46,35398.0
-0.619,-0.819,0.25,2.38,35419.0
-0.631,-0.856,0.191,-3.174,35438.0
-0.565,-0.854,0.138,-9.46,35458.0
-0.526,-0.839,0.149,-8.789,35476.0
-0.512,-0.833,0.141,-6.287,35494.0
-0.531,-0.846,0.142,-4.272,35512.0
-0.567,-0.872,0.132,-6.287,35531.0
-0.551,-0.893,0.099,-13.733,35553.0
-0.503,-0.89,0.085,-15.076,35572.0
-0.513,-0.904,0.05,-15.991,35590.0
-0.478,-0.89,0.062,-19.714,35610.0
-0.472,-0.878,0.064,-18.86,35629.0
-0.451,-0.863,0.075,-16.113,35647.0
-0.456,-0.868,0.062,-14.587,35667.0
-0.438,-0.894,0.012,-18.127,35687.0
-0.395,-0.88,-0.02,-17.761,35706.0
-0.393,-0.895,-0.063,-13.367,35726.0
-0.426,-0.941,-0.105,-11.719,35746.0
-0.444,-0.951,-0.103,-16.724,35764.0
-0.382,-0.931,-0.116,-18.738,35787.0
-0.347,-0.936,-0.156,-18.372,35805.0
-0.328,-0.928,-0.159,-13.672,35826.0
-0.34,-0.948,-0.19,-10.62,35845.0
-0.349,-0.975,-0.222,-9.583,35865.0
-0.293,-0.972,-0.248,-10.681,35885.0
-0.254,-0.94,-0.224,-3.418,35905.0
-0.266,-0.93,-0.215,4.211,35923.0
-0.28,-0.934,-0.213,10.498,35943.0
-0.339,-0.946,-0.192,17.029,35963.0
-0.357,-0.94,-0.172,21.118,35983.0
-0.392,-0.938,-0.124,23.071,36001.0
-0.407,-0.91,-0.08,24.597,36024.0
-0.434,-0.909,-0.059,27.039,36043.0
-0.479,-0.911,-0.022,23.926,36063.0
-0.476,-0.898,0.001,19.775,36085.0
-0.469,-0.878,0.019,21.362,36103.0
-0.484,-0.874,0.032,24.475,36121.0
-0.559,-0.897,0.036,25.024,36140.0
-0.555,-0.89,0.068,20.569,36159.0
-0.55,-0.867,0.115,17.029,36180.0
-0.557,-0.848,0.141,15.93,36202.0
-0.584,-0.855,0.148,15.137,36221.0
-0.627,-0.881,0.141,9.949,36240.0
-0.612,-0.866,0.161,3.296,36261.0
-0.59,-0.853,0.183,-0.122,36281.0
-0.555,-0.83,0.176,-3.723,36300.0
-0.553,-0.834,0.158,-5.92,36320.0
-0.553,-0.852,0.126,-6.775,36338.0
-0.544,-0.87,0.103,-6.775,36356.0
-0.547,-0.884,0.087,-10.437,36374.0
-0.481,-0.868,0.081,-13.062,36394.0
-0.462,-0.86,0.077,-8.85,36412.0
-0.51,-0.884,0.074,-5.92,36433.0
-0.537,-0.913,0.053,-10.437,36454.0
-0.5,-0.903,0.059,-13.184,36473.0
-0.5,-0.905,0.051,-13.611,36493.0
-0.475,-0.899,0.052,-17.639,36511.0
-0.431,-0.876,0.062,-17.7,36531.0
-0.448,-0.888,0.039,-12.634,36551.0
-0.476,-0.919,0.014,-13.062,36571.0
-0.419,-0.883,0.047,-12.573,36589.0
-0.435,-0.903,0.027,-9.949,36611.0
-0.415,-0.875,0.065,-10.498,36630.0
-0.433,-0.867,0.078,-5.005,36649.0
-0.47,-0.903,0.026,-6.775,36670.0
-0.461,-0.923,-0.013,-12.512,36691.0
-0.409,-0.882,0.014,-13.062,36710.0
-0.44,-0.893,-0.005,-8.972,36730.0
-0.404,-0.876,-0.0,-9.46,36750.0
-0.397,-0.884,-0.041,-6.226,36769.0
-0.454,-0.949,-0.116,-9.338,36788.0
-0.408,-0.935,-0.121,-13.062,36808.0
-0.416,-0.946,-0.157,-13.855,36827.0
-0.415,-0.966,-0.193,-16.541,36847.0
-0.367,-0.946,-0.199,-15.503,36865.0
-0.356,-0.948,-0.205,-11.475,36883.0
-0.359,-0.935,-0.184,-9.827,36905.0
-0.342,-0.929,-0.183,-6.592,36923.0
-0.357,-0.927,-0.172,-5.005,36942.0
-0.361,-0.927,-0.147,-3.174,36961.0
-0.346,-0.924,-0.168,-0.305,36981.0
-0.359,-0.914,-0.151,2.258,37003.0
-0.415,-0.932,-0.135,3.052,37024.0
-0.413,-0.913,-0.094,2.869,37043.0
-0.374,-0.896,-0.1,1.343,37061.0
-0.375,-0.888,-0.095,4.7,37080.0
-0.396,-0.888,-0.083,6.348,37099.0
-0.471,-0.946,-0.143,4.333,37118.0
-0.427,-0.942,-0.166,-1.038,37137.0
-0.392,-0.922,-0.163,-0.671,37161.0
-0.399,-0.923,-0.153,0.427,37182.0
-0.391,-0.921,-0.163,1.465,37201.0
-0.436,-0.94,-0.16,1.038,37221.0
-0.401,-0.923,-0.164,0.61,37239.0
-0.408,-0.925,-0.159,1.587,37257.0
-0.408,-0.924,-0.158,0.549,37277.0
-0.463,-0.948,-0.165,-1.038,37296.0
-0.409,-0.936,-0.174,-5.249,37316.0
-0.367,-0.921,-0.197,-4.944,37334.0
-0.35,-0.923,-0.223,-1.648,37354.0
-0.344,-0.951,-0.276,-0.549,37373.0
-0.318,-1.0,-0.406,-2.38,37391.0
-0.302,-0.996,-0.393,-0.244,37409.0
-0.33,-0.995,-0.358,7.385,37428.0
-0.296,-0.939,-0.276,13.245,37446.0
-0.295,-0.881,-0.144,23.193,37465.0
-0.358,-0.833,0.017,34.241,37485.0
-0.409,-0.814,0.107,39.124,37504.0
-0.511,-0.837,0.149,39.307,37526.0
-0.634,-0.925,0.077,25.024,37546.0
-0.547,-0.875,0.109,11.108,37567.0
-0.495,-0.795,0.202,14.038,37586.0
-0.546,-0.796,0.223,15.93,37608.0
-0.583,-0.834,0.171,10.193,37628.0
-0.573,-0.874,0.105,0.732,37648.0
-0.567,-0.902,0.052,-3.052,37668.0
-0.535,-0.907,0.045,-5.737,37690.0
-0.516,-0.911,0.02,-10.681,37710.0
-0.476,-0.903,0.015,-13.672,37728.0
-0.46,-0.909,-0.003,-13.306,37746.0
-0.444,-0.885,0.028,-9.705,37764.0
-0.45,-0.897,0.003,-7.69,37784.0
-0.431,-0.863,0.042,-6.226,37804.0
-0.451,-0.874,0.015,-2.93,37825.0
-0.45,-0.902,-0.061,-5.066,37844.0
-0.467,-0.921,-0.095,-9.827,37863.0
-0.428,-0.903,-0.09,-10.01,37887.0
-0.449,-0.909,-0.086,-9.521,37905.0
-0.435,-0.92,-0.133,-8.972,37927.0
-0.412,-0.936,-0.185,-12.878,37947.0
-0.369,-0.93,-0.204,-12.268,37968.0
-0.364,-0.915,-0.208,-7.324,37991.0
-0.378,-0.944,-0.239,-5.188,38009.0
-0.398,-0.963,-0.254,-3.357,38032.0
-0.392,-0.947,-0.22,-0.427,38051.0
-0.377,-0.92,-0.172,2.747,38069.0
-0.413,-0.925,-0.152,5.066,38089.0
-0.408,-0.913,-0.136,2.991,38109.0
-0.407,-0.91,-0.145,4.211,38130.0
-0.445,-0.911,-0.115,7.751,38150.0
-0.479,-0.924,-0.1,5.859,38172.0
-0.466,-0.917,-0.103,0.366,38192.0
-0.444,-0.917,-0.101,-1.221,38210.0
-0.426,-0.926,-0.148,-3.906,38232.0
-0.43,-0.932,-0.171,-3.296,38249.0
-0.414,-0.937,-0.161,-2.258,38267.0
-0.432,-0.944,-0.141,-0.183,38285.0
-0.443,-0.938,-0.116,-2.686,38305.0
-0.454,-0.932,-0.094,-2.747,38325.0
-0.431,-0.928,-0.101,-5.249,38344.0
-0.388,-0.916,-0.112,-5.066,38362.0
-0.404,-0.927,-0.111,-3.418,38382.0
-0.342,-0.875,-0.039,1.953,38400.0
-0.329,-0.851,-0.007,12.146,38418.0
-0.333,-0.855,-0.016,21.24,38439.0
-0.425,-0.915,-0.072,28.992,38457.0
-0.441,-0.933,-0.097,29.114,38475.0
-0.428,-0.927,-0.069,31.189,38495.0
-0.439,-0.901,-0.014,31.128,38517.0
-0.443,-0.861,0.053,31.128,38536.0
-0.491,-0.851,0.112,31.738,38557.0
-0.572,-0.835,0.214,31.86,38578.0
-0.599,-0.823,0.251,25.635,38596.0
-0.629,-0.831,0.233,15.747,38619.0
-0.57,-0.775,0.263,8.179,38640.0
-0.608,-0.773,0.26,9.583,38663.0
-0.615,-0.788,0.218,6.897,38682.0
-0.617,-0.831,0.13,1.038,38705.0
-0.628,-0.872,0.062,-5.127,38726.0
-0.581,-0.851,0.047,-15.198,38748.0
-0.531,-0.825,0.06,-17.7,38767.0
-0.499,-0.847,-0.051,-18.86,38786.0
-0.478,-0.866,-0.128,-18.738,38806.0
-0.513,-0.916,-0.194,-20.813,38826.0
-0.463,-0.903,-0.204,-20.081,38849.0
-0.449,-0.914,-0.256,-19.592,38870.0
-0.42,-0.927,-0.303,-20.508,38890.0
-0.432,-0.926,-0.286,-14.771,38911.0
-0.448,-0.931,-0.297,-9.766,38929.0
-0.366,-0.896,-0.274,-10.742,38952.0
-0.357,-0.894,-0.278,-4.761,38971.0
-0.352,-0.887,-0.259,1.404,38989.0
-0.412,-0.908,-0.269,6.775,39008.0
-0.437,-0.897,-0.228,2.93,39028.0
-0.42,-0.886,-0.225,2.197,39047.0
-0.413,-0.873,-0.206,6.287,39070.0
-0.452,-0.873,-0.178,10.315,39090.0
-0.48,-0.905,-0.205,8.667,39111.0
-0.48,-0.9,-0.202,8.423,39131.0
-0.519,-0.926,-0.198,9.216,39149.0
-0.532,-0.933,-0.188,7.446,39167.0
-0.546,-0.941,-0.2,0.671,39188.0
-0.519,-0.951,-0.236,-9.399,39212.0
-0.449,-0.908,-0.208,-12.146,39231.0
-0.472,-0.907,-0.186,-7.019,39252.0
-0.481,-0.897,-0.101,-5.615,39277.0
-0.548,-0.933,-0.098,-5.798,39297.0
-0.499,-0.9,-0.033,-12.878,39317.0
-0.488,-0.866,0.064,-10.864,39338.0
-0.452,-0.836,0.105,-9.46,39358.0
-0.479,-0.852,0.12,-5.432,39377.0
-0.476,-0.85,0.143,-9.399,39395.0
-0.494,-0.861,0.136,-8.728,39413.0
-0.446,-0.855,0.137,-10.376,39433.0
-0.42,-0.834,0.167,-7.263,39452.0
-0.395,-0.8,0.204,-2.869,39470.0
-0.394,-0.798,0.226,3.113,39491.0
-0.433,-0.761,0.288,12.451,39509.0
-0.556,-0.886,0.147,7.385,39531.0
-0.475,-0.877,0.093,2.258,39549.0
-0.536,-0.959,-0.033,0.183,39569.0
-0.494,-0.936,-0.025,-9.46,39587.0
-0.381,-0.899,-0.058,-12.756,39605.0
-0.321,-0.863,-0.048,-5.31,39626.0
-0.36,-0.873,-0.08,4.456,39644.0
-0.562,-1.021,-0.204,3.052,39667.0
-0.465,-1.001,-0.201,-8.789,39687.0
-0.371,-0.938,-0.182,-8.24,39707.0
-0.355,-0.905,-0.152,-3.357,39727.0
-0.379,-0.898,-0.132,0.427,39745.0
-0.407,-0.883,-0.094,5.31,39766.0
-0.43,-0.937,-0.171,3.235,39786.0
-0.405,-0.928,-0.168,2.319,39804.0
-0.41,-0.937,-0.194,2.38,39822.0
-0.469,-0.956,-0.192,0.793,39844.0
-0.527,-1.016,-0.299,-9.033,39865.0
-0.543,-1.081,-0.375,-22.888,39885.0
-0.513,-1.128,-0.465,-42.236,39903.0
-0.259,-0.973,-0.307,-40.649,39923.0
-0.233,-0.893,-0.142,-21.423,39941.0
-0.262,-0.842,-0.021,-6.104,39959.0
-0.355,-0.838,0.073,2.747,39979.0
-0.337,-0.826,0.122,6.042,39997.0
-0.376,-0.853,0.13,13.062,40015.0
-0.398,-0.862,0.147,8.545,40039.0
-0.39,-0.841,0.16,8.24,40061.0
-0.399,-0.812,0.199,13.062,40081.0
-0.47,-0.837,0.196,16.235,40099.0
-0.493,-0.863,0.188,14.587,40119.0
-0.513,-0.903,0.167,10.437,40138.0
-0.507,-0.916,0.159,3.54,40160.0
-0.531,-0.938,0.125,0.366,40180.0
-0.516,-0.947,0.104,-6.042,40198.0
-0.467,-0.941,0.082,-8.911,40216.0
-0.494,-0.976,0.031,-13.733,40238.0
-0.442,-0.972,0.036,-17.883,40256.0
-0.359,-0.912,0.07,-18.25,40277.0
-0.387,-0.927,0.041,-15.076,40299.0
-0.347,-0.898,0.108,-10.742,40320.0
-0.385,-0.927,0.074,-7.629,40341.0
-0.356,-0.909,0.089,-9.521,40360.0
-0.28,-0.878,0.101,-6.348,40379.0
-0.351,-0.918,0.053,-0.244,40398.0
-0.362,-0.925,0.058,-0.305,40418.0
-0.388,-0.936,0.072,1.892,40440.0
-0.387,-0.941,0.078,-0.549,40459.0
-0.368,-0.933,0.084,0.244,40480.0
-0.383,-0.941,0.071,1.892,40499.0
-0.403,-0.936,0.092,3.418,40518.0
-0.416,-0.941,0.092,0.488,40539.0
-0.38,-0.921,0.083,-1.16,40559.0
-0.348,-0.903,0.089,2.197,40578.0
-0.413,-0.925,0.099,5.432,40600.0
-0.384,-0.908,0.113,3.601,40619.0
-0.383,-0.885,0.161,6.897,40639.0
-0.401,-0.885,0.137,7.324,40661.0
-0.375,-0.866,0.139,7.019,40679.0
-0.391,-0.868,0.141,10.986,40701.0
-0.412,-0.881,0.119,16.663,40722.0
-0.46,-0.921,0.068,19.165,40742.0
-0.546,-0.974,0.047,11.719,40764.0
-0.505,-0.956,0.051,3.906,40786.0
-0.461,-0.885,0.115,-0.366,40805.0
-0.457,-0.885,0.052,-0.793,40824.0
-0.408,-0.91,-0.072,-6.592,40844.0
-0.484,-0.99,-0.161,-4.578,40864.0
-0.465,-1.004,-0.204,-11.475,40882.0
-0.425,-0.974,-0.171,-12.634,40905.0
-0.37,-0.934,-0.144,-11.78,40924.0
-0.371,-0.95,-0.183,-8.606,40945.0
-0.388,-0.976,-0.221,-9.949,40964.0
-0.347,-0.987,-0.254,-14.099,40984.0
-0.312,-0.977,-0.261,-11.414,41002.0
-0.327,-0.972,-0.24,-5.737,41022.0
-0.321,-0.989,-0.285,-7.019,41042.0
-0.354,-0.999,-0.28,-7.08,41063.0
-0.297,-0.962,-0.24,-7.263,41081.0
-0.288,-0.929,-0.167,0.366,41102.0
-0.309,-0.912,-0.108,10.071,41121.0
-0.374,-0.922,-0.068,19.47,41139.0
-0.456,-0.937,-0.006,18.066,41159.0
-0.433,-0.892,0.072,14.648,41177.0
-0.423,-0.848,0.152,13.916,41196.0
-0.396,-0.816,0.181,12.695,41215.0
-0.49,-0.861,0.17,17.944,41233.0
-0.532,-0.878,0.178,11.292,41254.0
-0.492,-0.859,0.212,6.409,41273.0
-0.463,-0.865,0.175,3.235,41294.0
-0.43,-0.857,0.148,3.174,41315.0
-0.516,-0.91,0.119,6.897,41334.0
-0.539,-0.957,0.06,-2.197,41354.0
-0.474,-0.954,0.025,-10.376,41372.0
-0.417,-0.936,0.015,-10.315,41390.0
-0.427,-0.937,0.029,-6.714,41410.0
-0.427,-0.925,0.047,-5.981,41430.0
-0.427,-0.93,0.026,-7.08,41450.0
-0.382,-0.932,-0.012,-10.193,41473.0
-0.367,-0.93,-0.014,-6.897,41493.0
-0.384,-0.935,-0.022,-4.272,41513.0
-0.392,-0.926,0.006,-3.052,41533.0
-0.387,-0.895,0.062,-2.502,41553.0
-0.399,-0.893,0.058,-3.113,41572.0
-0.401,-0.909,0.053,-4.272,41590.0
-0.39,-0.929,-0.003,-6.714,41610.0
-0.436,-0.967,-0.036,-5.188,41628.0
-0.408,-0.948,-0.011,-7.263,41649.0
-0.396,-0.916,0.029,-5.066,41667.0
-0.384,-0.943,-0.03,-7.141,41689.0
-0.365,-0.949,-0.077,-8.057,41711.0
-0.39,-0.969,-0.088,-5.615,41731.0
-0.358,-0.97,-0.12,-7.507,41752.0
-0.325,-0.959,-0.127,-7.385,41772.0
-0.305,-0.949,-0.113,-3.052,41791.0
-0.335,-0.948,-0.091,1.16,41809.0
-0.38,-0.95,-0.075,1.038,41828.0
-0.371,-0.963,-0.086,-2.502,41848.0
-0.331,-0.952,-0.106,-2.747,41867.0
-0.351,-0.959,-0.108,0.916,41889.0
-0.421,-0.992,-0.109,2.563,41907.0
-0.38,-0.982,-0.104,-2.991,41928.0
-0.354,-0.958,-0.067,-4.211,41948.0
-0.33,-0.927,-0.026,-2.136,41966.0
-0.312,-0.909,-0.001,1.587,41985.0
-0.325,-0.901,0.003,7.751,42003.0
-0.399,-0.928,0.009,15.198,42025.0
-0.443,-0.941,0.033,13.306,42044.0
-0.426,-0.925,0.072,9.338,42062.0
-0.378,-0.88,0.113,6.287,42087.0
-0.395,-0.865,0.129,10.376,42106.0
-0.464,-0.898,0.128,12.451,42131.0
-0.497,-0.908,0.147,9.644,42153.0
-0.485,-0.924,0.106,3.784,42177.0
-0.444,-0.905,0.105,-0.671,42198.0
-0.426,-0.883,0.124,3.296,42219.0
-0.467,-0.927,0.081,0.61,42238.0
-0.47,-0.957,0.013,-3.845,42256.0
-0.422,-0.956,-0.02,-10.925,42278.0
-0.38,-0.928,-0.006,-6.592,42299.0
-0.364,-0.912,0.003,-3.601,42319.0
-0.42,-0.934,0.013,0.916,42338.0
-0.371,-0.895,0.048,-1.16,42358.0
-0.353,-0.898,0.001,0.61,42378.0
-0.31,-0.868,-0.004,5.188,42397.0
-0.305,-0.84,0.026,17.09,42419.0
-0.286,-0.785,0.097,26.611,42437.0
-0.425,-0.845,0.065,37.048,42456.0
-0.563,-0.938,-0.013,33.02,42476.0
-0.494,-0.962,-0.154,23.315,42494.0
-0.47,-0.948,-0.153,19.104,42514.0
-0.478,-0.943,-0.177,17.334,42532.0
-0.515,-0.962,-0.191,16.357,42551.0
-0.575,-0.985,-0.184,6.042,42571.0
-0.526,-0.966,-0.207,-2.075,42589.0
-0.444,-0.942,-0.238,-4.7,42607.0
-0.363,-0.908,-0.221,-5.493,42625.0
-0.429,-0.93,-0.254,-3.479,42646.0
-0.481,-0.934,-0.208,-3.845,42665.0
-0.503,-0.875,-0.129,-3.906,42684.0
-0.392,-0.919,-0.209,-13.855,42704.0
-0.371,-0.873,-0.163,0.305,42725.0
-0.432,-0.885,-0.16,4.456,42745.0
-0.459,-0.911,-0.163,4.822,42766.0
-0.449,-0.873,-0.097,-5.859,42788.0
-0.453,-0.902,-0.064,1.221,42808.0
-0.476,-0.913,-0.132,4.15,42829.0
-0.499,-0.941,-0.185,-2.258,42849.0
-0.454,-0.934,-0.193,-5.798,42868.0
-0.425,-0.913,-0.179,-2.93,42890.0
-0.491,-0.929,-0.137,0.854,42910.0
-0.464,-0.903,-0.069,-1.099,42929.0
-0.437,-0.869,-0.012,-0.122,42948.0
-0.455,-0.855,0.043,5.859,42966.0
-0.516,-0.872,0.089,6.348,42984.0
-0.533,-0.877,0.113,3.662,43004.0
-0.571,-0.9,0.102,-4.761,43022.0
-0.5,-0.871,0.123,-10.559,43041.0
-0.484,-0.862,0.118,-11.78,43060.0
-0.44,-0.903,0.162,-11.353,43080.0
-0.428,-0.838,0.146,-2.991,43100.0
-0.474,-0.863,0.137,3.052,43121.0
-0.624,-0.826,0.167,17.456,43140.0
-0.471,-0.849,0.17,-0.977,43160.0
-0.433,-0.838,0.145,3.052,43180.0
-0.498,-0.888,0.089,2.38,43199.0
-0.54,-0.948,0.012,-2.563,43220.0
-0.467,-0.967,-0.059,-12.634,43242.0
-0.394,-0.923,-0.028,-9.888,43263.0
-0.42,-0.918,-0.008,-5.92,43281.0
-0.405,-0.904,0.014,-4.272,43302.0
-0.431,-0.917,0.003,-0.916,43321.0
-0.473,-0.942,-0.012,-3.418,43342.0
-0.413,-0.934,-0.039,-9.46,43363.0
-0.365,-0.921,-0.051,-7.935,43383.0
-0.356,-0.907,-0.044,-2.808,43401.0
-0.432,-0.93,-0.037,2.808,43420.0
-0.454,-0.935,-0.018,-0.854,43440.0
-0.398,-0.918,-0.006,-3.662,43461.0
-0.386,-0.912,-0.018,-0.854,43480.0
-0.397,-0.912,-0.004,3.235,43498.0
-0.445,-0.928,-0.008,3.845,43517.0
-0.467,-0.931,0.001,2.502,43536.0
-0.453,-0.922,0.011,0.244,43554.0
-0.435,-0.91,0.021,-0.244,43575.0
-0.448,-0.908,0.038,1.709,43597.0
-0.478,-0.919,0.022,0.488,43617.0
-0.465,-0.914,0.027,-2.136,43636.0
-0.435,-0.906,0.04,-2.441,43654.0
-0.422,-0.905,0.023,-0.977,43673.0
-0.429,-0.911,0.012,0.549,43692.0
-0.48,-0.949,-0.016,0.549,43711.0
-0.437,-0.946,-0.042,-5.554,43731.0
-0.402,-0.925,-0.027,-5.005,43750.0
-0.397,-0.917,-0.016,-2.869,43768.0
-0.368,-0.889,0.009,1.221,43788.0
-0.439,-0.901,0.039,7.019,43810.0
-0.468,-0.909,0.05,3.723,43831.0
-0.44,-0.904,0.038,-0.549,43849.0
-0.419,-0.904,0.014,-0.366,43871.0
-0.446,-0.923,-0.005,2.197,43890.0
-0.485,-0.951,-0.02,-1.709,43910.0
-0.418,-0.919,0.01,-2.686,43932.0
-0.448,-0.927,0.008,-0.854,43951.0
-0.416,-0.908,0.006,-1.648,43972.0
-0.444,-0.916,0.005,0.061,43992.0
-0.437,-0.923,-0.008,-2.014,44011.0
-0.442,-0.924,0.007,-2.441,44029.0
-0.426,-0.919,0.011,-3.174,44049.0
-0.409,-0.901,0.024,-1.465,44070.0
-0.423,-0.901,0.02,-0.549,44089.0
-0.406,-0.896,0.016,0.732,44112.0
-0.419,-0.911,0.012,2.869,44133.0
-0.418,-0.905,0.027,3.967,44151.0
-0.407,-0.887,0.042,5.859,44173.0
-0.45,-0.903,0.033,8.118,44193.0
-0.457,-0.906,0.021,6.531,44214.0
-0.465,-0.93,0.0,6.531,44235.0
-0.456,-0.929,-0.014,3.479,44255.0
-0.437,-0.917,-0.006,3.845,44275.0
-0.431,-0.904,0.01,4.211,44296.0
-0.476,-0.923,0.0,5.249,44314.0
-0.503,-0.945,-0.021,2.075,44333.0
-0.471,-0.937,-0.02,-2.136,44353.0
-0.444,-0.916,-0.022,-3.845,44373.0
-0.427,-0.906,-0.019,-2.991,44393.0
-0.439,-0.914,-0.019,-0.061,44411.0
-0.469,-0.924,-0.009,-0.732,44431.0
-0.436,-0.914,-0.005,-2.502,44452.0
-0.424,-0.907,-0.009,-1.648,44472.0
-0.432,-0.908,-0.003,-0.488,44491.0
-0.452,-0.916,-0.005,1.709,44511.0
-0.467,-0.925,-0.003,-2.136,44531.0
-0.451,-0.917,-0.006,-3.113,44550.0
-0.453,-0.927,-0.027,-3.54,44570.0
-0.455,-0.93,-0.023,-4.822,44589.0
-0.455,-0.933,-0.022,-5.615,44609.0
-0.434,-0.928,-0.031,-7.507,44631.0
-0.421,-0.918,-0.005,-4.211,44652.0
-0.427,-0.91,0.014,-4.272,44672.0
-0.4,-0.883,0.038,-1.77,44692.0
-0.442,-0.909,0.02,0.854,44710.0
-0.465,-0.924,0.013,-1.892,44731.0
-0.501,-0.929,0.044,-5.981,44750.0
-0.417,-0.905,0.03,-4.883,44770.0
-0.415,-0.904,0.022,-2.136,44790.0
-0.423,-0.913,0.02,-1.038,44811.0
-0.459,-0.942,-0.002,-1.526,44832.0
-0.431,-0.931,-0.003,-5.188,44853.0
-0.385,-0.889,0.039,-3.296,44871.0
-0.407,-0.87,0.104,6.104,44892.0
-0.419,-0.889,0.065,8.118,44911.0
-0.462,-0.929,0.002,4.7,44932.0
-0.429,-0.924,-0.001,1.282,44952.0
-0.457,-0.939,-0.018,1.648,44969.0
-0.424,-0.919,-0.007,1.16,44989.0
-0.411,-0.886,0.051,3.479,45009.0
-0.453,-0.897,0.036,4.944,45029.0
-0.516,-0.946,-0.021,1.77,45049.0
-0.469,-0.958,-0.039,-6.042,45069.0
-0.409,-0.928,-0.048,-6.592,45092.0
-0.39,-0.916,-0.04,-4.15,45110.0
-0.379,-0.903,-0.03,-0.549,45128.0
-0.473,-0.937,-0.011,4.089,45152.0
-0.458,-0.939,-0.011,-3.296,45169.0
-0.402,-0.913,-0.02,-5.127,45191.0
-0.378,-0.896,-0.02,-1.526,45209.0
-0.414,-0.904,-0.006,3.235,45229.0
-0.476,-0.927,0.011,3.113,45247.0
-0.454,-0.924,0.002,-1.282,45267.0
-0.423,-0.915,-0.004,-1.831,45285.0
-0.449,-0.92,0.005,0.183,45309.0
-0.448,-0.918,0.007,-0.488,45329.0
-0.44,-0.919,-0.0,-0.977,45350.0
-0.419,-0.91,-0.016,-1.404,45368.0
-0.344,-0.905,-0.034,-6.287,45390.0
-0.429,-0.919,-0.021,-0.061,45409.0
-0.41,-0.906,-0.002,0.793,45428.0
-0.44,-0.917,-0.009,2.014,45448.0
-0.46,-0.925,-0.005,-0.854,45469.0
-0.437,-0.917,0.007,-1.465,45488.0
-0.398,-0.909,-0.035,-1.953,45512.0
-0.409,-0.903,-0.009,0.61,45531.0
-0.427,-0.912,-0.01,2.747,45551.0
-0.461,-0.933,-0.015,1.953,45571.0
-0.45,-0.935,-0.04,-0.427,45589.0
-0.425,-0.916,-0.029,-0.977,45612.0
-0.434,-0.917,-0.009,-0.183,45632.0
-0.426,-0.904,-0.0,1.038,45650.0
-0.428,-0.896,0.016,1.953,45672.0
-0.465,-0.914,0.004,2.502,45690.0
-0.476,-0.929,-0.024,-1.099,45710.0
-0.43,-0.917,-0.025,-3.357,45727.0
-0.411,-0.9,-0.008,-1.587,45747.0
-0.406,-0.893,-0.007,-0.305,45765.0
-0.43,-0.914,-0.014,2.686,45784.0
-0.459,-0.934,-0.044,1.526,45803.0
-0.452,-0.941,-0.065,-1.16,45820.0
-0.418,-0.922,-0.057,-1.526,45840.0
-0.419,-0.916,-0.048,0.366,45858.0
-0.415,-0.911,-0.033,2.258,45876.0
-0.452,-0.927,-0.044,2.686,45895.0
-0.475,-0.94,-0.054,-0.427,45916.0
-0.437,-0.914,-0.027,-2.38,45934.0
-0.413,-0.902,-0.029,-1.831,45954.0
-0.411,-0.896,-0.019,0.793,45973.0
-0.445,-0.903,-0.011,1.465,45993.0
-0.455,-0.915,-0.033,0.122,46011.0
-0.462,-0.924,-0.035,-0.305,46030.0
-0.449,-0.924,-0.041,-1.831,46050.0
-0.44,-0.922,-0.039,-1.648,46071.0
-0.425,-0.907,-0.023,-1.343,46090.0
-0.432,-0.907,-0.019,0.305,46109.0
-0.444,-0.919,-0.041,-2.319,46130.0
-0.422,-0.915,-0.054,-2.441,46148.0
-0.409,-0.912,-0.063,-0.122,46168.0
-0.433,-0.917,-0.05,2.075,46188.0
-0.478,-0.939,-0.061,1.526,46208.0
-0.448,-0.931,-0.067,-3.723,46228.0
-0.435,-0.931,-0.072,-3.418,46250.0
-0.422,-0.92,-0.066,-3.174,46271.0
-0.417,-0.918,-0.06,-1.709,46291.0
-0.443,-0.934,-0.07,-2.563,46309.0
-0.46,-0.954,-0.09,-4.639,46330.0
-0.447,-0.961,-0.099,-8.972,46348.0
-0.415,-0.953,-0.106,-10.559,46366.0
-0.36,-0.922,-0.105,-9.155,46386.0
-0.352,-0.908,-0.068,-1.587,46407.0
-0.371,-0.906,-0.055,0.916,46427.0
-0.409,-0.919,-0.023,2.075,46446.0
-0.488,-0.969,-0.074,0.488,46466.0
-0.383,-0.931,-0.045,-2.808,46486.0
-0.356,-0.903,-0.009,-5.005,46504.0
-0.395,-0.878,0.098,1.404,46522.0
-0.447,-0.893,0.123,-0.183,46541.0
-0.524,-0.868,0.155,-1.282,46561.0
-0.448,-0.907,0.098,-2.991,46580.0
-0.434,-0.892,0.12,-2.38,46599.0
-0.407,-0.858,0.168,0.427,46619.0
-0.361,-0.804,0.244,5.31,46638.0
-0.42,-0.819,0.238,13.062,46656.0
-0.505,-0.858,0.228,12.939,46677.0
-0.577,-0.941,0.112,3.052,46696.0
-0.51,-0.958,0.052,-9.888,46714.0
-0.384,-0.908,0.026,-11.475,46737.0
-0.358,-0.871,0.055,-3.357,46756.0
-0.417,-0.898,0.037,1.892,46776.0
-0.428,-0.92,0.01,0.61,46798.0
-0.422,-0.934,-0.029,0.427,46816.0
-0.362,-0.92,-0.06,0.427,46834.0
-0.383,-0.92,-0.068,7.08,46854.0
-0.483,-0.986,-0.102,7.446,46873.0
-0.428,-0.946,-0.095,1.404,46897.0
-0.388,-0.917,-0.068,2.991,46918.0
-0.356,-0.897,-0.072,6.836,46937.0
-0.401,-0.917,-0.1,11.963,46957.0
-0.484,-0.958,-0.097,9.827,46979.0
-0.447,-0.943,-0.099,1.16,47002.0
-0.397,-0.917,-0.083,2.197,47020.0
-0.422,-0.923,-0.113,5.981,47040.0
-0.432,-0.931,-0.121,4.883,47058.0
-0.448,-0.943,-0.123,4.883,47076.0
-0.425,-0.923,-0.105,5.371,47095.0
-0.431,-0.922,-0.094,7.507,47114.0
-0.483,-0.942,-0.093,6.653,47133.0
-0.448,-0.905,-0.041,6.104,47153.0
-0.476,-0.909,-0.033,7.263,47171.0
-0.476,-0.907,-0.036,4.15,47191.0
-0.482,-0.91,-0.038,2.197,47211.0
-0.462,-0.912,-0.069,0.122,47232.0
-0.454,-0.918,-0.089,0.183,47253.0
-0.44,-0.923,-0.086,-0.244,47274.0
-0.462,-0.938,-0.1,0.854,47296.0
-0.49,-0.95,-0.092,1.282,47318.0
-0.521,-0.982,-0.101,-3.174,47341.0
-0.47,-0.944,-0.064,-11.719,47360.0
-0.399,-0.897,-0.016,-10.01,47378.0
-0.425,-0.889,0.039,-1.587,47398.0
-0.458,-0.894,0.062,1.587,47416.0
-0.52,-0.928,0.034,-2.563,47434.0
-0.469,-0.94,-0.025,-13.062,47457.0
-0.386,-0.872,0.079,-14.465,47477.0
-0.364,-0.83,0.143,-4.333,47495.0
-0.425,-0.826,0.219,3.418,47515.0
-0.496,-0.863,0.215,3.662,47533.0
-0.474,-0.874,0.193,-3.052,47554.0
-0.428,-0.855,0.193,-5.371,47573.0
-0.392,-0.829,0.202,-0.61,47594.0
-0.45,-0.866,0.164,4.639,47613.0
-0.511,-0.91,0.134,3.174,47631.0
-0.461,-0.913,0.115,-3.113,47653.0
-0.43,-0.913,0.099,-3.479,47673.0
-0.4,-0.9,0.106,-0.732,47693.0
-0.432,-0.904,0.107,4.761,47715.0
-0.499,-0.94,0.079,2.014,47733.0
-0.446,-0.922,0.095,-3.662,47756.0
-0.409,-0.909,0.084,-3.296,47777.0
-0.389,-0.886,0.102,-1.221,47797.0
-0.419,-0.889,0.13,3.479,47816.0
-0.474,-0.923,0.095,1.587,47836.0
-0.411,-0.883,0.14,0.244,47855.0
-0.413,-0.859,0.168,5.127,47876.0
-0.392,-0.831,0.189,9.033,47894.0
-0.461,-0.862,0.16,12.634,47915.0
-0.464,-0.877,0.127,9.644,47934.0
-0.434,-0.873,0.093,8.85,47956.0
-0.417,-0.869,0.067,9.338,47975.0
-0.404,-0.851,0.068,14.648,47996.0
-0.421,-0.842,0.058,22.888,48016.0
-0.424,-0.846,0.031,25.635,48034.0
-0.413,-0.856,-0.027,28.564,48054.0
-0.464,-0.9,-0.094,34.607,48074.0
-0.695,-1.042,-0.203,28.259,48095.0
-0.56,-0.99,-0.216,-0.549,48114.0
-0.46,-0.95,-0.213,-13.611,48134.0
-0.526,-0.934,-0.154,2.258,48152.0
-0.452,-0.91,-0.099,10.254,48172.0
-0.554,-0.979,-0.16,13.672,48192.0
-0.539,-0.973,-0.227,2.014,48213.0
-0.495,-0.903,-0.084,2.808,48231.0
-0.49,-0.881,-0.064,4.578,48253.0
-0.565,-0.896,-0.042,5.92,48274.0
-0.518,-0.884,-0.05,-1.953,48292.0
-0.511,-0.88,-0.051,-4.578,48311.0
-0.463,-0.904,-0.066,-9.827,48331.0
-0.493,-0.91,-0.093,-5.371,48351.0
-0.51,-0.908,-0.082,-2.441,48372.0
-0.515,-0.904,-0.06,-0.549,48390.0
-0.497,-0.875,0.006,-0.183,48412.0
-0.47,-0.857,0.04,1.587,48433.0
-0.488,-0.862,0.033,4.944,48453.0
-0.498,-0.863,0.044,5.798,48474.0
-0.526,-0.859,0.095,4.822,48493.0
-0.54,-0.854,0.125,3.723,48511.0
-0.509,-0.814,0.172,3.357,48533.0
-0.51,-0.815,0.167,4.517,48551.0
-0.517,-0.81,0.169,6.409,48570.0
-0.563,-0.834,0.176,6.104,48589.0
-0.562,-0.823,0.193,4.761,48607.0
-0.559,-0.81,0.237,3.174,48625.0
-0.547,-0.792,0.251,2.563,48645.0
-0.551,-0.732,0.243,-2.441,48663.0
-0.769,-0.789,0.243,5.981,48687.0
-0.571,-0.78,0.256,8.301,48706.0
-0.62,-0.823,0.236,3.54,48724.0
-0.584,-0.805,0.222,-3.357,48744.0
-0.534,-0.782,0.201,0.305,48763.0
-0.575,-0.805,0.195,0.244,48783.0
-0.578,-0.83,0.136,-3.784,48801.0
-0.476,-0.862,0.05,-9.827,48820.0
-0.495,-0.847,0.025,-11.353,48841.0
-0.43,-0.833,-0.007,-7.69,48861.0
-0.368,-0.799,-0.005,2.747,48886.0
-0.421,-0.807,-0.011,16.541,48905.0
-0.564,-0.951,-0.176,18.494,48923.0
-0.685,-1.09,-0.334,3.418,48943.0
-0.513,-1.028,-0.317,-12.268,48962.0
-0.379,-0.944,-0.278,-7.874,48982.0
-0.379,-0.896,-0.209,2.441,49001.0
-0.432,-0.919,-0.23,9.949,49022.0
-0.496,-0.964,-0.265,10.681,49043.0
-0.474,-0.957,-0.263,9.216,49062.0
-0.434,-0.911,-0.216,12.817,49080.0
-0.403,-0.85,-0.142,21.24,49098.0
-0.448,-0.818,-0.08,30.579,49118.0
-0.578,-0.852,-0.055,35.095,49140.0
-0.592,-0.836,-0.013,31.006,49159.0
-0.577,-0.779,0.084,34.119,49178.0
-0.594,-0.738,0.155,36.499,49198.0
-0.666,-0.73,0.208,35.645,49217.0
-0.722,-0.751,0.219,31.799,49235.0
-0.728,-0.731,0.229,23.254,49256.0
-0.716,-0.712,0.266,19.287,49275.0
-0.702,-0.697,0.275,16.357,49295.0
-0.682,-0.673,0.301,14.221,49313.0
-0.729,-0.707,0.259,10.803,49335.0
-0.767,-0.764,0.198,6.531,49356.0
-0.772,-0.816,0.146,-1.465,49377.0
-0.73,-0.803,0.162,-12.573,49398.0
-0.669,-0.753,0.241,-14.465,49416.0
-0.669,-0.708,0.31,-13.0,49436.0
-0.689,-0.725,0.266,-20.081,49457.0
-0.681,-0.743,0.126,-26.489,49476.0
-0.583,-0.828,-0.022,-28.992,49500.0
-0.586,-0.87,-0.066,-30.273,49519.0
-0.515,-0.793,0.022,-22.095,49541.0
-0.517,-0.781,0.053,-19.043,49561.0
-0.552,-0.8,0.029,-20.325,49579.0
-0.495,-0.852,-0.112,-20.691,49600.0
-0.47,-0.873,-0.113,-22.644,49620.0
-0.454,-0.918,-0.199,-18.433,49638.0
-0.416,-0.912,-0.23,-13.123,49659.0
-0.375,-0.882,-0.204,-4.944,49679.0
-0.371,-0.86,-0.162,6.531,49701.0
-0.432,-0.901,-0.191,15.503,49722.0
-0.481,-0.93,-0.199,15.93,49741.0
-0.491,-0.917,-0.175,12.817,49765.0
-0.44,-0.86,-0.148,14.893,49785.0
-0.303,-0.83,-0.118,20.752,49804.0
-0.525,-0.84,-0.112,27.344,49823.0
-0.571,-0.835,-0.08,33.203,49841.0
-0.621,-0.81,-0.036,41.931,49861.0
-0.702,-0.752,0.106,46.265,49882.0
-0.817,-0.762,0.159,42.419,49901.0
-0.878,-0.771,0.163,23.682,49921.0
-0.84,-0.768,0.133,2.686,49940.0
-0.723,-0.739,0.071,-5.493,49960.0
-0.684,-0.726,0.058,-1.648,49980.0
-0.75,-0.74,0.128,5.432,50000.0
-0.802,-0.738,0.208,3.662,50019.0
-0.815,-0.767,0.169,-7.141,50037.0
-0.739,-0.761,0.138,-16.602,50057.0
-0.688,-0.749,0.127,-20.935,50078.0
-0.647,-0.698,0.216,-19.47,50098.0
-0.683,-0.662,0.275,-13.245,50120.0
-0.741,-0.657,0.288,-19.348,50139.0
-0.682,-0.673,0.147,-34.058,50157.0
-0.321,-0.726,0.028,-73.12,50175.0
-0.499,-0.787,-0.304,-57.007,50193.0
-0.293,-0.852,-0.416,-60.669,50214.0
-0.358,-0.875,-0.502,-46.204,50233.0
-0.374,-0.892,-0.535,-38.818,50252.0
-0.321,-0.897,-0.495,-21.484,50275.0
-0.342,-0.898,-0.488,-9.827,50293.0
-0.335,-0.983,-0.544,-2.38,50315.0
-0.367,-1.004,-0.636,-2.258,50333.0
-0.315,-0.937,-0.577,5.005,50351.0
-0.373,-0.916,-0.523,13.489,50373.0
-0.379,-0.806,-0.292,29.663,50392.0
-0.461,-0.826,-0.269,41.382,50413.0
-0.471,-0.827,-0.269,45.593,50432.0
-0.502,-0.798,-0.187,47.119,50452.0
-0.588,-0.755,-0.051,55.603,50472.0
-0.8,-0.788,0.035,50.11,50495.0
-0.958,-0.813,0.093,34.058,50516.0
-0.76,-0.677,0.302,20.691,50536.0
-0.742,-0.659,0.323,15.259,50556.0
-0.753,-0.687,0.284,7.08,50578.0
-0.738,-0.698,0.241,0.488,50596.0
-0.725,-0.688,0.287,-3.418,50614.0
-0.739,-0.67,0.328,3.113,50633.0
-0.736,-0.629,0.437,7.69,50651.0
-0.733,-0.593,0.489,6.104,50674.0
-0.818,-0.619,0.438,1.282,50692.0
-0.898,-0.728,0.255,-14.038,50712.0
-0.847,-0.739,0.188,-29.541,50730.0
-0.746,-0.776,0.036,-47.363,50748.0
-0.573,-0.672,0.13,-48.523,50766.0
-0.539,-0.685,0.032,-43.64,50784.0
-0.475,-0.733,-0.106,-42.053,50804.0
-0.486,-0.794,-0.202,-37.17,50823.0
-0.543,-0.908,-0.348,-39.307,50843.0
-0.531,-0.934,-0.367,-45.898,50861.0
-0.417,-0.931,-0.439,-50.171,50884.0
-0.261,-0.904,-0.48,-48.34,50902.0
-0.229,-0.869,-0.43,-34.363,50921.0
-0.198,-0.868,-0.453,-16.296,50943.0
-0.285,-0.958,-0.522,-8.667,50963.0
-0.327,-0.996,-0.539,-5.859,50984.0
-0.256,-0.96,-0.516,-3.296,51003.0
-0.221,-0.941,-0.548,7.446,51024.0
-0.218,-0.91,-0.523,15.198,51043.0
-0.256,-0.89,-0.452,27.893,51064.0
-0.309,-0.861,-0.39,44.128,51085.0
-0.356,-0.873,-0.339,58.838,51105.0
-0.443,-0.843,-0.238,66.04,51128.0
-0.538,-0.789,-0.134,69.641,51150.0
-0.595,-0.745,-0.051,72.571,51170.0
-0.679,-0.691,0.064,75.073,51191.0
-0.798,-0.627,0.265,80.017,51212.0
-0.897,-0.623,0.342,69.58,51234.0
-0.923,-0.631,0.358,46.143,51253.0
-0.912,-0.63,0.358,25.085,51273.0
-0.88,-0.583,0.443,15.93,51293.0
-0.886,-0.589,0.441,11.963,51312.0
-0.889,-0.611,0.449,5.859,51330.0
-0.864,-0.68,0.314,-7.08,51348.0
-0.807,-0.737,0.192,-19.104,51369.0
-0.723,-0.737,0.163,-22.522,51388.0
-0.701,-0.758,0.145,-22.644,51408.0
-0.68,-0.768,0.139,-24.78,51426.0
-0.627,-0.752,0.152,-23.804,51446.0
-0.636,-0.739,0.188,-18.921,51467.0
-0.677,-0.785,0.125,-20.813,51485.0
-0.663,-0.83,0.057,-30.762,51503.0
-0.608,-0.844,-0.003,-37.903,51521.0
-0.562,-0.87,-0.073,-41.687,51540.0
-0.494,-0.809,0.022,-33.447,51559.0
-0.51,-0.817,0.034,-23.865,51579.0
-0.512,-0.82,0.037,-21.79,51603.0
-0.48,-0.85,-0.026,-22.4,51621.0
-0.488,-0.899,-0.112,-21.606,51641.0
-0.464,-0.879,-0.067,-14.16,51662.0
-0.526,-0.894,-0.027,-7.507,51681.0
-0.528,-0.855,0.047,-8.789,51701.0
-0.471,-0.825,0.046,-11.353,51722.0
-0.486,-0.841,0.019,-11.536,51742.0
-0.511,-0.839,0.052,-9.46,51761.0
-0.521,-0.865,0.006,-10.864,51781.0
-0.512,-0.902,-0.067,-13.611,51803.0
-0.469,-0.894,-0.068,-14.465,51823.0
-0.437,-0.837,-0.011,-10.681,51842.0
-0.447,-0.836,-0.006,-5.92,51863.0
-0.466,-0.845,-0.004,1.282,51883.0
-0.56,-0.875,0.01,5.188,51901.0
-0.567,-0.871,0.029,0.244,51920.0
-0.531,-0.807,0.097,-0.793,51940.0
-0.543,-0.791,0.094,-1.831,51960.0
-0.578,-0.77,0.125,-4.15,51982.0
-0.607,-0.795,0.062,-9.216,52002.0
-0.544,-0.734,0.126,-12.512,52023.0
-0.554,-0.689,0.16,-10.315,52041.0
-0.561,-0.783,-0.09,-17.517,52062.0
-0.513,-0.752,-0.145,-23.376,52082.0
-0.476,-0.852,-0.347,-29.602,52101.0
-0.498,-0.934,-0.51,-36.133,52120.0
-0.362,-0.764,-0.324,-25.879,52139.0
-0.278,-0.757,-0.389,-13.0,52159.0
-0.162,-0.677,-0.399,7.263,52179.0
-0.273,-0.735,-0.524,30.212,52199.0
-0.369,-0.811,-0.631,41.748,52217.0
-0.455,-0.722,-0.505,42.358,52235.0
-0.565,-0.802,-0.636,48.279,52254.0
-0.393,-0.749,-0.691,36.377,52272.0
-0.284,-0.636,-0.544,53.772,52290.0
-0.589,-0.758,-0.609,67.81,52308.0
-0.912,-0.909,-0.666,36.133,52326.0
-0.995,-0.972,-0.692,13.367,52345.0
-0.573,-0.698,-0.529,1.099,52367.0
-0.558,-0.737,-0.629,1.282,52385.0
-0.51,-0.788,-0.754,-3.662,52404.0
-0.639,-0.924,-0.858,-6.104,52427.0
-0.462,-0.745,-0.526,-7.629,52449.0
-0.462,-0.817,-0.522,16.663,52471.0
-0.474,-0.886,-0.601,25.879,52491.0
-0.587,-0.875,-0.481,36.621,52511.0
-0.637,-0.861,-0.437,24.78,52530.0
-0.442,-0.79,-0.412,21.545,52548.0
-0.265,-0.739,-0.504,32.837,52566.0
-0.158,-0.58,-0.179,55.969,52584.0
-0.252,-0.596,-0.143,80.994,52603.0
-0.314,-0.669,-0.32,88.806,52623.0
-0.511,-0.707,-0.451,89.294,52643.0
-0.681,-0.725,-0.486,86.365,52661.0
-0.799,-0.541,-0.114,85.815,52679.0
-0.769,-0.469,0.016,76.904,52698.0
-0.726,-0.568,-0.318,74.036,52718.0
-0.583,-0.553,-0.543,79.59,52737.0
-0.562,-0.526,-0.629,88.989,52755.0
-0.591,-0.237,-0.144,109.009,52777.0
-0.895,-0.188,0.123,128.479,52799.0
-1.332,-0.403,0.035,109.741,52818.0
-1.127,-0.36,-0.038,55.969,52840.0
-0.912,-0.255,-0.058,45.593,52859.0
-0.817,-0.068,0.146,67.871,52879.0
-1.047,-0.248,0.009,87.341,52897.0
-1.274,-0.428,-0.086,71.533,52915.0
-1.181,-0.41,-0.102,37.231,52933.0
-1.084,-0.366,-0.1,13.855,52951.0
-0.999,-0.246,-0.029,6.47,52972.0
-1.243,-0.235,0.108,6.897,52992.0
-1.433,-0.314,0.147,-19.775,53010.0
-1.414,-0.366,0.07,-61.646,53032.0
-1.237,-0.338,0.01,-99.976,53051.0
-1.038,-0.322,-0.042,-126.892,53072.0
-0.898,-0.262,-0.002,-135.437,53093.0
-0.953,-0.256,0.086,-144.775,53111.0
-0.897,-0.38,-0.164,-176.636,53133.0
-0.571,-0.438,-0.33,-195.557,53152.0
-0.276,-0.438,-0.453,-186.096,53172.0
-0.347,-0.588,-0.502,-153.931,53193.0
-0.284,-0.561,-0.469,-141.174,53212.0
-0.168,-0.646,-0.613,-120.605,53232.0
-0.201,-0.729,-0.629,-97.107,53251.0
-0.283,-0.81,-0.651,-87.158,53270.0
-0.323,-0.826,-0.643,-82.703,53294.0
-0.262,-0.824,-0.615,-70.557,53314.0
-0.338,-0.843,-0.55,-58.533,53332.0
-0.387,-0.868,-0.521,-60.425,53351.0
-0.354,-0.872,-0.521,-62.195,53370.0
-0.291,-0.836,-0.431,-59.753,53391.0
-0.36,-0.864,-0.481,-55.725,53412.0
-0.315,-0.892,-0.589,-50.964,53432.0
-0.284,-0.855,-0.594,-41.138,53453.0
-0.279,-0.813,-0.568,-32.471,53473.0
-0.333,-0.756,-0.501,-28.992,53495.0
-0.201,-0.683,-0.518,-30.762,53516.0
-0.196,-0.706,-0.553,-25.452,53536.0
-0.248,-0.689,-0.49,-27.039,53554.0
-0.175,-0.692,-0.472,-23.56,53574.0
-0.095,-0.721,-0.555,-12.573,53594.0
-0.038,-0.828,-0.831,-0.061,53613.0
-0.072,-0.845,-0.87,8.911,53631.0
-0.337,-0.957,-0.867,11.597,53649.0
-0.427,-0.954,-0.761,-5.432,53667.0
-0.362,-0.875,-0.687,-24.353,53686.0
-0.188,-0.75,-0.66,-33.813,53705.0
-0.071,-0.676,-0.648,-28.625,53724.0
0.058,-0.636,-0.747,-9.338,53745.0
-0.007,-0.799,-0.997,1.282,53763.0
-0.089,-0.914,-1.094,8.85,53783.0
-0.345,-1.071,-1.247,5.676,53803.0
-0.244,-1.019,-1.191,-10.803,53822.0
0.019,-0.949,-1.181,7.324,53843.0
-0.063,-0.781,-0.805,22.461,53864.0
-0.071,-0.512,-0.209,38.269,53882.0
-0.374,-0.609,-0.088,47.974,53907.0
-0.354,-0.63,-0.062,24.048,53926.0
-0.26,-0.618,-0.022,14.404,53947.0
-0.218,-0.615,-0.006,15.381,53968.0
-0.145,-0.548,0.106,22.583,53988.0
-0.2,-0.565,0.098,37.659,54010.0
-0.376,-0.637,0.068,35.889,54032.0
-0.423,-0.654,0.06,31.189,54050.0
-0.395,-0.726,-0.097,13.306,54070.0
-0.308,-0.781,-0.271,4.15,54088.0
-0.301,-0.857,-0.458,8.057,54108.0
-0.451,-1.009,-0.7,7.324,54131.0
-0.411,-1.091,-0.88,9.399,54152.0
-0.465,-1.216,-1.045,5.066,54172.0
-0.441,-1.228,-1.093,-8.118,54193.0
-0.336,-1.089,-0.934,-13.123,54214.0
-0.408,-1.026,-0.825,-13.55,54233.0
-0.373,-0.886,-0.657,-11.719,54253.0
-0.319,-0.825,-0.548,-12.146,54273.0
-0.259,-0.756,-0.436,-12.878,54293.0
-0.206,-0.683,-0.298,-8.24,54319.0
-0.172,-0.661,-0.123,5.493,54339.0
-0.291,-0.69,-0.139,7.568,54359.0
-0.292,-0.681,-0.109,4.272,54378.0
-0.239,-0.666,-0.116,5.188,54401.0
-0.209,-0.668,-0.181,12.756,54422.0
-0.302,-0.734,-0.247,18.738,54440.0
-0.376,-0.822,-0.35,13.0,54459.0
-0.39,-0.87,-0.452,5.676,54478.0
-0.39,-0.953,-0.625,-5.249,54498.0
-0.328,-1.031,-0.814,-4.211,54517.0
-0.469,-1.196,-0.998,-0.244,54539.0
-0.44,-1.17,-0.971,-6.226,54557.0
-0.362,-1.1,-0.902,-14.282,54580.0
-0.308,-0.971,-0.724,-14.587,54600.0
-0.252,-0.817,-0.454,-9.827,54620.0
-0.226,-0.715,-0.266,-2.686,54640.0
-0.198,-0.662,-0.161,5.249,54659.0
-0.203,-0.649,-0.106,12.939,54678.0
-0.264,-0.646,-0.061,15.808,54698.0
-0.331,-0.655,-0.032,12.024,54717.0
-0.282,-0.615,0.015,3.296,54739.0
-0.21,-0.599,-0.015,9.583,54757.0
-0.238,-0.673,-0.056,22.461,54776.0
-0.331,-0.739,-0.154,29.053,54795.0
-0.457,-0.895,-0.349,21.912,54816.0
-0.504,-1.005,-0.479,9.949,54837.0
-0.544,-1.075,-0.597,-3.967,54859.0
-0.521,-1.131,-0.76,-12.024,54882.0
-0.524,-1.147,-0.841,-15.32,54903.0
-0.477,-1.103,-0.802,-20.874,54922.0
-0.383,-1.037,-0.743,-28.259,54944.0
-0.326,-0.96,-0.647,-27.893,54963.0
-0.372,-0.917,-0.545,-23.682,54982.0
-0.344,-0.833,-0.374,-24.658,55000.0
-0.264,-0.747,-0.231,-21.057,55020.0
-0.311,-0.728,-0.193,-11.169,55041.0
-0.169,-0.673,-0.094,-12.512,55059.0
-0.136,-0.646,-0.062,-6.47,55078.0
-0.162,-0.647,-0.044,0.244,55098.0
-0.196,-0.657,-0.074,2.014,55116.0
-0.166,-0.668,-0.143,6.409,55136.0
-0.212,-0.718,-0.237,12.939,55156.0
-0.217,-0.788,-0.338,18.982,55175.0
-0.332,-0.923,-0.485,22.827,55196.0
-0.463,-1.085,-0.677,16.663,55216.0
-0.51,-1.206,-0.836,2.869,55237.0
-0.5,-1.209,-0.86,-2.808,55258.0
-0.469,-1.155,-0.806,-8.972,55278.0
-0.485,-1.087,-0.723,-16.052,55301.0
-0.371,-0.978,-0.613,-23.682,55318.0
-0.302,-0.873,-0.456,-25.146,55337.0
-0.217,-0.769,-0.298,-21.24,55357.0
-0.159,-0.65,-0.062,-6.653,55376.0
-0.145,-0.651,0.071,11.047,55394.0
-0.188,-0.608,0.096,12.939,55412.0
-0.188,-0.62,0.057,13.489,55434.0
-0.298,-0.701,-0.054,9.46,55455.0
-0.264,-0.713,-0.106,8.423,55476.0
-0.247,-0.739,-0.17,17.09,55497.0
-0.31,-0.824,-0.299,23.193,55516.0
-0.441,-1.004,-0.498,22.827,55535.0
-0.543,-1.157,-0.697,8.057,55556.0
-0.499,-1.193,-0.788,-7.385,55575.0
-0.413,-1.159,-0.8,-10.986,55593.0
-0.42,-1.102,-0.726,-7.629,55612.0
-0.436,-1.037,-0.646,-13.611,55631.0
-0.325,-0.917,-0.502,-18.555,55653.0
-0.255,-0.835,-0.387,-16.296,55671.0
-0.253,-0.782,-0.288,-8.728,55689.0
-0.329,-0.761,-0.217,2.502,55709.0
-0.229,-0.711,-0.115,1.587,55729.0
-0.236,-0.689,-0.053,8.545,55751.0
-0.25,-0.67,-0.021,10.437,55773.0
-0.292,-0.705,-0.078,12.634,55794.0
-0.312,-0.745,-0.174,12.878,55813.0
-0.367,-0.804,-0.271,14.221,55834.0
-0.393,-0.923,-0.432,9.399,55854.0
-0.42,-1.056,-0.62,5.188,55874.0
-0.453,-1.13,-0.734,-1.648,55896.0
-0.445,-1.12,-0.738,-7.385,55915.0
-0.437,-1.069,-0.688,-10.803,55935.0
-0.42,-1.006,-0.631,-12.878,55957.0
-0.347,-0.92,-0.531,-17.334,55975.0
-0.256,-0.842,-0.44,-13.794,55996.0
-0.251,-0.811,-0.376,-9.094,56015.0
-0.233,-0.768,-0.281,-2.441,56035.0
-0.268,-0.762,-0.219,6.042,56058.0
-0.317,-0.771,-0.192,6.958,56076.0
-0.33,-0.781,-0.174,3.174,56095.0
-0.291,-0.765,-0.17,1.587,56114.0
-0.273,-0.775,-0.21,4.089,56133.0
-0.288,-0.8,-0.252,7.996,56153.0
-0.327,-0.835,-0.297,9.766,56173.0
-0.379,-0.894,-0.375,7.69,56194.0
-0.385,-0.925,-0.437,1.953,56214.0
-0.358,-0.946,-0.492,-0.732,56234.0
-0.368,-0.978,-0.56,-0.916,56254.0
-0.393,-1.006,-0.605,-1.465,56272.0
-0.422,-1.032,-0.618,-5.92,56293.0
-0.378,-1.024,-0.62,-10.315,56313.0
-0.331,-0.983,-0.575,-9.827,56334.0
-0.347,-0.946,-0.51,-9.216,56358.0
-0.296,-0.882,-0.402,-10.254,56379.0
-0.232,-0.78,-0.233,-3.662,56397.0
-0.232,-0.724,-0.116,8.24,56416.0
-0.258,-0.71,-0.073,13.489,56436.0
-0.322,-0.731,-0.065,13.306,56459.0
-0.362,-0.747,-0.081,2.808,56479.0
-0.26,-0.732,-0.121,1.648,56497.0
-0.267,-0.77,-0.197,8.911,56515.0
-0.362,-0.863,-0.294,13.794,56535.0
-0.492,-0.996,-0.434,6.836,56554.0
-0.452,-1.053,-0.518,-4.761,56574.0
-0.407,-1.082,-0.607,-8.118,56592.0
-0.436,-1.098,-0.633,-9.155,56612.0
-0.417,-1.066,-0.596,-11.414,56632.0
-0.429,-1.043,-0.577,-17.395,56652.0
-0.32,-0.953,-0.5,-23.621,56671.0
-0.219,-0.867,-0.407,-18.372,56690.0
-0.153,-0.724,-0.163,-3.662,56710.0
-0.139,-0.583,0.134,23.132,56732.0
-0.241,-0.564,0.203,33.875,56755.0
-0.27,-0.578,0.123,23.376,56778.0
-0.24,-0.61,-0.04,18.372,56798.0
-0.394,-0.778,-0.305,22.888,56817.0
-0.448,-0.943,-0.536,19.958,56838.0
-0.528,-1.172,-0.799,18.372,56857.0
-0.56,-1.324,-0.973,10.193,56877.0
-0.649,-1.344,-0.954,-2.014,56899.0
-0.649,-1.278,-0.91,-25.085,56920.0
-0.4,-1.056,-0.733,-36.011,56941.0
-0.264,-0.879,-0.517,-28.442,56961.0
-0.234,-0.76,-0.316,-13.672,56981.0
-0.273,-0.725,-0.193,-6.653,57001.0
-0.251,-0.679,-0.083,-5.249,57019.0
-0.22,-0.629,0.043,4.272,57037.0
-0.253,-0.607,0.165,10.681,57055.0
-0.293,-0.611,0.224,13.794,57074.0
-0.306,-0.63,0.21,9.155,57092.0
-0.252,-0.653,0.103,8.362,57114.0
-0.305,-0.715,0.004,13.733,57133.0
-0.38,-0.795,-0.106,15.747,57153.0
-0.39,-0.88,-0.232,13.367,57173.0
-0.457,-1.041,-0.455,10.071,57195.0
-0.547,-1.16,-0.595,2.869,57214.0
-0.571,-1.198,-0.659,-10.986,57233.0
-0.444,-1.159,-0.672,-18.921,57254.0
-0.373,-1.122,-0.688,-16.052,57275.0
-0.343,-1.048,-0.614,-14.221,57294.0
-0.298,-0.964,-0.504,-13.306,57314.0
-0.229,-0.847,-0.341,-6.958,57336.0
-0.235,-0.769,-0.177,4.761,57355.0
-0.285,-0.755,-0.108,10.498,57375.0
-0.328,-0.739,-0.047,11.536,57394.0
-0.317,-0.738,-0.048,7.874,57414.0
-0.313,-0.744,-0.058,6.287,57434.0
-0.353,-0.792,-0.116,7.629,57454.0
-0.365,-0.823,-0.154,9.094,57474.0
-0.363,-0.855,-0.201,8.057,57497.0
-0.36,-0.873,-0.232,8.972,57515.0
-0.378,-0.906,-0.284,10.01,57533.0
-0.413,-0.936,-0.334,7.019,57551.0
-0.412,-0.959,-0.389,3.967,57571.0
-0.416,-0.973,-0.432,2.258,57591.0
-0.423,-0.986,-0.453,0.488,57609.0
-0.407,-0.996,-0.479,-0.671,57628.0
-0.424,-1.005,-0.483,0.0,57649.0
-0.43,-1.023,-0.506,-3.357,57667.0
-0.363,-0.997,-0.486,-4.15,57689.0
-0.374,-0.99,-0.469,-0.305,57710.0
-0.377,-0.951,-0.398,-0.122,57729.0
-0.344,-0.874,-0.28,-0.183,57747.0
-0.304,-0.797,-0.166,3.174,57768.0
-0.285,-0.743,-0.084,7.446,57786.0
-0.284,-0.705,-0.038,10.315,57808.0
-0.356,-0.728,-0.08,10.437,57829.0
-0.355,-0.751,-0.112,11.047,57848.0
-0.409,-0.82,-0.173,12.939,57869.0
-0.472,-0.911,-0.257,10.681,57889.0
-0.513,-1.017,-0.375,7.08,57907.0
-0.545,-1.132,-0.51,2.93,57927.0
-0.548,-1.161,-0.548,-6.958,57947.0
-0.489,-1.105,-0.506,-13.123,57966.0
-0.474,-1.053,-0.475,-16.296,57984.0
-0.409,-0.976,-0.408,-21.057,58007.0
-0.364,-0.91,-0.322,-22.034,58028.0
-0.27,-0.817,-0.205,-17.883,58047.0
-0.24,-0.718,-0.046,-7.019,58068.0
-0.284,-0.7,0.006,0.244,58087.0
-0.312,-0.688,0.049,0.732,58108.0
-0.299,-0.695,0.044,-0.488,58127.0
-0.323,-0.728,0.012,0.977,58146.0
-0.294,-0.747,-0.032,4.944,58167.0
-0.291,-0.758,-0.079,10.193,58186.0
-0.302,-0.788,-0.145,16.418,58206.0
-0.344,-0.857,-0.241,20.264,58226.0
-0.363,-0.919,-0.336,20.508,58246.0
-0.398,-0.986,-0.428,20.935,58265.0
-0.5,-1.065,-0.521,20.63,58284.0
-0.547,-1.105,-0.575,9.583,58302.0
-0.538,-1.097,-0.577,5.066,58323.0
-0.536,-1.105,-0.601,-0.427,58342.0
-0.49,-1.068,-0.571,-6.104,58361.0
-0.457,-1.02,-0.522,-11.719,58379.0
-0.434,-0.975,-0.474,-15.442,58398.0
-0.372,-0.904,-0.374,-16.174,58418.0
-0.309,-0.806,-0.211,-9.155,58439.0
-0.3,-0.771,-0.123,-0.488,58459.0
-0.327,-0.75,-0.056,2.93,58481.0
-0.323,-0.753,-0.054,1.831,58502.0
-0.343,-0.762,-0.063,1.465,58523.0
-0.313,-0.757,-0.074,1.221,58542.0
-0.286,-0.776,-0.115,5.981,58562.0
-0.348,-0.816,-0.163,13.123,58583.0
-0.459,-0.895,-0.233,14.038,58604.0
-0.477,-0.952,-0.3,6.409,58624.0
-0.458,-1.001,-0.376,3.174,58644.0
-0.473,-1.041,-0.45,1.648,58664.0
-0.485,-1.044,-0.466,-1.648,58682.0
-0.469,-1.011,-0.421,-4.578,58703.0
-0.423,-0.95,-0.36,-10.315,58730.0
-0.376,-0.903,-0.309,-10.437,58751.0
-0.359,-0.872,-0.262,-9.033,58770.0
-0.336,-0.836,-0.195,-5.859,58790.0
-0.343,-0.83,-0.187,-2.258,58809.0
-0.371,-0.834,-0.165,-0.793,58830.0
-0.337,-0.81,-0.129,-1.099,58851.0
-0.34,-0.805,-0.128,2.563,58870.0
-0.348,-0.819,-0.154,4.456,58890.0
-0.336,-0.81,-0.144,6.226,58910.0
-0.361,-0.818,-0.159,11.841,58934.0
-0.405,-0.844,-0.206,12.268,58954.0
-0.433,-0.865,-0.242,6.042,58973.0
-0.375,-0.863,-0.265,5.859,58993.0
-0.389,-0.884,-0.293,8.606,59012.0
-0.449,-0.945,-0.366,10.803,59033.0
-0.521,-1.014,-0.446,5.676,59051.0
-0.47,-1.001,-0.46,-2.502,59072.0
-0.435,-0.972,-0.447,-2.625,59091.0
-0.471,-0.997,-0.473,-2.991,59110.0
-0.437,-0.967,-0.444,-6.348,59132.0
-0.449,-0.947,-0.413,-8.179,59152.0
-0.422,-0.919,-0.375,-8.85,59170.0
-0.38,-0.874,-0.309,-8.606,59191.0
-0.37,-0.85,-0.277,-6.042,59212.0
-0.341,-0.823,-0.225,-3.357,59236.0
-0.337,-0.813,-0.2,0.305,59255.0
-0.383,-0.825,-0.191,3.235,59275.0
-0.36,-0.815,-0.175,2.808,59297.0
-0.382,-0.822,-0.179,4.028,59317.0
-0.385,-0.84,-0.207,4.944,59336.0
-0.406,-0.863,-0.234,5.127,59356.0
-0.406,-0.873,-0.252,4.578,59374.0
-0.439,-0.899,-0.28,4.333,59392.0
-0.442,-0.919,-0.312,1.16,59412.0
-0.436,-0.941,-0.359,0.122,59434.0
-0.481,-0.982,-0.41,-1.282,59452.0
-0.475,-0.99,-0.408,-5.859,59471.0
-0.444,-0.97,-0.388,-9.46,59490.0
-0.405,-0.942,-0.369,-11.047,59509.0
-0.445,-0.937,-0.347,-12.756,59533.0
-0.441,-0.933,-0.338,-16.296,59554.0
-0.358,-0.886,-0.279,-19.714,59573.0
-0.298,-0.848,-0.217,-15.686,59594.0
-0.259,-0.782,-0.101,-5.92,59612.0
-0.257,-0.753,-0.047,8.057,59634.0
-0.298,-0.742,-0.035,14.343,59653.0
-0.363,-0.765,-0.066,17.212,59672.0
-0.451,-0.829,-0.14,10.193,59693.0
-0.363,-0.815,-0.156,6.531,59714.0
-0.354,-0.836,-0.2,10.071,59735.0
-0.374,-0.875,-0.243,12.634,59755.0
-0.419,-0.907,-0.27,14.709,59775.0
-0.475,-0.952,-0.325,12.939,59793.0
-0.472,-0.96,-0.357,8.179,59812.0
-0.436,-0.947,-0.381,3.479,59832.0
-0.414,-0.927,-0.382,4.15,59853.0
-0.398,-0.897,-0.349,5.798,59873.0
-0.414,-0.889,-0.343,8.118,59896.0
-0.423,-0.883,-0.341,6.775,59914.0
-0.452,-0.883,-0.319,4.333,59935.0
-0.41,-0.867,-0.306,4.15,59954.0
-0.415,-0.869,-0.302,5.92,59974.0
-0.436,-0.876,-0.312,6.165,59994.0
-0.456,-0.878,-0.31,5.798,60013.0
-0.464,-0.885,-0.313,3.235,60033.0
-0.448,-0.883,-0.322,0.61,60053.0
-0.457,-0.885,-0.326,1.038,60074.0
-0.45,-0.885,-0.332,0.427,60092.0
-0.45,-0.888,-0.339,0.0,60110.0
-0.445,-0.884,-0.334,-1.892,60134.0
-0.428,-0.874,-0.325,-2.014,60153.0
-0.417,-0.868,-0.325,-1.526,60173.0
-0.433,-0.87,-0.322,-0.305,60193.0
-0.44,-0.875,-0.321,-1.038,60211.0
-0.44,-0.877,-0.315,-1.404,60229.0
-0.445,-0.875,-0.308,-2.747,60251.0
-0.434,-0.862,-0.293,-3.235,60269.0
-0.412,-0.857,-0.298,-2.869,60289.0
-0.415,-0.866,-0.307,-1.526,60311.0
-0.438,-0.867,-0.3,-1.16,60329.0
-0.423,-0.866,-0.298,-2.014,60348.0
-0.431,-0.873,-0.3,-1.282,60370.0
-0.426,-0.87,-0.301,-2.747,60390.0
-0.439,-0.876,-0.3,-2.93,60408.0
-0.409,-0.865,-0.295,-3.479,60426.0
-0.428,-0.872,-0.3,-1.465,60447.0
-0.428,-0.871,-0.292,-3.784,60468.0
-0.414,-0.874,-0.302,-2.869,60492.0
-0.425,-0.881,-0.302,-3.296,60510.0
-0.452,-0.889,-0.302,-3.174,60528.0
-0.458,-0.898,-0.307,-5.737,60546.0
-0.466,-0.913,-0.32,-8.484,60566.0
-0.434,-0.909,-0.315,-12.146,60584.0
-0.468,-0.934,-0.348,-13.306,60604.0
-0.425,-0.924,-0.337,-16.541,60624.0
-0.406,-0.914,-0.317,-14.954,60642.0
-0.408,-0.915,-0.307,-15.32,60666.0
-0.368,-0.895,-0.289,-14.526,60685.0
-0.401,-0.909,-0.292,-14.221,60705.0
-0.366,-0.887,-0.253,-13.123,60727.0
-0.408,-0.906,-0.265,-12.268,60745.0
-0.393,-0.91,-0.251,-15.198,60767.0
-0.341,-0.89,-0.218,-17.395,60787.0
-0.322,-0.874,-0.193,-12.451,60807.0
-0.393,-0.915,-0.22,-11.841,60827.0
-0.371,-0.921,-0.221,-14.954,60848.0
-0.353,-0.919,-0.221,-16.907,60868.0
-0.287,-0.889,-0.192,-12.939,60889.0
-0.263,-0.857,-0.131,-6.104,60910.0
-0.319,-0.888,-0.162,0.61,60929.0
-0.409,-0.93,-0.182,-0.61,60947.0
-0.346,-0.917,-0.178,-8.118,60970.0
-0.29,-0.895,-0.16,-6.47,60988.0
-0.295,-0.897,-0.15,-1.343,61007.0
-0.344,-0.916,-0.171,2.808,61029.0
-0.404,-0.951,-0.188,0.427,61047.0
-0.337,-0.92,-0.167,-4.211,61070.0
-0.306,-0.916,-0.175,-2.625,61088.0
-0.306,-0.911,-0.175,-0.305,61108.0
-0.332,-0.923,-0.184,1.953,61129.0
-0.376,-0.947,-0.196,0.366,61148.0
-0.336,-0.929,-0.189,-2.197,61170.0
-0.329,-0.931,-0.188,-0.732,61193.0
-0.329,-0.938,-0.198,-0.122,61212.0
-0.332,-0.942,-0.205,0.793,61230.0
-0.354,-0.944,-0.201,0.244,61248.0
-0.325,-0.927,-0.19,-0.671,61267.0
-0.361,-0.944,-0.192,-0.183,61288.0
-0.336,-0.937,-0.193,-0.61,61310.0
-0.337,-0.932,-0.187,-0.916,61328.0
-0.339,-0.933,-0.187,-0.366,61348.0
-0.333,-0.928,-0.186,-0.061,61367.0
-0.369,-0.94,-0.187,-1.282,61386.0
-0.337,-0.933,-0.184,-2.319,61404.0
-0.315,-0.927,-0.192,-1.587,61422.0
-0.321,-0.929,-0.193,0.305,61442.0
-0.329,-0.928,-0.195,1.221,61461.0
-0.34,-0.933,-0.197,2.38,61482.0
-0.371,-0.944,-0.191,-0.183,61502.0
-0.323,-0.927,-0.183,-1.16,61521.0
-0.311,-0.929,-0.198,0.977,61540.0
-0.326,-0.924,-0.197,2.38,61558.0
-0.326,-0.917,-0.183,2.869,61577.0
-0.321,-0.916,-0.194,4.272,61596.0
-0.313,-0.904,-0.18,5.615,61617.0
-0.327,-0.902,-0.174,7.69,61636.0
-0.373,-0.919,-0.18,8.301,61658.0
-0.352,-0.906,-0.157,6.47,61679.0
-0.344,-0.904,-0.165,6.104,61698.0
-0.325,-0.903,-0.181,5.798,61717.0
-0.33,-0.901,-0.195,8.606,61737.0
-0.39,-0.912,-0.183,8.972,61756.0
-0.358,-0.897,-0.184,7.812,61776.0
-0.358,-0.904,-0.195,7.141,61794.0
-0.343,-0.91,-0.219,8.362,61815.0
-0.39,-0.922,-0.233,9.216,61835.0
-0.411,-0.934,-0.233,7.08,61853.0
-0.374,-0.916,-0.236,4.944,61873.0
-0.362,-0.917,-0.257,5.981,61895.0
-0.363,-0.911,-0.255,7.202,61916.0
-0.374,-0.91,-0.257,9.155,61936.0
-0.416,-0.925,-0.264,8.362,61954.0
-0.394,-0.913,-0.259,5.371,61976.0
-0.395,-0.919,-0.269,5.554,61996.0
-0.411,-0.923,-0.279,5.249,62014.0
-0.419,-0.926,-0.279,3.601,62034.0
-0.416,-0.921,-0.284,1.953,62052.0
-0.4,-0.913,-0.287,0.977,62073.0
-0.394,-0.91,-0.293,1.099,62093.0
-0.39,-0.915,-0.295,2.014,62112.0
-0.407,-0.923,-0.299,2.625,62132.0
-0.415,-0.924,-0.303,1.404,62152.0
-0.411,-0.913,-0.294,-0.122,62174.0
-0.402,-0.905,-0.288,-0.122,62196.0
-0.402,-0.9,-0.283,-0.732,62215.0
-0.386,-0.896,-0.275,-1.587,62235.0
-0.373,-0.893,-0.273,0.183,62256.0
-0.394,-0.893,-0.269,1.038,62275.0
-0.403,-0.888,-0.263,0.488,62296.0
-0.402,-0.888,-0.26,0.488,62317.0
-0.414,-0.89,-0.262,0.061,62337.0
-0.395,-0.895,-0.271,-0.977,62355.0
-0.387,-0.889,-0.271,-0.854,62374.0
-0.394,-0.894,-0.278,0.0,62396.0
-0.398,-0.9,-0.277,0.061,62416.0
-0.409,-0.907,-0.283,-0.61,62435.0
-0.404,-0.904,-0.279,-2.075,62453.0
-0.386,-0.893,-0.272,-2.38,62473.0
-0.383,-0.893,-0.272,-0.854,62492.0
-0.394,-0.892,-0.275,-0.427,62512.0
-0.399,-0.896,-0.273,-0.671,62530.0
-0.396,-0.894,-0.271,-1.221,62548.0
-0.388,-0.893,-0.269,-1.221,62567.0
-0.391,-0.891,-0.271,-0.793,62585.0
-0.38,-0.885,-0.266,-0.488,62608.0
-0.409,-0.902,-0.281,0.183,62627.0
-0.386,-0.896,-0.266,-1.709,62652.0
-0.376,-0.895,-0.272,-1.038,62670.0
-0.39,-0.897,-0.272,-0.61,62690.0
-0.385,-0.891,-0.273,-0.122,62709.0
-0.404,-0.9,-0.279,0.244,62729.0
-0.388,-0.894,-0.271,-1.404,62750.0
-0.396,-0.892,-0.267,-0.488,62770.0
-0.391,-0.896,-0.271,-0.916,62788.0
-0.373,-0.889,-0.272,-0.305,62813.0
-0.391,-0.899,-0.274,1.587,62834.0
-0.392,-0.896,-0.266,0.244,62857.0
-0.396,-0.9,-0.272,0.671,62877.0
-0.397,-0.898,-0.266,-0.183,62896.0
-0.4,-0.895,-0.27,-1.099,62916.0
-0.385,-0.894,-0.272,-0.732,62937.0
-0.381,-0.89,-0.273,-0.061,62957.0
-0.382,-0.893,-0.273,0.427,62975.0
-0.398,-0.898,-0.271,-0.366,62995.0
-0.384,-0.888,-0.271,0.122,63015.0
-0.385,-0.891,-0.267,0.671,63033.0
-0.384,-0.892,-0.268,0.977,63053.0
-0.394,-0.896,-0.267,1.587,63072.0
-0.416,-0.906,-0.27,1.465,63090.0
-0.41,-0.905,-0.268,-0.366,63110.0
-0.392,-0.896,-0.262,-0.122,63132.0
-0.39,-0.892,-0.274,-0.122,63155.0
-0.394,-0.887,-0.262,0.122,63174.0
-0.396,-0.895,-0.266,-0.366,63194.0
-0.383,-0.889,-0.26,-1.16,63214.0
-0.382,-0.892,-0.264,0.366,63233.0
-0.384,-0.897,-0.27,0.366,63253.0
-0.388,-0.894,-0.268,1.038,63273.0
-0.405,-0.901,-0.271,0.916,63291.0
-0.392,-0.89,-0.267,-0.488,63310.0
-0.381,-0.891,-0.259,0.671,63334.0
-0.388,-0.891,-0.268,1.282,63354.0
-0.396,-0.894,-0.262,1.038,63375.0
-0.389,-0.892,-0.265,0.793,63395.0
-0.387,-0.891,-0.261,1.465,63416.0
-0.398,-0.896,-0.262,0.916,63435.0
-0.385,-0.891,-0.275,1.16,63457.0
-0.405,-0.893,-0.275,1.343,63479.0
-0.389,-0.886,-0.272,1.038,63499.0
-0.39,-0.895,-0.268,2.197,63521.0
-0.4,-0.896,-0.274,2.258,63540.0
-0.398,-0.896,-0.275,1.587,63559.0
-0.397,-0.891,-0.277,2.38,63581.0
-0.4,-0.891,-0.27,2.075,63600.0
-0.395,-0.891,-0.272,2.197,63622.0
-0.397,-0.888,-0.269,2.93,63641.0
-0.414,-0.892,-0.271,2.686,63661.0
-0.398,-0.886,-0.261,1.953,63684.0
-0.401,-0.886,-0.261,2.502,63703.0
-0.389,-0.881,-0.261,2.869,63724.0
-0.411,-0.894,-0.281,3.845,63744.0
-0.411,-0.886,-0.266,2.258,63764.0
-0.41,-0.889,-0.26,1.892,63784.0
-0.396,-0.886,-0.272,2.319,63802.0
-0.398,-0.883,-0.271,3.296,63821.0
-0.422,-0.894,-0.274,3.845,63844.0
-0.412,-0.888,-0.272,2.686,63864.0
-0.406,-0.884,-0.271,2.869,63886.0
-0.416,-0.885,-0.266,3.479,63906.0
-0.421,-0.89,-0.273,2.991,63925.0
-0.409,-0.883,-0.27,2.686,63944.0
-0.408,-0.88,-0.275,2.93,63963.0
-0.416,-0.886,-0.278,3.54,63981.0
-0.438,-0.892,-0.277,1.831,64003.0
-0.445,-0.912,-0.316,1.709,64023.0
-0.434,-0.982,-0.407,-0.061,64044.0
-0.41,-1.009,-0.46,0.366,64065.0
-0.416,-1.001,-0.447,2.197,64085.0
-0.437,-0.986,-0.431,4.578,64107.0
-0.464,-1.001,-0.436,1.709,64128.0
-0.451,-0.999,-0.424,-1.648,64146.0
-0.504,-1.002,-0.392,-6.348,64166.0
-0.495,-0.979,-0.323,-14.221,64187.0
-0.445,-0.929,-0.232,-16.663,64207.0
-0.469,-0.919,-0.182,-24.902,64227.0
-0.502,-0.871,-0.126,-19.714,64246.0
-0.345,-0.805,-0.021,-22.705,64265.0
-0.331,-0.774,0.06,-16.602,64283.0
-0.354,-0.77,0.094,-12.451,64303.0
-0.407,-0.798,0.104,-10.986,64324.0
-0.514,-0.872,0.05,-17.761,64345.0
-0.445,-0.861,0.127,-26.55,64363.0
-0.332,-0.822,0.176,-26.428,64381.0
-0.337,-0.83,0.198,-21.606,64402.0
-0.317,-0.82,0.187,-16.357,64420.0
-0.412,-0.894,0.063,-15.869,64438.0
-0.416,-0.93,0.027,-22.4,64458.0
-0.316,-0.91,0.048,-24.597,64478.0
-0.279,-0.903,0.046,-20.264,64500.0
-0.341,-0.945,-0.004,-16.541,64518.0
-0.331,-0.939,-0.002,-19.531,64537.0
-0.32,-0.94,0.002,-19.47,64558.0
-0.274,-0.916,0.016,-19.043,64576.0
-0.319,-0.924,0.025,-16.846,64596.0
-0.301,-0.928,0.005,-18.127,64616.0
-0.327,-0.953,-0.05,-24.475,64636.0
-0.255,-0.912,-0.041,-29.053,64660.0
-0.255,-0.957,-0.136,-25.818,64682.0
-0.225,-0.948,-0.152,-25.818,64702.0
-0.186,-0.967,-0.214,-23.315,64722.0
-0.136,-0.974,-0.258,-20.63,64740.0
-0.113,-0.989,-0.298,-15.747,64758.0
-0.102,-1.004,-0.349,-13.855,64779.0
-0.052,-1.007,-0.4,-8.24,64802.0
-0.017,-1.003,-0.431,0.244,64819.0
-0.007,-0.994,-0.428,13.733,64839.0
-0.091,-1.034,-0.459,23.438,64861.0
-0.152,-1.028,-0.397,25.574,64880.0
-0.178,-1.025,-0.385,26.245,64898.0
-0.159,-1.009,-0.366,26.855,64916.0
-0.138,-0.993,-0.346,30.762,64934.0
-0.152,-0.99,-0.332,37.109,64952.0
-0.229,-0.97,-0.286,47.241,64972.0
-0.374,-0.957,-0.183,51.514,64993.0
-0.421,-0.928,-0.072,48.767,65014.0
-0.444,-0.899,0.004,45.105,65032.0
-0.475,-0.87,0.094,43.457,65052.0
-0.523,-0.861,0.147,37.842,65071.0
-0.559,-0.867,0.169,29.663,65094.0
-0.583,-0.862,0.201,21.179,65115.0
-0.579,-0.833,0.309,17.456,65134.0
-0.587,-0.836,0.314,7.141,65153.0
-0.37,-0.857,0.217,-2.014,65171.0
-0.466,-0.858,0.09,-12.756,65191.0
-0.5,-0.923,0.032,-20.02,65212.0
-0.439,-0.915,0.035,-25.33,65231.0
-0.381,-0.918,0.008,-27.222,65249.0
-0.353,-0.93,-0.032,-26.611,65271.0
-0.326,-0.942,-0.086,-27.344,65291.0
-0.3,-0.961,-0.14,-27.161,65312.0
-0.289,-0.98,-0.198,-26.367,65332.0
-0.249,-0.974,-0.205,-24.414,65352.0
-0.23,-0.971,-0.186,-17.578,65375.0
-0.238,-0.977,-0.199,-14.587,65397.0
-0.266,-0.981,-0.195,-11.902,65417.0
-0.278,-0.978,-0.191,-11.78,65437.0
-0.267,-0.971,-0.19,-13.672,65460.0
-0.235,-0.966,-0.208,-12.695,65479.0
-0.229,-0.963,-0.213,-10.254,65499.0
-0.236,-0.959,-0.209,-8.423,65518.0
-0.25,-0.955,-0.183,-5.493,65538.0
-0.267,-0.958,-0.172,-2.991,65557.0
-0.269,-0.958,-0.183,-2.563,65584.0
-0.269,-0.956,-0.185,-1.831,65603.0
-0.279,-0.951,-0.174,-1.221,65624.0
-0.275,-0.942,-0.173,-1.465,65644.0
-0.251,-0.928,-0.175,-0.549,65666.0
-0.249,-0.916,-0.161,1.831,65685.0
-0.258,-0.9,-0.138,4.333,65704.0
-0.288,-0.904,-0.143,4.272,65723.0
-0.266,-0.899,-0.17,1.709,65743.0
-0.259,-0.9,-0.195,1.587,65761.0
-0.24,-0.9,-0.23,3.174,65780.0
-0.258,-0.918,-0.266,5.554,65798.0
-0.261,-0.913,-0.254,6.958,65817.0
-0.277,-0.914,-0.262,12.024,65838.0
-0.302,-0.909,-0.261,9.705,65856.0
-0.263,-0.893,-0.278,11.353,65876.0
-0.275,-0.909,-0.344,11.841,65896.0
-0.301,-0.926,-0.376,13.489,65914.0
-0.35,-0.952,-0.375,13.977,65935.0
-0.294,-0.928,-0.394,11.353,65953.0
-0.338,-0.958,-0.454,11.963,65972.0
-0.316,-0.949,-0.458,10.559,65992.0
-0.377,-0.964,-0.455,12.756,66011.0
-0.396,-0.964,-0.44,8.484,66029.0
-0.39,-0.953,-0.432,3.723,66048.0
-0.413,-0.959,-0.439,1.16,66068.0
-0.366,-0.935,-0.432,-3.967,66090.0
-0.345,-0.915,-0.405,-3.235,66108.0
-0.395,-0.922,-0.379,-5.493,66127.0
-0.354,-0.897,-0.346,-9.583,66152.0
-0.364,-0.902,-0.343,-10.803,66173.0
-0.338,-0.896,-0.341,-13.55,66194.0
-0.337,-0.904,-0.357,-16.357,66215.0
-0.268,-0.883,-0.351,-16.846,66235.0
-0.286,-0.894,-0.362,-13.55,66256.0
-0.308,-0.909,-0.361,-12.939,66277.0
-0.318,-0.918,-0.362,-17.151,66296.0
-0.283,-0.914,-0.361,-18.433,66314.0
-0.294,-0.934,-0.386,-20.02,66332.0
-0.246,-0.918,-0.366,-19.958,66354.0
-0.235,-0.903,-0.329,-13.855,66372.0
-0.278,-0.914,-0.324,-11.78,66394.0
-0.256,-0.909,-0.304,-15.686,66414.0
-0.182,-0.875,-0.282,-13.306,66432.0
-0.248,-0.904,-0.308,-6.897,66451.0
-0.269,-0.918,-0.309,-8.606,66471.0
-0.199,-0.887,-0.257,-5.981,66494.0
-0.243,-0.909,-0.272,-2.38,66515.0
-0.238,-0.916,-0.29,-2.747,66537.0
-0.281,-0.929,-0.295,-0.61,66559.0
-0.262,-0.926,-0.294,-1.709,66579.0
-0.235,-0.916,-0.282,-1.343,66599.0
-0.227,-0.914,-0.287,0.671,66618.0
-0.3,-0.946,-0.307,0.793,66638.0
-0.245,-0.93,-0.302,-2.38,66659.0
-0.234,-0.922,-0.308,-0.183,66677.0
-0.238,-0.922,-0.304,1.709,66698.0
-0.236,-0.923,-0.3,2.258,66718.0
-0.259,-0.934,-0.315,3.601,66739.0
-0.261,-0.941,-0.321,2.319,66759.0
-0.27,-0.94,-0.317,2.502,66779.0
-0.264,-0.935,-0.303,1.038,66798.0
-0.251,-0.927,-0.302,0.549,66818.0
-0.254,-0.929,-0.308,1.038,66837.0
-0.234,-0.917,-0.306,1.343,66858.0
-0.252,-0.917,-0.288,4.028,66879.0
-0.31,-0.941,-0.308,3.601,66901.0
-0.291,-0.932,-0.304,-1.038,66921.0
-0.256,-0.927,-0.32,-1.099,66940.0
-0.237,-0.92,-0.314,0.0,66960.0
-0.267,-0.929,-0.321,1.831,66979.0
-0.253,-0.924,-0.317,0.366,66998.0
-0.291,-0.941,-0.332,2.014,67018.0
-0.261,-0.928,-0.321,-1.221,67038.0
-0.244,-0.922,-0.336,-0.671,67058.0
-0.252,-0.932,-0.339,-0.793,67079.0
-0.256,-0.931,-0.343,0.0,67099.0
-0.294,-0.948,-0.342,0.122,67117.0
-0.267,-0.935,-0.34,-1.282,67135.0
-0.262,-0.93,-0.32,-0.61,67156.0
-0.27,-0.924,-0.314,-0.793,67177.0
-0.249,-0.915,-0.311,-1.099,67196.0
-0.252,-0.911,-0.315,0.732,67216.0
-0.277,-0.928,-0.317,0.488,67238.0
-0.268,-0.924,-0.316,-0.427,67259.0
-0.274,-0.933,-0.318,-1.221,67278.0
-0.259,-0.93,-0.321,-0.916,67298.0
-0.253,-0.926,-0.33,-1.16,67321.0
-0.253,-0.919,-0.326,-0.732,67339.0
-0.263,-0.925,-0.324,-0.061,67357.0
-0.251,-0.924,-0.324,-0.671,67378.0
-0.249,-0.922,-0.311,0.488,67396.0
-0.26,-0.927,-0.323,0.305,67415.0
-0.246,-0.923,-0.325,0.0,67435.0
-0.246,-0.922,-0.324,1.465,67456.0
-0.25,-0.921,-0.324,1.77,67477.0
-0.276,-0.929,-0.331,2.319,67495.0
-0.275,-0.926,-0.319,1.099,67518.0
-0.277,-0.932,-0.323,0.366,67538.0
-0.248,-0.929,-0.327,-0.488,67559.0
-0.245,-0.931,-0.337,0.916,67578.0
-0.287,-0.946,-0.344,2.014,67597.0
-0.269,-0.938,-0.336,-0.793,67618.0
-0.244,-0.927,-0.318,0.305,67638.0
-0.259,-0.924,-0.316,2.686,67657.0
-0.264,-0.915,-0.305,2.258,67677.0
-0.307,-0.931,-0.31,1.221,67695.0
-0.348,-0.97,-0.34,-4.639,67714.0
-0.259,-0.958,-0.347,-10.437,67735.0
-0.254,-0.972,-0.367,-7.996,67755.0
-0.285,-0.982,-0.38,-8.911,67773.0
-0.267,-0.981,-0.382,-6.653,67795.0
-0.336,-1.0,-0.387,-13.55,67813.0
-0.195,-0.943,-0.351,-17.456,67833.0
-0.117,-0.841,-0.18,-5.554,67854.0
-0.151,-0.791,-0.05,9.888,67874.0
-0.173,-0.765,-0.009,17.334,67894.0
-0.155,-0.714,0.044,22.4,67912.0
-0.193,-0.725,0.001,27.954,67931.0
-0.246,-0.761,-0.077,30.701,67950.0
-0.292,-0.815,-0.193,29.419,67970.0
-0.467,-0.961,-0.388,24.902,67988.0
-0.426,-0.981,-0.436,7.751,68006.0
-0.288,-0.996,-0.549,4.395,68026.0
-0.319,-1.111,-0.766,10.681,68044.0
-0.265,-1.159,-0.87,11.78,68064.0
-0.248,-1.138,-0.837,17.639,68085.0
-0.274,-1.119,-0.813,14.16,68105.0
-0.265,-1.038,-0.706,12.695,68124.0
-0.275,-0.967,-0.578,11.108,68144.0
-0.234,-0.865,-0.399,16.357,68164.0
-0.262,-0.806,-0.226,26.672,68184.0
-0.364,-0.783,-0.064,35.889,68207.0
-0.394,-0.739,0.113,37.537,68225.0
-0.464,-0.759,0.158,35.034,68244.0
-0.496,-0.742,0.233,22.705,68266.0
-0.478,-0.723,0.29,17.7,68288.0
-0.526,-0.755,0.227,11.353,68308.0
-0.493,-0.773,0.145,-0.61,68329.0
-0.495,-0.803,0.1,-1.465,68351.0
-0.55,-0.857,0.039,-7.019,68371.0
-0.515,-0.894,-0.052,-23.56,68396.0
-0.501,-0.931,-0.146,-30.64,68414.0
-0.486,-0.936,-0.182,-37.659,68433.0
-0.473,-0.949,-0.252,-40.894,68453.0
-0.426,-0.978,-0.387,-50.903,68473.0
-0.301,-0.95,-0.447,-57.312,68491.0
-0.215,-0.925,-0.503,-56.396,68510.0
-0.158,-0.922,-0.562,-52.124,68532.0
-0.109,-0.94,-0.635,-43.64,68551.0
-0.051,-0.927,-0.658,-36.316,68571.0
-0.011,-0.935,-0.727,-25.696,68590.0
0.08,-0.951,-0.837,-9.399,68610.0
0.107,-0.94,-0.815,12.024,68630.0
0.064,-0.94,-0.774,27.832,68652.0
0.056,-0.923,-0.711,37.292,68672.0
-0.02,-0.922,-0.666,46.997,68693.0
-0.131,-0.89,-0.549,59.143,68712.0
-0.219,-0.84,-0.365,68.909,68732.0
-0.341,-0.807,-0.216,77.209,68752.0
-0.473,-0.779,-0.059,79.224,68773.0
-0.625,-0.792,0.031,76.233,68794.0
-0.743,-0.772,0.231,65.002,68813.0
-0.797,-0.721,0.461,54.993,68835.0
-0.905,-0.741,0.519,31.616,68856.0
-0.921,-0.753,0.479,4.761,68874.0
-0.831,-0.781,0.344,-25.024,68894.0
-0.731,-0.81,0.231,-42.786,68913.0
-0.646,-0.811,0.171,-52.063,68931.0
-0.596,-0.852,0.065,-60.913,68955.0
-0.553,-0.885,-0.042,-73.608,68977.0
-0.451,-0.886,-0.129,-86.304,68996.0
-0.33,-0.876,-0.23,-97.9,69016.0
-0.214,-0.856,-0.308,-103.516,69034.0
-0.05,-0.827,-0.415,-101.013,69056.0
0.113,-0.802,-0.498,-89.172,69077.0
0.213,-0.82,-0.594,-65.613,69097.0
0.167,-0.876,-0.686,-48.279,69115.0
0.159,-0.904,-0.717,-34.058,69134.0
0.163,-0.917,-0.727,-18.616,69155.0
0.171,-0.908,-0.691,-3.418,69174.0
0.123,-0.92,-0.691,13.55,69195.0
0.067,-0.945,-0.72,24.109,69216.0
0.044,-0.961,-0.723,30.518,69236.0
0.083,-0.944,-0.705,38.391,69256.0
0.027,-0.928,-0.659,54.382,69277.0
-0.072,-0.945,-0.635,63.11,69296.0
-0.158,-0.941,-0.557,68.604,69314.0
-0.259,-0.938,-0.464,72.876,69332.0
-0.365,-0.914,-0.316,75.806,69352.0
-0.472,-0.885,-0.153,72.205,69372.0
-0.539,-0.879,-0.053,63.538,69392.0
-0.587,-0.843,0.093,49.805,69415.0
-0.624,-0.837,0.177,33.325,69435.0
-0.607,-0.836,0.16,14.709,69457.0
-0.524,-0.837,0.109,0.427,69479.0
-0.518,-0.853,0.077,-7.996,69500.0
-0.477,-0.856,0.056,-12.634,69522.0
-0.485,-0.883,0.02,-17.029,69541.0
-0.438,-0.891,-0.004,-26.794,69563.0
-0.386,-0.884,-0.043,-32.776,69581.0
-0.337,-0.892,-0.124,-37.354,69599.0
-0.335,-0.903,-0.174,-39.062,69617.0
-0.327,-0.917,-0.215,-41.687,69635.0
-0.295,-0.92,-0.245,-45.654,69653.0
-0.225,-0.909,-0.286,-48.706,69675.0
-0.204,-0.909,-0.315,-46.875,69693.0
-0.177,-0.91,-0.365,-47.485,69714.0
-0.135,-0.929,-0.459,-48.34,69733.0
-0.083,-0.93,-0.511,-46.509,69751.0
-0.043,-0.92,-0.544,-41.687,69772.0
0.011,-0.917,-0.58,-35.034,69792.0
0.06,-0.92,-0.634,-23.926,69811.0
0.12,-0.929,-0.689,-8.85,69834.0
0.098,-0.928,-0.682,11.658,69855.0
0.015,-0.962,-0.673,23.438,69879.0
-0.097,-0.981,-0.64,24.841,69899.0
-0.094,-0.97,-0.6,25.452,69917.0
-0.09,-0.984,-0.61,28.32,69936.0
-0.101,-0.97,-0.552,33.447,69958.0
-0.146,-0.945,-0.472,40.71,69978.0
-0.264,-0.943,-0.374,47.668,69996.0
-0.317,-0.911,-0.252,48.401,70016.0
-0.361,-0.893,-0.15,46.448,70034.0
-0.402,-0.873,-0.061,40.405,70052.0
-0.436,-0.87,0.015,29.602,70073.0
-0.437,-0.861,0.056,15.93,70095.0
-0.469,-0.881,0.045,7.751,70113.0
-0.467,-0.88,0.067,-2.197,70131.0
-0.389,-0.854,0.073,-11.047,70150.0
-0.333,-0.835,0.067,-11.658,70168.0
-0.329,-0.836,0.049,-10.254,70189.0
-0.367,-0.854,-0.006,-15.381,70210.0
-0.348,-0.869,-0.069,-23.621,70230.0
-0.314,-0.871,-0.12,-27.222,70252.0
-0.278,-0.883,-0.216,-31.433,70270.0
-0.228,-0.902,-0.32,-35.583,70291.0
-0.165,-0.912,-0.407,-38.025,70310.0
-0.145,-0.941,-0.484,-36.865,70330.0
-0.112,-0.947,-0.528,-35.889,70350.0
-0.054,-0.951,-0.571,-27.954,70368.0
-0.052,-0.974,-0.639,-17.517,70393.0
-0.027,-0.971,-0.656,-11.23,70413.0
0.004,-0.945,-0.633,-3.296,70433.0
-0.076,-0.972,-0.628,5.432,70453.0
-0.093,-0.961,-0.594,5.554,70472.0
-0.136,-0.966,-0.583,7.568,70491.0
-0.152,-0.972,-0.577,5.859,70510.0
-0.119,-0.969,-0.588,5.371,70528.0
-0.083,-0.971,-0.598,9.949,70548.0
-0.049,-0.947,-0.564,18.616,70566.0
-0.066,-0.936,-0.533,26.733,70585.0
-0.161,-0.949,-0.475,32.532,70606.0
-0.208,-0.933,-0.381,33.264,70625.0
-0.239,-0.886,-0.24,33.386,70648.0
-0.276,-0.88,-0.171,33.447,70667.0
-0.332,-0.889,-0.12,30.396,70686.0
-0.368,-0.892,-0.096,22.583,70705.0
-0.342,-0.855,-0.038,17.029,70723.0
-0.305,-0.822,0.032,15.625,70743.0
-0.33,-0.822,0.055,15.015,70761.0
-0.401,-0.836,0.065,12.146,70780.0
-0.423,-0.872,0.008,-0.061,70802.0
-0.342,-0.87,-0.053,-7.751,70823.0
-0.298,-0.888,-0.103,-7.996,70843.0
-0.312,-0.928,-0.173,-9.155,70864.0
-0.284,-0.94,-0.213,-12.817,70884.0
-0.256,-0.944,-0.251,-14.099,70905.0
-0.218,-0.951,-0.309,-15.137,70925.0
-0.161,-0.95,-0.363,-10.925,70948.0
-0.179,-0.969,-0.414,-3.479,70967.0
-0.189,-0.969,-0.408,0.916,70985.0
-0.223,-0.976,-0.386,2.747,71008.0
-0.21,-0.977,-0.397,1.343,71027.0
-0.206,-0.974,-0.415,1.709,71045.0
-0.244,-0.998,-0.431,2.869,71066.0
-0.268,-1.012,-0.437,-1.953,71086.0
-0.207,-1.003,-0.447,-2.197,71105.0
-0.218,-0.996,-0.428,2.319,71123.0
-0.305,-1.02,-0.429,3.235,71142.0
-0.314,-1.023,-0.418,-2.869,71162.0
-0.27,-0.996,-0.378,-5.859,71182.0
-0.272,-0.978,-0.319,-4.15,71207.0
-0.259,-0.946,-0.267,-4.578,71226.0
-0.229,-0.92,-0.228,-1.16,71245.0
-0.305,-0.915,-0.148,2.93,71266.0
-0.332,-0.879,-0.051,-1.892,71284.0
-0.279,-0.82,0.049,-5.554,71306.0
-0.23,-0.786,0.042,-4.028,71328.0
-0.218,-0.768,0.021,1.282,71348.0
-0.309,-0.837,-0.071,1.831,71371.0
-0.304,-0.885,-0.161,-9.644,71392.0
-0.219,-0.916,-0.251,-13.611,71413.0
-0.182,-0.94,-0.317,-11.047,71431.0
-0.182,-0.98,-0.384,-7.446,71449.0
-0.233,-1.021,-0.437,-4.639,71473.0
-0.252,-1.046,-0.471,-7.324,71494.0
-0.226,-1.043,-0.504,-10.376,71515.0
-0.169,-1.022,-0.515,-10.376,71533.0
-0.139,-1.018,-0.546,-6.592,71552.0
-0.119,-0.994,-0.527,-3.418,71573.0
-0.136,-0.974,-0.465,6.226,71593.0
-0.237,-0.996,-0.427,8.911,71614.0
-0.235,-0.987,-0.373,10.437,71635.0
-0.261,-0.98,-0.306,12.146,71654.0
-0.326,-0.98,-0.241,14.099,71674.0
-0.346,-0.921,-0.128,11.963,71692.0
-0.333,-0.853,-0.01,10.437,71711.0
-0.394,-0.825,0.042,2.808,71732.0
-0.342,-0.785,0.041,-5.92,71751.0
-0.25,-0.787,-0.049,-10.62,71772.0
-0.252,-0.845,-0.158,-9.766,71790.0
-0.281,-0.91,-0.248,-13.733,71808.0
-0.188,-0.93,-0.314,-16.907,71830.0
-0.119,-0.945,-0.38,-9.888,71852.0
-0.158,-0.973,-0.402,-4.761,71870.0
-0.197,-0.995,-0.42,-5.371,71891.0
-0.181,-0.988,-0.444,-6.47,71913.0
-0.151,-0.973,-0.441,-3.418,71935.0
-0.163,-0.969,-0.427,2.136,71956.0
-0.198,-0.952,-0.384,5.615,71977.0
-0.216,-0.942,-0.357,5.249,71997.0
-0.232,-0.941,-0.335,3.235,72015.0
-0.196,-0.925,-0.312,3.235,72036.0
-0.229,-0.931,-0.297,5.066,72056.0
-0.231,-0.931,-0.289,5.005,72076.0
-0.217,-0.927,-0.299,5.127,72095.0
-0.236,-0.942,-0.309,6.165,72116.0
-0.234,-0.948,-0.317,5.127,72138.0
-0.228,-0.947,-0.33,4.333,72158.0
-0.228,-0.95,-0.323,7.263,72180.0
-0.264,-0.964,-0.314,8.972,72198.0
-0.296,-0.971,-0.297,5.188,72217.0
-0.22,-0.941,-0.283,2.625,72237.0
-0.242,-0.948,-0.288,6.226,72257.0
-0.268,-0.958,-0.289,5.859,72276.0
-0.26,-0.965,-0.293,3.906,72296.0
-0.276,-0.963,-0.272,1.77,72315.0
-0.26,-0.948,-0.259,-0.854,72333.0
-0.22,-0.926,-0.247,0.183,72352.0
-0.208,-0.928,-0.257,4.517,72372.0
-0.254,-0.954,-0.259,6.226,72393.0
-0.266,-0.968,-0.273,4.395,72411.0
-0.202,-0.951,-0.29,0.671,72432.0
-0.171,-0.975,-0.367,1.038,72450.0
-0.082,-0.93,-0.357,2.441,72470.0
-0.007,-0.913,-0.355,14.709,72489.0
-0.041,-0.908,-0.334,29.602,72507.0
-0.185,-0.941,-0.312,44.067,72527.0
-0.301,-0.937,-0.2,46.753,72549.0
-0.35,-0.934,-0.134,43.579,72567.0
-0.383,-0.915,-0.066,38.818,72587.0
-0.405,-0.899,-0.025,32.654,72605.0
-0.43,-0.895,-0.019,26.367,72625.0
-0.441,-0.886,0.002,21.118,72646.0
-0.453,-0.897,0.001,19.226,72664.0
-0.502,-0.923,-0.009,14.954,72685.0
-0.5,-0.922,0.002,9.583,72706.0
-0.502,-0.928,-0.012,2.258,72726.0
-0.461,-0.901,0.004,-2.808,72747.0
-0.536,-0.913,0.033,-8.545,72767.0
-0.537,-0.893,0.031,-24.048,72788.0
-0.476,-0.868,0.005,-35.889,72807.0
-0.421,-0.844,-0.034,-40.039,72825.0
-0.377,-0.824,-0.079,-39.673,72848.0
-0.352,-0.838,-0.181,-44.312,72868.0
-0.344,-0.871,-0.294,-55.359,72887.0
-0.241,-0.871,-0.408,-71.106,72905.0
-0.077,-0.84,-0.478,-73.853,72926.0
0.036,-0.852,-0.573,-57.617,72946.0
0.0,-0.903,-0.662,-39.062,72964.0
-0.041,-0.945,-0.717,-25.757,72984.0
-0.009,-0.941,-0.734,-17.151,73005.0
0.023,-0.946,-0.768,-11.169,73023.0
0.035,-0.95,-0.803,-3.235,73045.0
0.048,-0.975,-0.862,7.141,73066.0
0.032,-0.992,-0.948,16.052,73084.0
0.071,-1.023,-1.017,19.226,73104.0
0.256,-0.914,-0.909,30.884,73123.0
0.13,-0.872,-0.718,68.481,73144.0
-0.178,-0.903,-0.547,91.614,73166.0
-0.347,-0.891,-0.389,92.468,73185.0
-0.464,-0.841,-0.147,81.604,73205.0
-0.563,-0.802,0.045,64.209,73225.0
-0.573,-0.775,0.13,46.082,73247.0
-0.561,-0.741,0.184,29.663,73266.0
-0.559,-0.716,0.269,21.851,73288.0
-0.538,-0.696,0.328,15.93,73313.0
-0.562,-0.717,0.333,9.521,73332.0
-0.605,-0.784,0.227,-1.16,73352.0
-0.574,-0.816,0.163,-13.916,73372.0
-0.506,-0.819,0.127,-20.325,73390.0
-0.488,-0.833,0.071,-25.513,73409.0
-0.464,-0.849,0.013,-31.494,73429.0
-0.44,-0.846,-0.002,-39.917,73448.0
-0.428,-0.854,-0.092,-48.218,73466.0
-0.435,-0.91,-0.254,-59.448,73484.0
-0.313,-0.928,-0.43,-76.538,73506.0
-0.128,-0.9,-0.533,-80.139,73524.0
-0.01,-0.885,-0.604,-70.801,73542.0
0.019,-0.896,-0.643,-51.941,73562.0
-0.038,-0.95,-0.696,-35.645,73582.0
-0.076,-0.979,-0.716,-31.738,73601.0
0.002,-0.963,-0.716,-30.029,73620.0
0.027,-0.947,-0.705,-20.691,73640.0
0.002,-0.936,-0.684,-8.545,73664.0
-0.01,-0.928,-0.677,-2.136,73685.0
0.021,-0.921,-0.663,6.287,73704.0
-0.075,-0.926,-0.604,13.306,73725.0
-0.073,-0.915,-0.592,14.404,73743.0
-0.066,-0.918,-0.599,20.386,73765.0
-0.069,-0.928,-0.596,25.757,73784.0
-0.123,-0.94,-0.549,37.231,73805.0
-0.254,-0.945,-0.459,41.748,73827.0
-0.302,-0.917,-0.347,37.292,73847.0
-0.315,-0.903,-0.278,30.762,73867.0
-0.32,-0.886,-0.21,22.888,73888.0
-0.335,-0.898,-0.204,18.005,73906.0
-0.336,-0.885,-0.178,13.855,73926.0
-0.333,-0.881,-0.146,11.536,73947.0
-0.328,-0.892,-0.129,4.15,73968.0
-0.248,-0.871,-0.13,0.854,73987.0
-0.263,-0.889,-0.149,7.08,74006.0
-0.322,-0.904,-0.144,9.094,74028.0
-0.33,-0.887,-0.109,7.385,74049.0
-0.341,-0.862,-0.058,6.165,74068.0
-0.36,-0.846,-0.02,1.404,74093.0
-0.312,-0.784,0.051,4.7,74114.0
-0.405,-0.821,-0.024,5.615,74134.0
-0.391,-0.805,-0.061,-7.996,74155.0
-0.299,-0.727,0.026,-11.108,74178.0
-0.355,-0.79,-0.112,-10.986,74198.0
-0.366,-0.867,-0.322,-25.085,74217.0
-0.302,-0.912,-0.5,-34.607,74237.0
-0.206,-0.936,-0.584,-36.682,74257.0
-0.175,-0.941,-0.661,-33.569,74277.0
-0.14,-0.943,-0.735,-27.527,74295.0
-0.087,-0.943,-0.8,-20.203,74314.0
-0.11,-0.965,-0.863,-11.414,74335.0
-0.095,-0.951,-0.859,-7.263,74353.0
-0.077,-0.898,-0.742,1.038,74371.0
-0.149,-0.895,-0.627,13.855,74391.0
-0.091,-0.824,-0.438,14.954,74411.0
-0.188,-0.869,-0.534,18.982,74431.0
-0.25,-0.855,-0.468,26.917,74449.0
-0.328,-0.825,-0.367,31.006,74467.0
-0.481,-0.825,-0.299,36.133,74486.0
-0.391,-0.744,-0.222,24.475,74507.0
-0.404,-0.715,-0.142,34.851,74525.0
-0.454,-0.756,-0.404,27.161,74546.0
-0.364,-0.68,-0.341,20.203,74565.0
-0.454,-0.689,-0.39,2.808,74585.0
-0.288,-0.654,-0.577,-4.7,74604.0
-0.129,-0.645,-0.745,-2.136,74622.0
-0.122,-0.636,-0.813,8.179,74642.0
-0.027,-0.688,-1.061,19.531,74660.0
0.067,-0.773,-1.294,42.908,74679.0
-0.161,-1.035,-1.713,41.809,74701.0
0.221,-0.967,-2.086,38.757,74722.0
0.288,-0.813,-1.86,94.849,74742.0
0.203,-0.618,-1.344,129.883,74760.0
-0.254,-0.615,-0.957,170.41,74779.0
-1.081,-0.713,-0.339,154.48,74801.0
-1.209,-0.416,0.679,131.897,74820.0
-1.634,-0.222,1.192,101.44,74841.0
-1.915,-0.203,1.319,57.678,74860.0
-1.908,-0.106,1.302,-10.498,74880.0
-1.329,-0.054,0.977,-69.031,74901.0
-1.08,-0.092,0.536,-100.891,74921.0
-0.947,-0.177,0.21,-137.817,74943.0
-0.772,-0.246,-0.228,-178.101,74962.0
0.009,-0.301,-1.072,-192.505,74983.0
0.399,-0.46,-1.477,-166.565,75002.0
0.287,-0.561,-1.409,-136.902,75022.0
0.741,-0.688,-1.913,-120.361,75040.0
1.226,-0.615,-1.908,-76.721,75059.0
1.136,-0.654,-1.55,14.221,75077.0
0.732,-0.724,-1.107,68.909,75097.0
0.388,-0.806,-1.006,102.478,75117.0
0.031,-0.854,-0.933,135.925,75138.0
-0.598,-1.008,-0.884,149.78,75158.0
-0.797,-0.96,-0.649,124.451,75177.0
-0.886,-0.877,-0.458,94.604,75197.0
-0.83,-0.738,-0.285,67.566,75216.0
-0.845,-0.639,-0.289,69.336,75236.0
-0.906,-0.589,-0.177,85.876,75254.0
-1.189,-0.509,0.103,90.942,75272.0
-1.274,-0.393,0.502,65.674,75292.0
-1.278,-0.368,0.717,12.024,75310.0
-1.166,-0.373,0.708,-54.504,75331.0
-0.829,-0.347,0.471,-109.924,75353.0
-0.63,-0.435,0.146,-136.963,75373.0
-0.425,-0.498,-0.075,-142.09,75394.0
-0.219,-0.584,-0.366,-144.348,75413.0
-0.156,-0.748,-0.617,-132.996,75433.0
0.109,-0.82,-0.836,-122.07,75455.0
0.258,-0.979,-0.915,-90.393,75475.0
0.224,-1.106,-0.944,-64.209,75493.0
0.072,-1.112,-0.792,-51.514,75514.0
-0.06,-1.09,-0.739,-48.462,75533.0
-0.075,-1.002,-0.685,-51.941,75553.0
0.0,-0.93,-0.647,-51.208,75572.0
0.049,-0.86,-0.63,-45.654,75590.0
0.027,-0.829,-0.615,-41.687,75611.0
0.066,-0.757,-0.561,-38.94,75632.0
0.072,-0.76,-0.558,-29.785,75650.0
0.022,-0.768,-0.553,-14.404,75671.0
-0.0,-0.797,-0.592,-8.423,75689.0
0.012,-0.821,-0.617,-4.761,75709.0
0.023,-0.841,-0.655,-0.061,75729.0
-0.015,-0.856,-0.659,4.15,75749.0
-0.062,-0.861,-0.648,6.287,75771.0
-0.038,-0.846,-0.648,6.165,75791.0
0.0,-0.817,-0.616,9.949,75812.0
-0.078,-0.833,-0.582,12.939,75833.0
-0.13,-0.831,-0.544,11.597,75851.0
-0.146,-0.839,-0.533,6.042,75873.0
-0.094,-0.808,-0.492,7.141,75893.0
-0.075,-0.811,-0.502,9.277,75917.0
-0.15,-0.85,-0.538,8.423,75938.0
-0.105,-0.828,-0.527,2.502,75959.0
-0.083,-0.836,-0.544,1.526,75978.0
-0.089,-0.846,-0.547,3.967,75998.0
-0.113,-0.856,-0.57,3.967,76019.0
-0.078,-0.848,-0.567,0.916,76040.0
-0.046,-0.835,-0.58,-2.625,76060.0
-0.075,-0.84,-0.574,3.296,76081.0
-0.119,-0.862,-0.602,2.747,76102.0
-0.079,-0.843,-0.577,-1.892,76125.0
-0.039,-0.831,-0.562,1.465,76146.0
-0.091,-0.851,-0.565,5.127,76165.0
-0.09,-0.847,-0.563,2.93,76184.0
-0.084,-0.847,-0.563,2.136,76202.0
-0.08,-0.841,-0.548,4.517,76221.0
-0.101,-0.85,-0.549,7.263,76242.0
-0.096,-0.844,-0.534,7.446,76260.0
-0.105,-0.852,-0.535,3.784,76278.0
-0.201,-0.893,-0.53,1.892,76300.0
-0.164,-0.877,-0.525,-5.249,76319.0
-0.104,-0.854,-0.544,-6.287,76338.0
-0.089,-0.846,-0.549,-3.906,76357.0
-0.157,-0.868,-0.552,-3.967,76376.0
-0.134,-0.874,-0.573,-8.972,76396.0
-0.072,-0.854,-0.568,-10.193,76414.0
-0.055,-0.854,-0.579,-7.263,76440.0
-0.062,-0.866,-0.58,-5.615,76461.0
-0.076,-0.861,-0.567,-4.883,76479.0
-0.092,-0.866,-0.568,-6.287,76499.0
-0.049,-0.851,-0.564,-7.935,76517.0
-0.023,-0.837,-0.537,-4.15,76538.0
-0.062,-0.843,-0.528,-0.122,76558.0
-0.104,-0.861,-0.532,-0.549,76576.0
-0.121,-0.868,-0.524,-5.066,76597.0
-0.11,-0.863,-0.529,-7.446,76615.0
-0.088,-0.86,-0.49,-7.141,76641.0
-0.063,-0.846,-0.481,-7.202,76660.0
-0.083,-0.847,-0.49,-6.104,76679.0
-0.1,-0.844,-0.49,-8.972,76699.0
-0.089,-0.855,-0.509,-10.925,76719.0
-0.081,-0.864,-0.512,-10.437,76741.0
-0.111,-0.887,-0.531,-14.893,76762.0
-0.098,-0.901,-0.575,-19.958,76780.0
-0.145,-0.944,-0.693,-27.405,76800.0
0.0,-0.972,-0.776,-31.189,76818.0
0.071,-1.015,-0.994,-27.588,76842.0
0.075,-1.101,-1.237,-28.503,76860.0
0.298,-0.945,-1.007,-13.55,76878.0
0.473,-0.845,-0.8,15.076,76898.0
0.307,-0.779,-0.509,42.053,76917.0
-0.031,-0.787,-0.287,51.636,76939.0
-0.149,-0.759,-0.11,46.204,76957.0
-0.184,-0.708,0.094,39.307,76977.0
-0.201,-0.664,0.259,32.959,76997.0
-0.181,-0.624,0.357,26.489,77015.0
-0.178,-0.609,0.384,28.32,77034.0
-0.369,-0.71,0.267,23.743,77056.0
-0.404,-0.793,0.121,7.69,77076.0
-0.348,-0.838,0.013,-4.333,77095.0
-0.287,-0.846,-0.237,-15.015,77115.0
-0.272,-1.011,-0.36,-24.658,77133.0
-0.26,-1.136,-0.632,-32.41,77153.0
-0.147,-1.186,-0.854,-40.039,77172.0
0.093,-1.17,-1.031,-35.217,77193.0
0.184,-1.126,-1.052,-20.874,77212.0
0.032,-1.086,-0.949,-10.681,77233.0
0.108,-0.993,-0.849,-8.911,77254.0
0.226,-0.904,-0.724,9.46,77275.0
0.061,-0.891,-0.592,29.724,77298.0
-0.028,-0.859,-0.39,26.428,77318.0
-0.074,-0.783,-0.171,23.804,77339.0
-0.114,-0.747,0.084,23.193,77360.0
-0.136,-0.689,0.224,23.987,77378.0
-0.204,-0.688,0.357,24.475,77398.0
-0.213,-0.683,0.318,17.334,77418.0
-0.298,-0.719,0.188,7.996,77436.0
-0.349,-0.806,-0.059,-7.935,77459.0
-0.3,-0.883,-0.26,-24.536,77478.0
-0.167,-0.924,-0.419,-27.222,77499.0
-0.192,-1.052,-0.628,-24.17,77518.0
-0.189,-1.117,-0.762,-29.358,77536.0
-0.155,-1.157,-0.877,-35.278,77556.0
-0.084,-1.117,-0.865,-40.405,77578.0
0.009,-1.023,-0.773,-37.354,77597.0
0.02,-0.961,-0.718,-31.372,77616.0
0.053,-0.895,-0.652,-27.893,77635.0
0.062,-0.85,-0.572,-18.066,77654.0
-0.015,-0.845,-0.504,-12.39,77672.0
-0.035,-0.83,-0.436,-12.39,77690.0
-0.052,-0.821,-0.383,-12.573,77709.0
-0.061,-0.823,-0.354,-15.564,77729.0
-0.071,-0.849,-0.328,-12.268,77748.0
-0.069,-0.819,-0.33,-25.696,77768.0
0.017,-0.796,-0.378,-31.616,77788.0
0.107,-0.77,-0.432,-28.259,77807.0
0.019,-0.87,-0.576,-20.447,77827.0
0.02,-0.881,-0.578,-21.118,77850.0
0.05,-0.87,-0.598,-22.156,77870.0
0.102,-0.859,-0.62,-20.813,77889.0
0.089,-0.871,-0.668,-16.724,77909.0
0.011,-0.898,-0.719,-15.259,77928.0
0.122,-0.834,-0.67,-15.747,77946.0
0.123,-0.841,-0.671,-2.93,77965.0
0.109,-0.844,-0.631,-0.305,77983.0
0.05,-0.858,-0.628,-1.465,78003.0
0.055,-0.855,-0.648,-3.479,78024.0
0.125,-0.843,-0.647,-3.601,78044.0
0.138,-0.861,-0.7,2.991,78064.0
0.12,-0.9,-0.749,6.287,78083.0
0.126,-0.911,-0.74,4.456,78102.0
0.037,-0.991,-0.881,-4.456,78120.0
0.198,-0.93,-0.787,-6.104,78138.0
0.238,-0.915,-0.735,12.695,78159.0
0.092,-0.9,-0.609,30.273,78180.0
0.08,-0.836,-0.427,34.668,78198.0
-0.041,-0.848,-0.344,35.4,78217.0
-0.049,-0.798,-0.159,29.053,78236.0
-0.079,-0.752,0.012,22.156,78254.0
-0.095,-0.695,0.198,12.939,78275.0
-0.025,-0.559,0.438,22.156,78299.0
-0.04,-0.549,0.389,31.372,78317.0
-0.217,-0.64,0.198,32.837,78336.0
-0.275,-0.7,0.07,22.644,78356.0
-0.291,-0.82,-0.201,2.502,78378.0
-0.152,-0.866,-0.376,-11.597,78398.0
-0.094,-1.002,-0.687,-14.587,78417.0
-0.121,-1.167,-1.028,-21.729,78436.0
-0.048,-1.253,-1.335,-33.997,78455.0
0.15,-1.229,-1.491,-30.457,78476.0
0.328,-1.109,-1.414,-12.512,78495.0
0.343,-0.965,-1.152,9.949,78515.0
0.261,-0.852,-0.868,26.611,78535.0
0.073,-0.804,-0.661,30.151,78558.0
0.094,-0.727,-0.456,30.64,78578.0
0.119,-0.706,-0.367,37.659,78596.0
0.049,-0.734,-0.285,50.11,78618.0
-0.011,-0.767,-0.247,53.894,78638.0
0.007,-0.763,-0.185,56.152,78660.0
-0.109,-0.804,-0.161,67.81,78681.0
-0.176,-0.796,-0.065,71.411,78700.0
-0.236,-0.808,-0.031,75.073,78720.0
-0.348,-0.848,-0.008,69.153,78744.0
-0.441,-0.897,0.001,64.575,78763.0
-0.661,-0.985,0.061,44.373,78788.0
-0.714,-0.99,0.127,18.616,78808.0
-0.675,-0.982,0.044,-9.216,78828.0
-0.614,-0.975,-0.089,-37.598,78849.0
-0.507,-0.937,-0.171,-56.091,78868.0
-0.31,-0.893,-0.337,-72.388,78892.0
-0.122,-0.865,-0.481,-74.097,78910.0
-0.009,-0.863,-0.585,-61.279,78929.0
-0.006,-0.864,-0.583,-44.8,78951.0
-0.034,-0.877,-0.584,-39.734,78970.0
-0.033,-0.87,-0.591,-42.664,78989.0
0.013,-0.85,-0.594,-44.495,79007.0
0.021,-0.845,-0.635,-41.931,79024.0
0.064,-0.842,-0.702,-37.354,79045.0
0.102,-0.84,-0.729,-23.376,79062.0
0.072,-0.852,-0.716,-12.695,79080.0
0.052,-0.825,-0.632,-5.554,79102.0
0.05,-0.818,-0.599,-3.235,79120.0
0.036,-0.808,-0.633,-5.859,79141.0
0.04,-0.811,-0.671,0.488,79160.0
0.023,-0.847,-0.776,7.019,79182.0
0.064,-0.847,-0.8,13.306,79203.0
0.105,-0.842,-0.814,20.264,79222.0
0.176,-0.841,-0.857,31.067,79243.0
0.219,-0.835,-0.82,48.035,79261.0
0.141,-0.823,-0.73,68.054,79279.0
-0.118,-0.889,-0.633,78.369,79300.0
-0.256,-0.893,-0.472,74.036,79318.0
-0.354,-0.891,-0.321,59.998,79341.0
-0.427,-0.898,-0.25,45.471,79361.0
-0.441,-0.882,-0.179,33.325,79380.0
-0.446,-0.852,-0.081,25.391,79400.0
-0.447,-0.814,0.057,21.301,79421.0
-0.529,-0.831,0.071,12.817,79443.0
-0.491,-0.792,0.077,-2.93,79463.0
-0.531,-0.815,0.022,-8.484,79483.0
-0.48,-0.833,-0.107,-24.841,79503.0
-0.365,-0.837,-0.227,-41.626,79523.0
-0.264,-0.819,-0.343,-43.152,79541.0
-0.207,-0.816,-0.459,-44.678,79561.0
-0.209,-0.838,-0.566,-47.546,79579.0
-0.087,-0.844,-0.729,-52.307,79601.0
-0.013,-0.821,-0.799,-43.64,79621.0
0.034,-0.815,-0.853,-35.522,79641.0
0.024,-0.805,-0.902,-22.888,79659.0
0.12,-0.787,-0.971,-20.264,79677.0
0.181,-0.773,-0.994,-11.475,79701.0
0.198,-0.76,-0.971,3.174,79721.0
0.156,-0.739,-0.896,15.93,79740.0
0.153,-0.761,-0.938,27.893,79762.0
0.168,-0.761,-0.939,43.701,79781.0
0.064,-0.779,-0.888,61.829,79803.0
-0.066,-0.797,-0.753,75.378,79824.0
-0.223,-0.8,-0.532,81.36,79844.0
-0.377,-0.834,-0.374,79.346,79865.0
-0.474,-0.849,-0.246,67.688,79883.0
-0.502,-0.847,-0.144,51.086,79906.0
-0.519,-0.851,-0.107,37.964,79926.0
-0.509,-0.832,-0.068,26.123,79946.0
-0.561,-0.875,-0.089,14.893,79967.0
-0.533,-0.88,-0.059,2.808,79987.0
-0.515,-0.874,-0.002,-5.981,80008.0
-0.474,-0.873,-0.033,-16.541,80028.0
-0.437,-0.887,-0.118,-26.245,80048.0
-0.409,-0.879,-0.149,-36.072,80068.0
-0.384,-0.873,-0.176,-43.579,80086.0
-0.334,-0.859,-0.237,-49.133,80108.0
-0.263,-0.85,-0.31,-52.612,80127.0
-0.208,-0.853,-0.392,-53.955,80145.0
-0.231,-0.869,-0.462,-56.763,80164.0
-0.153,-0.864,-0.54,-63.049,80184.0
-0.027,-0.883,-0.761,-67.261,80205.0
0.094,-0.82,-0.74,-54.932,80226.0
0.11,-0.816,-0.759,-39.429,80244.0
0.057,-0.862,-0.824,-28.564,80262.0
0.086,-0.829,-0.763,-22.522,80282.0
0.08,-0.827,-0.727,-12.939,80300.0
0.042,-0.843,-0.737,-10.803,80320.0
0.062,-0.821,-0.722,-8.911,80338.0
0.099,-0.788,-0.686,-3.906,80361.0
0.106,-0.786,-0.66,8.545,80382.0
0.04,-0.816,-0.666,18.86,80403.0
-0.056,-0.838,-0.641,22.339,80424.0
-0.072,-0.838,-0.574,20.63,80446.0
-0.046,-0.831,-0.526,20.935,80467.0
-0.114,-0.84,-0.502,25.513,80488.0
-0.166,-0.859,-0.518,24.658,80507.0
-0.184,-0.872,-0.539,19.409,80529.0
-0.109,-0.863,-0.537,16.541,80549.0
-0.072,-0.852,-0.544,20.447,80568.0
-0.06,-0.851,-0.556,24.048,80586.0
-0.087,-0.851,-0.557,28.137,80606.0
-0.085,-0.848,-0.58,27.039,80626.0
0.024,-0.833,-0.58,29.907,80645.0
-0.006,-0.837,-0.589,41.077,80668.0
-0.078,-0.863,-0.567,49.683,80688.0
-0.208,-0.898,-0.536,53.955,80709.0
-0.271,-0.904,-0.464,52.734,80730.0
-0.353,-0.918,-0.416,48.218,80750.0
-0.412,-0.918,-0.317,41.443,80771.0
-0.507,-0.938,-0.278,37.048,80789.0
-0.562,-0.919,-0.134,28.381,80809.0
-0.657,-0.92,-0.048,12.817,80828.0
-0.637,-0.885,0.002,-8.362,80846.0
-0.522,-0.854,-0.073,-28.687,80866.0
-0.408,-0.812,-0.088,-36.621,80884.0
-0.349,-0.816,-0.172,-39.795,80904.0
-0.344,-0.85,-0.271,-42.297,80923.0
-0.282,-0.847,-0.278,-46.814,80943.0
-0.245,-0.849,-0.319,-51.758,80963.0
-0.162,-0.831,-0.391,-58.899,80983.0
-0.051,-0.83,-0.503,-58.716,81004.0
-0.052,-0.838,-0.588,-54.138,81023.0
0.012,-0.834,-0.652,-51.514,81044.0
0.035,-0.851,-0.668,-39.307,81063.0
0.087,-0.827,-0.732,-35.217,81084.0
0.104,-0.828,-0.74,-24.78,81104.0
0.048,-0.843,-0.729,-14.954,81126.0
0.035,-0.829,-0.679,-10.742,81146.0
0.007,-0.818,-0.669,-7.385,81166.0
-0.0,-0.809,-0.641,-5.371,81184.0
0.008,-0.792,-0.594,1.892,81205.0
-0.069,-0.811,-0.601,5.737,81223.0
-0.059,-0.813,-0.594,3.113,81244.0
-0.013,-0.8,-0.624,2.197,81262.0
0.03,-0.781,-0.64,3.052,81282.0
0.099,-0.751,-0.654,6.775,81300.0
0.122,-0.747,-0.684,15.564,81320.0
0.127,-0.752,-0.764,20.569,81339.0
0.159,-0.748,-0.83,18.738,81360.0
0.303,-0.757,-0.861,19.409,81381.0
0.234,-0.826,-0.973,46.387,81403.0
-0.021,-0.879,-0.936,70.618,81425.0
-0.247,-0.902,-0.774,80.994,81444.0
-0.378,-0.876,-0.569,82.642,81463.0
-0.558,-0.879,-0.331,67.749,81485.0
-0.564,-0.858,-0.204,45.349,81507.0
-0.566,-0.852,-0.164,32.166,81526.0
-0.609,-0.853,-0.082,24.658,81545.0
-0.632,-0.837,0.063,19.348,81563.0
-0.711,-0.843,0.168,9.277,81583.0
-0.786,-0.866,0.145,-15.991,81603.0
-0.713,-0.841,0.079,-43.945,81621.0
-0.499,-0.8,-0.092,-70.251,81643.0
-0.349,-0.761,-0.208,-84.045,81661.0
-0.248,-0.757,-0.332,-89.478,81679.0
-0.137,-0.73,-0.432,-94.543,81697.0
0.007,-0.725,-0.62,-92.163,81718.0
0.123,-0.699,-0.711,-88.379,81736.0
0.252,-0.672,-0.813,-80.2,81756.0
0.376,-0.646,-0.923,-70.618,81776.0
0.515,-0.642,-1.042,-51.636,81794.0
0.346,-0.739,-1.199,-22.827,81816.0
0.375,-0.734,-1.168,-12.024,81836.0
0.413,-0.702,-1.034,9.827,81856.0
0.314,-0.718,-0.98,26.123,81874.0
0.24,-0.709,-0.881,38.513,81893.0
0.121,-0.723,-0.847,45.227,81911.0
0.114,-0.719,-0.802,45.776,81929.0
0.135,-0.711,-0.767,54.321,81948.0
0.071,-0.719,-0.75,66.101,81967.0
-0.038,-0.776,-0.752,72.144,81986.0
-0.146,-0.829,-0.741,66.772,82007.0
-0.138,-0.85,-0.705,67.749,82026.0
-0.178,-0.861,-0.648,71.899,82046.0
-0.271,-0.863,-0.552,69.397,82070.0
-0.385,-0.875,-0.463,62.378,82089.0
-0.382,-0.836,-0.343,52.979,82107.0
-0.35,-0.788,-0.208,45.471,82126.0
-0.271,-0.731,-0.121,43.03,82144.0
-0.138,-0.698,-0.142,53.467,82165.0
-0.161,-0.732,-0.191,58.716,82183.0
-0.169,-0.792,-0.206,61.462,82203.0
-0.31,-0.855,-0.177,67.81,82224.0
-0.378,-0.876,-0.14,63.904,82244.0
-0.517,-0.925,-0.208,58.655,82263.0
-0.519,-0.949,-0.258,46.021,82281.0
-0.527,-0.961,-0.264,40.833,82299.0
-0.551,-0.967,-0.263,32.166,82317.0
-0.521,-0.94,-0.228,24.414,82335.0
-0.525,-0.935,-0.255,23.682,82357.0
-0.559,-0.946,-0.24,16.785,82377.0
-0.559,-0.931,-0.196,5.92,82395.0
-0.489,-0.905,-0.192,-3.662,82417.0
-0.429,-0.895,-0.222,-6.226,82436.0
-0.455,-0.895,-0.193,-6.653,82455.0
-0.46,-0.89,-0.191,-10.986,82475.0
-0.463,-0.906,-0.206,-12.39,82494.0
-0.509,-0.91,-0.167,-18.372,82514.0
-0.544,-0.908,-0.114,-26.489,82533.0
-0.533,-0.891,-0.089,-38.208,82553.0
-0.457,-0.826,-0.059,-53.345,82578.0
-0.42,-0.807,-0.121,-62.439,82597.0
-0.421,-0.818,-0.214,-72.51,82617.0
-0.27,-0.783,-0.286,-84.29,82639.0
-0.123,-0.765,-0.318,-80.566,82658.0
-0.15,-0.791,-0.36,-71.411,82676.0
-0.181,-0.804,-0.403,-68.848,82697.0
-0.158,-0.787,-0.472,-74.28,82717.0
-0.045,-0.751,-0.52,-78.369,82736.0
0.077,-0.696,-0.579,-76.294,82758.0
0.169,-0.665,-0.671,-69.336,82777.0
0.226,-0.648,-0.761,-60.608,82798.0
0.297,-0.671,-0.843,-42.908,82819.0
0.236,-0.764,-1.005,-19.653,82840.0
0.139,-0.843,-1.08,-4.15,82860.0
0.125,-0.84,-1.068,6.592,82882.0
0.118,-0.813,-1.032,10.437,82903.0
0.068,-0.808,-1.041,23.01,82926.0
0.091,-0.78,-1.049,31.311,82944.0
0.141,-0.761,-1.039,46.936,82963.0
0.128,-0.759,-0.927,68.542,82986.0
0.014,-0.733,-0.75,80.322,83006.0
-0.054,-0.748,-0.694,79.163,83026.0
-0.032,-0.758,-0.646,83.313,83044.0
-0.028,-0.751,-0.572,90.393,83063.0
-0.041,-0.735,-0.46,99.609,83083.0
-0.149,-0.738,-0.359,113.892,83106.0
-0.337,-0.736,-0.229,119.141,83126.0
-0.539,-0.709,0.103,111.511,83148.0
-0.61,-0.71,0.257,92.834,83167.0
-0.699,-0.737,0.314,69.458,83189.0
-0.679,-0.761,0.213,43.213,83210.0
-0.728,-0.782,0.223,25.208,83229.0
-0.698,-0.776,0.263,8.484,83251.0
-0.677,-0.785,0.216,-2.136,83269.0
-0.673,-0.794,0.141,-10.376,83288.0
-0.725,-0.833,0.06,-23.865,83308.0
-0.659,-0.815,0.047,-38.818,83326.0
-0.629,-0.817,-0.014,-48.279,83347.0
-0.619,-0.839,-0.11,-60.486,83366.0
-0.566,-0.843,-0.214,-73.73,83387.0
-0.495,-0.834,-0.31,-90.088,83407.0
-0.406,-0.802,-0.374,-106.384,83428.0
-0.25,-0.757,-0.466,-118.164,83447.0
-0.074,-0.718,-0.577,-120.361,83467.0
0.104,-0.662,-0.662,-111.267,83487.0
0.214,-0.644,-0.742,-88.562,83508.0
0.252,-0.658,-0.847,-63.965,83527.0
0.249,-0.685,-0.894,-40.405,83546.0
0.146,-0.732,-0.933,-24.231,83567.0
0.19,-0.718,-0.926,-16.296,83587.0
0.179,-0.728,-0.984,0.793,83610.0
0.102,-0.752,-1.018,9.949,83630.0
0.098,-0.754,-1.058,12.756,83651.0
0.196,-0.735,-1.081,26.794,83671.0
0.219,-0.726,-1.067,54.26,83691.0
0.112,-0.732,-1.007,79.651,83711.0
-0.084,-0.748,-0.974,91.431,83732.0
-0.035,-0.747,-0.935,100.037,83750.0
-0.055,-0.753,-0.815,116.028,83770.0
-0.235,-0.747,-0.605,124.084,83791.0
-0.454,-0.746,-0.384,112.671,83812.0
-0.563,-0.743,-0.255,94.543,83831.0
-0.558,-0.738,-0.13,74.768,83852.0
-0.491,-0.721,-0.02,69.214,83870.0
-0.5,-0.724,0.028,67.078,83891.0
-0.566,-0.756,0.022,61.157,83910.0
-0.616,-0.777,0.041,49.011,83929.0
-0.672,-0.784,0.084,35.828,83950.0
-0.636,-0.753,0.164,22.522,83968.0
-0.628,-0.747,0.216,15.015,83987.0
-0.66,-0.787,0.115,2.258,84009.0
-0.646,-0.794,0.047,-13.977,84030.0
-0.617,-0.797,0.008,-23.926,84049.0
-0.601,-0.795,0.001,-29.602,84068.0
-0.63,-0.833,-0.09,-39.185,84089.0
-0.53,-0.8,-0.124,-56.152,84113.0
-0.446,-0.78,-0.203,-64.27,84135.0
-0.394,-0.798,-0.33,-69.946,84154.0
-0.334,-0.788,-0.412,-73.669,84174.0
