Acc_X,Acc_Y,Acc_Z,Rot_Z,Millis
-0.312,-0.160,-1.072,3.601,97962
-0.337,-0.180,-1.088,3.601,97968
-0.337,-0.180,-1.088,1.343,97973
-0.337,-0.106,-1.067,-3.723,97978
-0.337,-0.106,-1.067,-6.714,97983
-0.350,-0.107,-1.029,-8.972,97988
-0.350,-0.107,-1.029,-10.559,97994
-0.366,-0.123,-0.974,-11.902,97999
-0.366,-0.123,-0.974,-14.038,98004
-0.391,-0.112,-0.908,-15.747,98009
-0.391,-0.112,-0.908,-15.625,98015
-0.419,-0.123,-0.857,-14.526,98020
-0.419,-0.123,-0.857,-12.024,98025
-0.446,-0.149,-0.817,-8.057,98030
-0.446,-0.149,-0.817,-6.592,98036
-0.442,-0.193,-0.792,-5.676,98041
-0.463,-0.200,-0.782,-0.732,98046
-0.463,-0.200,-0.782,2.075,98051
-0.460,-0.164,-0.787,3.357,98056
-0.460,-0.164,-0.787,6.226,98062
-0.455,-0.159,-0.820,8.911,98067
-0.455,-0.159,-0.820,10.071,98072
-0.436,-0.147,-0.861,10.925,98077
-0.436,-0.147,-0.861,10.376,98082
-0.416,-0.141,-0.905,9.583,98088
-0.416,-0.141,-0.905,10.254,98093
-0.405,-0.135,-0.946,9.888,98098
-0.405,-0.135,-0.946,8.545,98103
-0.383,-0.123,-0.975,6.714,98108
-0.383,-0.123,-0.975,4.028,98114
-0.374,-0.133,-0.999,2.075,98119
-0.374,-0.133,-0.999,0.793,98124
-0.377,-0.126,-0.997,-0.671,98129
-0.377,-0.126,-0.997,-2.625,98134
-0.381,-0.125,-0.980,-4.089,98139
-0.381,-0.125,-0.980,-5.432,98145
-0.387,-0.125,-0.949,-5.981,98150
-0.402,-0.125,-0.916,-10.071,98155
-0.402,-0.125,-0.916,-8.301,98160
-0.420,-0.137,-0.882,-7.751,98166
-0.420,-0.137,-0.882,-7.751,98171
-0.431,-0.157,-0.858,-6.653,98176
-0.431,-0.157,-0.858,-3.479,98181
-0.425,-0.179,-0.844,-2.747,98186
-0.425,-0.179,-0.844,-3.540,98192
-0.443,-0.171,-0.836,-0.061,98197
-0.443,-0.171,-0.836,0.977,98202
-0.442,-0.155,-0.841,2.014,98207
-0.442,-0.155,-0.841,3.906,98212
-0.435,-0.153,-0.863,4.761,98218
-0.435,-0.153,-0.863,5.737,98223
-0.421,-0.146,-0.885,5.798,98228
-0.421,-0.146,-0.885,5.432,98233
-0.418,-0.142,-0.915,5.859,98238
-0.418,-0.142,-0.915,5.493,98243
-0.408,-0.139,-0.938,4.578,98249
-0.408,-0.139,-0.938,3.784,98254
-0.399,-0.136,-0.947,3.052,98259
-0.396,-0.133,-0.954,0.122,98264
-0.396,-0.133,-0.954,-1.160,98269
-0.401,-0.133,-0.950,-1.892,98275
-0.401,-0.133,-0.950,-2.441,98280
-0.407,-0.136,-0.938,-3.235,98285
-0.407,-0.136,-0.938,-3.967,98290
-0.406,-0.138,-0.910,-4.089,98295
-0.406,-0.138,-0.910,-4.333,98301
-0.420,-0.141,-0.893,-4.578,98306
-0.420,-0.141,-0.893,-4.578,98311
-0.429,-0.146,-0.878,-3.906,98316
-0.429,-0.146,-0.878,-2.441,98322
-0.428,-0.148,-0.864,-2.136,98327
-0.428,-0.148,-0.864,-1.587,98332
-0.435,-0.149,-0.862,-0.305,98337
-0.435,-0.149,-0.862,0.366,98342
-0.433,-0.147,-0.867,1.160,98348
-0.433,-0.147,-0.867,2.075,98353
-0.430,-0.144,-0.881,2.258,98358
-0.430,-0.144,-0.881,2.502,98363
-0.425,-0.143,-0.899,2.991,98368
-0.417,-0.140,-0.912,2.625,98373
-0.417,-0.140,-0.912,2.075,98379
-0.412,-0.140,-0.921,1.831,98384
-0.412,-0.140,-0.921,1.099,98389
-0.411,-0.137,-0.929,0.549,98394
-0.411,-0.137,-0.929,0.000,98399
-0.411,-0.139,-0.930,-0.549,98404
-0.411,-0.139,-0.930,-0.916,98410
-0.411,-0.140,-0.923,-1.465,98415
-0.411,-0.140,-0.923,-1.770,98420
-0.413,-0.141,-0.913,-1.953,98425
-0.413,-0.141,-0.913,-2.075,98430
-0.414,-0.144,-0.901,-1.953,98436
-0.414,-0.144,-0.901,-1.648,98441
-0.417,-0.145,-0.892,-1.526,98446
-0.417,-0.145,-0.892,-1.404,98451
-0.419,-0.145,-0.890,-0.916,98456
-0.419,-0.145,-0.890,-0.549,98462
-0.417,-0.143,-0.888,-0.244,98467
-0.417,-0.143,-0.888,0.183,98472
-0.417,-0.146,-0.890,0.549,98477
-0.415,-0.144,-0.899,0.793,98482
-0.415,-0.144,-0.899,0.977,98488
-0.410,-0.142,-0.910,1.221,98493
-0.410,-0.142,-0.910,0.854,98498
-0.410,-0.142,-0.917,0.793,98503
-0.410,-0.142,-0.917,0.732,98508
-0.408,-0.142,-0.922,0.488,98513
-0.408,-0.142,-0.922,0.122,98519
-0.408,-0.140,-0.922,-0.061,98524
-0.408,-0.140,-0.922,-0.427,98529
-0.408,-0.141,-0.918,-0.732,98534
-0.408,-0.141,-0.918,-0.977,98539
-0.411,-0.143,-0.913,-1.282,98545
-0.411,-0.143,-0.913,-1.160,98550
-0.413,-0.142,-0.906,-1.343,98555
-0.413,-0.142,-0.906,-1.282,98560
-0.415,-0.144,-0.897,-1.038,98565
-0.415,-0.144,-0.897,-0.793,98571
-0.415,-0.144,-0.893,-0.732,98576
-0.415,-0.144,-0.893,-0.488,98581
-0.417,-0.143,-0.892,-0.427,98586
-0.417,-0.143,-0.892,-0.122,98591
-0.419,-0.142,-0.896,0.305,98597
-0.417,-0.142,-0.900,0.427,98602
-0.417,-0.142,-0.900,0.549,98607
-0.416,-0.144,-0.905,0.488,98612
-0.416,-0.144,-0.905,0.305,98617
-0.417,-0.143,-0.909,0.305,98622
-0.417,-0.143,-0.909,0.061,98628
-0.416,-0.141,-0.911,-0.183,98633
-0.416,-0.141,-0.911,-0.244,98638
-0.416,-0.142,-0.908,-0.610,98643
-0.416,-0.142,-0.908,-0.854,98648
-0.418,-0.141,-0.905,-0.793,98654
-0.418,-0.141,-0.905,-0.854,98659
-0.421,-0.142,-0.900,-0.916,98664
-0.421,-0.142,-0.900,-0.793,98669
-0.421,-0.142,-0.894,-0.732,98675
-0.421,-0.142,-0.894,-0.671,98680
-0.420,-0.142,-0.893,-0.427,98685
-0.420,-0.142,-0.893,-0.183,98690
-0.419,-0.141,-0.895,0.000,98695
-0.419,-0.141,-0.895,0.122,98700
-0.418,-0.141,-0.898,0.427,98706
-0.415,-0.142,-0.904,0.305,98711
-0.415,-0.142,-0.904,0.305,98716
-0.414,-0.142,-0.909,0.244,98721
-0.414,-0.142,-0.909,0.366,98726
-0.413,-0.143,-0.912,0.305,98731
-0.413,-0.143,-0.912,-0.122,98737
-0.412,-0.143,-0.913,-0.244,98742
-0.412,-0.143,-0.913,-0.305,98747
-0.412,-0.143,-0.911,-0.366,98752
-0.412,-0.143,-0.911,-0.549,98757
-0.411,-0.144,-0.909,-0.610,98763
-0.411,-0.144,-0.909,-0.610,98768
-0.412,-0.144,-0.905,-0.671,98773
-0.412,-0.144,-0.905,-0.671,98778
-0.412,-0.143,-0.903,-0.732,98784
-0.412,-0.143,-0.903,-0.366,98789
-0.413,-0.143,-0.901,-0.305,98794
-0.413,-0.143,-0.901,-0.183,98799
-0.411,-0.143,-0.901,-0.061,98804
-0.411,-0.143,-0.901,0.183,98810
-0.412,-0.142,-0.905,0.183,98815
-0.409,-0.143,-0.908,0.244,98820
-0.409,-0.143,-0.908,0.183,98825
-0.407,-0.143,-0.911,0.061,98830
-0.407,-0.143,-0.911,0.061,98835
-0.409,-0.144,-0.913,-0.122,98841
-0.409,-0.144,-0.913,-0.244,98846
-0.408,-0.144,-0.913,-0.183,98851
-0.408,-0.144,-0.913,-0.427,98856
-0.409,-0.142,-0.910,-0.488,98861
-0.409,-0.142,-0.910,-0.366,98867
-0.411,-0.144,-0.906,-0.427,98872
-0.411,-0.144,-0.906,-0.610,98877
-0.412,-0.144,-0.904,-0.610,98882
-0.412,-0.144,-0.904,-0.488,98887
-0.413,-0.141,-0.901,-0.366,98893
-0.413,-0.141,-0.901,-0.305,98898
-0.413,-0.140,-0.898,-0.244,98903
-0.413,-0.140,-0.898,-0.122,98908
-0.415,-0.140,-0.901,-0.122,98913
-0.415,-0.140,-0.901,0.000,98919
-0.416,-0.139,-0.903,0.000,98924
-0.415,-0.139,-0.905,-0.061,98929
-0.415,-0.139,-0.905,0.122,98934
-0.415,-0.138,-0.907,0.061,98939
-0.415,-0.138,-0.907,-0.244,98944
-0.414,-0.140,-0.907,-0.427,98950
-0.414,-0.140,-0.907,-0.305,98955
-0.415,-0.141,-0.905,-0.366,98960
-0.415,-0.141,-0.905,-0.549,98965
-0.415,-0.143,-0.905,-0.549,98970
-0.415,-0.143,-0.905,-0.610,98976
-0.415,-0.144,-0.904,-0.427,98981
-0.415,-0.144,-0.904,-0.305,98986
-0.416,-0.143,-0.901,-0.366,98991
-0.416,-0.143,-0.901,-0.183,98997
-0.417,-0.144,-0.900,-0.183,99002
-0.417,-0.144,-0.900,-0.183,99007
-0.417,-0.144,-0.901,-0.122,99012
-0.417,-0.144,-0.901,0.000,99017
-0.415,-0.142,-0.903,-0.061,99022
-0.415,-0.142,-0.903,0.000,99028
-0.414,-0.141,-0.904,0.000,99033
-0.415,-0.139,-0.907,-0.061,99038
-0.415,-0.139,-0.907,-0.183,99043
-0.412,-0.140,-0.907,-0.305,99048
-0.412,-0.140,-0.907,-0.366,99054
-0.411,-0.139,-0.908,-0.305,99059
-0.411,-0.139,-0.908,-0.366,99064
-0.410,-0.140,-0.908,-0.305,99069
-0.410,-0.140,-0.908,-0.366,99074
-0.410,-0.140,-0.908,-0.244,99080
-0.410,-0.140,-0.908,-0.183,99085
-0.409,-0.141,-0.906,-0.366,99090
-0.409,-0.141,-0.906,-0.183,99095
-0.410,-0.142,-0.907,-0.244,99100
-0.410,-0.142,-0.907,-0.183,99106
-0.408,-0.142,-0.909,-0.244,99111
-0.408,-0.142,-0.909,-0.122,99116
-0.407,-0.144,-0.909,-0.244,99121
-0.407,-0.144,-0.909,-0.244,99126
-0.407,-0.143,-0.910,-0.122,99132
-0.407,-0.143,-0.910,-0.061,99137
-0.409,-0.142,-0.909,-0.244,99142
-0.409,-0.142,-0.908,-0.244,99147
-0.409,-0.142,-0.908,-0.244,99152
-0.409,-0.142,-0.908,-0.305,99158
-0.409,-0.142,-0.908,-0.366,99163
-0.410,-0.141,-0.906,-0.427,99168
-0.410,-0.141,-0.906,-0.366,99173
-0.410,-0.140,-0.906,-0.366,99179
-0.410,-0.140,-0.906,-0.427,99184
-0.412,-0.142,-0.904,-0.305,99189
-0.412,-0.142,-0.904,-0.244,99194
-0.413,-0.142,-0.905,-0.366,99199
-0.413,-0.142,-0.905,-0.305,99205
-0.413,-0.141,-0.904,-0.244,99210
-0.413,-0.141,-0.904,-0.122,99215
-0.413,-0.140,-0.903,-0.061,99220
-0.413,-0.140,-0.903,-0.122,99225
-0.412,-0.141,-0.905,-0.305,99231
-0.412,-0.141,-0.905,-0.244,99236
-0.413,-0.141,-0.906,-0.122,99241
-0.411,-0.141,-0.906,-0.122,99246
-0.411,-0.141,-0.906,-0.244,99251
-0.413,-0.141,-0.906,-0.244,99257
-0.413,-0.141,-0.906,-0.183,99262
-0.413,-0.140,-0.904,-0.366,99267
-0.413,-0.140,-0.904,-0.305,99272
-0.413,-0.142,-0.905,-0.305,99277
-0.413,-0.142,-0.905,-0.427,99283
-0.415,-0.142,-0.905,-0.244,99288
-0.415,-0.142,-0.905,-0.244,99293
-0.413,-0.141,-0.904,-0.244,99298
-0.413,-0.141,-0.904,-0.366,99303
-0.411,-0.140,-0.903,-0.122,99309
-0.411,-0.140,-0.903,-0.122,99314
-0.413,-0.140,-0.903,-0.122,99319
-0.413,-0.140,-0.903,-0.183,99324
-0.413,-0.140,-0.906,-0.122,99330
-0.413,-0.140,-0.906,-0.061,99335
-0.410,-0.142,-0.906,-0.122,99340
-0.410,-0.142,-0.906,-0.244,99345
-0.409,-0.138,-0.906,-0.122,99350
-0.410,-0.139,-0.907,-0.122,99356
-0.410,-0.139,-0.907,-0.183,99361
-0.410,-0.140,-0.907,-0.305,99366
-0.410,-0.140,-0.907,-0.305,99371
-0.410,-0.141,-0.908,-0.183,99376
-0.410,-0.141,-0.908,-0.244,99382
-0.408,-0.141,-0.909,-0.305,99387
-0.408,-0.141,-0.909,-0.305,99392
-0.410,-0.142,-0.909,-0.183,99397
-0.410,-0.142,-0.909,-0.305,99402
-0.411,-0.144,-0.908,-0.183,99408
-0.411,-0.144,-0.908,-0.122,99413
-0.410,-0.145,-0.909,-0.305,99418
-0.410,-0.145,-0.909,-0.183,99423
-0.408,-0.144,-0.908,-0.122,99428
-0.408,-0.144,-0.908,-0.244,99434
-0.409,-0.143,-0.908,-0.183,99439
-0.409,-0.143,-0.908,-0.183,99444
-0.409,-0.141,-0.906,0.000,99449
-0.409,-0.141,-0.906,-0.244,99454
-0.409,-0.141,-0.906,-0.183,99460
-0.411,-0.140,-0.907,-0.183,99465
-0.411,-0.140,-0.907,-0.122,99470
-0.412,-0.142,-0.908,-0.122,99475
-0.412,-0.142,-0.908,-0.244,99480
-0.411,-0.142,-0.908,-0.122,99486
-0.411,-0.142,-0.908,-0.183,99491
-0.412,-0.142,-0.908,-0.305,99496
-0.412,-0.142,-0.908,-0.244,99501
-0.415,-0.142,-0.907,-0.305,99506
-0.415,-0.142,-0.907,-0.305,99512
-0.411,-0.139,-0.903,-0.244,99517
-0.411,-0.139,-0.903,-0.183,99522
-0.410,-0.140,-0.902,-0.122,99527
-0.410,-0.140,-0.902,-0.183,99533
-0.411,-0.140,-0.903,-0.183,99538
-0.411,-0.140,-0.903,-0.061,99543
-0.411,-0.139,-0.905,0.061,99548
-0.411,-0.139,-0.905,-0.061,99553
-0.412,-0.139,-0.906,-0.244,99559
-0.410,-0.138,-0.908,-0.122,99564
-0.410,-0.138,-0.908,-0.061,99569
-0.410,-0.138,-0.907,-0.122,99574
-0.410,-0.138,-0.907,-0.244,99579
-0.412,-0.140,-0.908,-0.244,99585
-0.412,-0.140,-0.908,-0.244,99590
-0.409,-0.139,-0.908,-0.366,99595
-0.409,-0.139,-0.908,-0.244,99600
-0.411,-0.138,-0.906,-0.305,99605
-0.411,-0.138,-0.906,-0.305,99611
-0.412,-0.139,-0.906,-0.366,99616
-0.412,-0.139,-0.906,-0.244,99621
-0.411,-0.140,-0.905,-0.366,99626
-0.411,-0.140,-0.905,-0.366,99631
-0.410,-0.140,-0.905,-0.183,99637
-0.410,-0.140,-0.905,-0.061,99642
-0.411,-0.141,-0.906,-0.183,99647
-0.411,-0.141,-0.906,-0.061,99652
-0.408,-0.140,-0.907,0.000,99657
-0.408,-0.140,-0.907,0.000,99663
-0.406,-0.142,-0.908,0.000,99668
-0.406,-0.141,-0.912,0.183,99673
-0.406,-0.141,-0.912,0.061,99678
-0.405,-0.140,-0.911,0.122,99683
-0.405,-0.140,-0.911,0.183,99688
-0.405,-0.140,-0.913,0.183,99693
-0.405,-0.140,-0.913,-0.061,99699
-0.404,-0.140,-0.916,-0.122,99704
-0.404,-0.140,-0.916,-0.061,99709
-0.405,-0.140,-0.911,-0.183,99714
-0.405,-0.140,-0.911,-0.305,99719
-0.406,-0.141,-0.908,-0.427,99725
-0.406,-0.141,-0.908,-0.427,99730
-0.406,-0.141,-0.909,-0.366,99735
-0.406,-0.141,-0.909,-0.427,99740
-0.409,-0.141,-0.905,-0.427,99745
-0.409,-0.141,-0.905,-0.427,99751
-0.409,-0.141,-0.904,-0.427,99756
-0.409,-0.141,-0.904,-0.488,99761
-0.412,-0.141,-0.904,-0.427,99766
-0.412,-0.141,-0.904,-0.305,99772
-0.411,-0.141,-0.903,-0.122,99777
-0.413,-0.141,-0.906,0.000,99782
-0.413,-0.141,-0.906,-0.122,99787
-0.413,-0.141,-0.906,-0.122,99792
-0.413,-0.141,-0.906,-0.061,99797
-0.414,-0.140,-0.904,-0.183,99803
-0.414,-0.140,-0.904,-0.183,99808
-0.412,-0.138,-0.906,-0.183,99813
-0.412,-0.138,-0.906,-0.244,99818
-0.413,-0.138,-0.904,-0.244,99823
-0.413,-0.138,-0.904,-0.305,99829
-0.414,-0.138,-0.904,-0.305,99834
-0.414,-0.138,-0.904,-0.366,99839
-0.415,-0.141,-0.904,-0.366,99844
-0.415,-0.141,-0.904,-0.427,99850
-0.414,-0.139,-0.903,-0.427,99855
-0.414,-0.139,-0.903,-0.244,99860
-0.413,-0.139,-0.902,-0.305,99865
-0.413,-0.139,-0.902,-0.183,99870
-0.415,-0.138,-0.904,-0.122,99876
-0.415,-0.138,-0.904,-0.061,99881
-0.412,-0.138,-0.903,-0.061,99886
-0.412,-0.138,-0.905,-0.122,99891
-0.412,-0.138,-0.905,-0.183,99896
-0.410,-0.137,-0.907,0.000,99902
-0.410,-0.137,-0.907,-0.061,99907
-0.409,-0.137,-0.907,-0.061,99912
-0.409,-0.137,-0.907,-0.183,99917
-0.408,-0.139,-0.909,-0.305,99922
-0.408,-0.139,-0.909,-0.305,99928
-0.408,-0.139,-0.911,-0.244,99933
-0.408,-0.139,-0.911,-0.183,99938
-0.405,-0.139,-0.911,-0.183,99943
-0.405,-0.139,-0.911,-0.183,99948
-0.406,-0.140,-0.910,-0.305,99954
-0.406,-0.140,-0.910,-0.305,99959
-0.404,-0.142,-0.912,-0.305,99964
-0.404,-0.142,-0.912,-0.183,99969
-0.405,-0.141,-0.910,-0.244,99974
-0.405,-0.141,-0.910,-0.183,99980
-0.404,-0.141,-0.910,-0.244,99985
-0.404,-0.141,-0.910,-0.366,99990
-0.404,-0.142,-0.910,-0.183,99995
-0.403,-0.139,-0.910,-0.122,100000
-0.403,-0.139,-0.910,-0.122,100006
-0.403,-0.142,-0.911,-0.183,100011
-0.403,-0.142,-0.911,-0.244,100016
-0.404,-0.140,-0.912,-0.244,100022
-0.404,-0.140,-0.912,-0.122,100027
-0.404,-0.141,-0.912,-0.183,100032
-0.404,-0.141,-0.912,-0.244,100037
-0.404,-0.141,-0.912,-0.305,100043
-0.404,-0.141,-0.912,-0.244,100048
-0.406,-0.140,-0.911,-0.305,100053
-0.406,-0.140,-0.911,-0.427,100058
-0.405,-0.140,-0.909,-0.305,100063
-0.405,-0.140,-0.909,-0.427,100069
-0.407,-0.140,-0.908,-0.610,100074
-0.407,-0.140,-0.908,-0.305,100079
-0.407,-0.141,-0.911,-0.488,100084
-0.406,-0.138,-0.908,-0.793,100090
-0.406,-0.138,-0.908,-0.305,100095
-0.411,-0.141,-0.905,-0.061,100100
-0.411,-0.141,-0.905,-0.488,100105
-0.410,-0.140,-0.901,-0.488,100111
-0.410,-0.140,-0.901,0.061,100116
-0.408,-0.139,-0.901,0.183,100121
-0.408,-0.139,-0.901,-0.244,100126
-0.412,-0.138,-0.909,-0.061,100132
-0.412,-0.138,-0.909,0.122,100137
-0.406,-0.137,-0.905,-0.244,100142
-0.406,-0.137,-0.905,-0.122,100147
-0.411,-0.136,-0.907,-0.183,100153
-0.411,-0.136,-0.907,-0.305,100158
-0.413,-0.138,-0.908,-0.244,100163
-0.413,-0.138,-0.908,-0.122,100168
-0.412,-0.137,-0.906,-0.244,100174
-0.406,-0.136,-0.905,-0.183,100179
-0.406,-0.136,-0.905,-0.366,100184
-0.408,-0.139,-0.906,-0.488,100189
-0.408,-0.139,-0.906,-0.122,100195
-0.410,-0.138,-0.908,-0.366,100200
-0.410,-0.138,-0.908,-0.427,100205
-0.408,-0.140,-0.906,-0.061,100210
-0.408,-0.140,-0.906,-0.122,100216
-0.407,-0.140,-0.903,-0.244,100221
-0.407,-0.140,-0.903,-0.366,100226
-0.406,-0.143,-0.906,0.122,100231
-0.406,-0.143,-0.906,0.305,100237
-0.406,-0.142,-0.910,-0.061,100242
-0.406,-0.142,-0.910,-0.061,100247
-0.402,-0.143,-0.910,0.183,100252
-0.402,-0.143,-0.910,0.000,100258
-0.405,-0.142,-0.915,-0.122,100263
-0.402,-0.140,-0.912,-0.183,100268
-0.402,-0.140,-0.912,-0.427,100273
-0.399,-0.142,-0.909,-0.122,100279
-0.399,-0.142,-0.909,0.183,100284