Acc_X,Acc_Y,Acc_Z,Rot_Z,Millis
0.005,0.346,0.939,-0.305,2321114
0.005,0.346,0.939,-0.183,2321118
0.005,0.345,0.934,-0.305,2321122
0.005,0.345,0.934,-0.305,2321126
0.005,0.345,0.934,-0.305,2321130
0.007,0.344,0.931,-0.305,2321134
0.007,0.344,0.931,-0.183,2321138
0.004,0.347,0.931,-0.183,2321142
0.004,0.347,0.931,-0.183,2321146
0.004,0.347,0.931,-0.244,2321150
0.001,0.347,0.93,-0.244,2321154
0.001,0.347,0.93,-0.183,2321158
-0.002,0.346,0.929,-0.244,2321162
-0.002,0.346,0.929,-0.244,2321166
-0.002,0.346,0.929,-0.122,2321170
-0.003,0.344,0.927,-0.244,2321174
-0.003,0.344,0.927,-0.244,2321178
-0.003,0.347,0.928,-0.183,2321182
-0.003,0.347,0.928,-0.183,2321186
-0.003,0.347,0.928,-0.122,2321190
-0.003,0.348,0.929,-0.061,2321194
-0.003,0.348,0.929,-0.244,2321198
-0.005,0.35,0.93,-0.305,2321202
-0.005,0.35,0.93,-0.305,2321206
-0.005,0.35,0.93,-0.183,2321210
-0.003,0.35,0.929,-0.122,2321214
-0.003,0.35,0.929,-0.244,2321218
-0.002,0.351,0.932,-0.183,2321221
-0.002,0.351,0.932,-0.183,2321225
-0.002,0.351,0.932,-0.183,2321229
-0.0,0.35,0.925,-0.183,2321233
-0.0,0.35,0.925,-0.122,2321237
0.001,0.35,0.932,-0.061,2321241
0.001,0.35,0.932,-0.061,2321245
0.001,0.35,0.932,-0.183,2321249
0.003,0.347,0.932,-0.183,2321253
0.003,0.347,0.932,-0.305,2321257
0.003,0.346,0.934,-0.061,2321261
0.003,0.346,0.934,-0.061,2321265
0.003,0.346,0.934,-0.122,2321269
0.007,0.342,0.934,-0.122,2321273
0.007,0.342,0.934,-0.183,2321277
0.006,0.343,0.933,-0.122,2321281
0.006,0.343,0.933,-0.122,2321285
0.006,0.343,0.933,-0.122,2321289
0.005,0.344,0.934,-0.122,2321293
0.005,0.344,0.934,-0.122,2321297
0.005,0.345,0.935,-0.183,2321301
0.005,0.345,0.935,-0.183,2321305
0.005,0.345,0.935,-0.122,2321309
0.009,0.344,0.934,-0.244,2321313
0.009,0.344,0.934,-0.183,2321317
0.01,0.345,0.935,-0.183,2321321
0.01,0.345,0.935,-0.183,2321325
0.01,0.345,0.935,-0.122,2321329
0.008,0.346,0.937,-0.305,2321333
0.008,0.346,0.937,-0.183,2321337
0.009,0.346,0.936,-0.183,2321341
0.009,0.346,0.936,-0.183,2321345
0.009,0.346,0.936,-0.244,2321349
0.011,0.346,0.935,-0.244,2321353
0.011,0.346,0.935,-0.244,2321357
0.008,0.345,0.936,-0.366,2321361
0.008,0.345,0.936,-0.366,2321365
0.008,0.345,0.936,-0.183,2321369
0.006,0.347,0.934,-0.061,2321373
0.006,0.347,0.934,-0.183,2321377
0.007,0.348,0.934,-0.183,2321381
0.007,0.348,0.934,-0.183,2321385
0.007,0.348,0.934,-0.183,2321389
0.006,0.348,0.933,-0.244,2321393
0.006,0.348,0.933,-0.366,2321397
0.002,0.348,0.93,-0.183,2321401
0.002,0.348,0.93,-0.183,2321405
0.002,0.348,0.93,-0.244,2321409
0.0,0.352,0.934,-0.305,2321413
0.0,0.352,0.934,-0.305,2321416
0.001,0.35,0.927,-0.244,2321420
0.001,0.35,0.927,-0.244,2321424
0.001,0.35,0.927,-0.183,2321428
0.0,0.348,0.923,-0.244,2321432
0.0,0.348,0.923,-0.183,2321436
-0.003,0.35,0.931,-0.183,2321440
-0.003,0.35,0.931,-0.183,2321444
-0.003,0.35,0.931,-0.122,2321448
-0.005,0.349,0.933,-0.183,2321452
-0.005,0.349,0.933,-0.244,2321456
-0.001,0.346,0.93,-0.244,2321460
-0.001,0.346,0.93,-0.244,2321464
-0.001,0.346,0.93,-0.061,2321468
-0.0,0.344,0.927,-0.244,2321472
-0.0,0.344,0.927,-0.061,2321476
0.0,0.347,0.931,-0.061,2321480
0.0,0.347,0.931,-0.061,2321484
0.0,0.347,0.931,-0.244,2321488
-0.003,0.346,0.934,-0.183,2321492
-0.003,0.346,0.934,0.0,2321496
-0.002,0.347,0.931,-0.061,2321500
-0.002,0.347,0.931,-0.061,2321504
-0.002,0.347,0.931,-0.183,2321508
-0.001,0.344,0.929,0.0,2321512
-0.001,0.344,0.929,-0.122,2321516
0.001,0.344,0.932,-0.122,2321520
0.001,0.344,0.932,-0.122,2321524
0.001,0.344,0.932,-0.061,2321528
0.0,0.346,0.937,-0.244,2321531
0.0,0.346,0.937,-0.061,2321535
0.003,0.346,0.932,-0.244,2321539
0.003,0.346,0.932,-0.244,2321543
0.003,0.346,0.932,-0.366,2321547
0.005,0.346,0.93,-0.244,2321551
0.005,0.346,0.93,-0.122,2321555
0.006,0.348,0.937,-0.183,2321559
0.006,0.348,0.937,-0.183,2321563
0.006,0.348,0.937,-0.183,2321567
0.009,0.349,0.937,-0.122,2321571
0.009,0.349,0.937,-0.183,2321575
0.009,0.346,0.932,-0.183,2321579
0.009,0.346,0.932,-0.183,2321583
0.009,0.346,0.932,-0.244,2321587
0.009,0.345,0.932,-0.183,2321591
0.009,0.345,0.932,-0.244,2321595
0.009,0.348,0.935,-0.244,2321599
0.009,0.348,0.935,-0.183,2321603
0.009,0.348,0.935,-0.183,2321607
0.009,0.349,0.933,-0.183,2321611
0.009,0.349,0.933,-0.244,2321615
0.006,0.347,0.933,-0.305,2321619
0.006,0.347,0.933,-0.183,2321623
0.006,0.347,0.933,-0.183,2321627
0.006,0.346,0.933,-0.183,2321631
0.006,0.346,0.933,-0.183,2321635
0.006,0.346,0.934,-0.183,2321639
0.006,0.346,0.934,-0.305,2321643
0.006,0.346,0.934,-0.305,2321647
0.005,0.345,0.933,-0.366,2321651
0.005,0.345,0.933,-0.183,2321655
0.003,0.346,0.931,-0.183,2321659
0.003,0.346,0.931,-0.183,2321663
0.003,0.346,0.931,-0.183,2321667
0.0,0.345,0.933,-0.183,2321671
0.0,0.345,0.933,-0.244,2321675
0.001,0.346,0.933,-0.305,2321679
0.001,0.346,0.933,-0.183,2321683
0.001,0.346,0.933,-0.183,2321687
-0.0,0.346,0.932,-0.122,2321691
-0.0,0.346,0.932,-0.183,2321695
-0.003,0.347,0.931,-0.122,2321699
-0.003,0.347,0.931,-0.183,2321703
-0.003,0.347,0.931,-0.183,2321707
-0.001,0.347,0.928,-0.183,2321711
-0.001,0.347,0.928,-0.305,2321714
-0.002,0.344,0.919,-0.305,2321718
-0.002,0.344,0.919,-0.061,2321722
-0.002,0.344,0.919,-0.061,2321726
-0.004,0.355,0.945,-0.244,2321730
-0.004,0.355,0.945,-0.305,2321734
-0.002,0.346,0.93,-0.244,2321738
-0.002,0.346,0.93,-0.244,2321742
-0.002,0.346,0.93,-0.244,2321746
0.002,0.344,0.922,-0.122,2321750
0.002,0.344,0.922,-0.061,2321754
0.002,0.349,0.935,-0.061,2321758
0.002,0.349,0.935,-0.183,2321762
0.002,0.349,0.935,-0.183,2321766
0.001,0.351,0.933,-0.122,2321770
0.001,0.351,0.933,-0.244,2321774
0.002,0.35,0.932,-0.427,2321778
0.002,0.35,0.932,-0.122,2321782
0.002,0.35,0.932,-0.122,2321786
0.005,0.342,0.921,-0.183,2321790
0.005,0.342,0.921,-0.183,2321794
0.004,0.348,0.936,-0.122,2321798
0.004,0.348,0.936,-0.305,2321802
0.004,0.348,0.936,-0.305,2321806
0.004,0.346,0.935,-0.183,2321810
0.004,0.346,0.935,-0.061,2321814
0.002,0.346,0.937,-0.305,2321818
0.002,0.346,0.937,-0.183,2321822
0.002,0.346,0.937,-0.183,2321826
0.008,0.343,0.933,-0.122,2321830
0.008,0.343,0.933,-0.305,2321834
0.006,0.344,0.933,-0.183,2321838
0.006,0.344,0.933,-0.183,2321842
0.006,0.344,0.933,-0.183,2321846
0.007,0.349,0.937,-0.122,2321850
0.007,0.349,0.937,-0.183,2321854
0.006,0.346,0.936,-0.122,2321858
0.006,0.346,0.936,-0.122,2321862
0.006,0.346,0.936,-0.122,2321866
0.007,0.343,0.926,-0.122,2321870
0.007,0.343,0.926,-0.183,2321874
0.005,0.346,0.936,-0.244,2321878
0.005,0.346,0.936,-0.244,2321882
0.005,0.346,0.936,-0.244,2321886
0.004,0.346,0.936,-0.244,2321890
0.004,0.346,0.936,-0.244,2321894
0.004,0.346,0.936,-0.183,2321898
0.004,0.346,0.936,-0.244,2321902
0.004,0.346,0.936,-0.244,2321905
0.006,0.344,0.931,-0.183,2321909
0.006,0.344,0.931,-0.122,2321913
0.006,0.345,0.933,-0.122,2321917
0.006,0.345,0.933,-0.183,2321921
0.006,0.345,0.933,-0.183,2321925
0.002,0.347,0.935,-0.122,2321929
0.002,0.347,0.935,-0.183,2321933
0.002,0.348,0.933,-0.244,2321937
0.002,0.348,0.933,-0.305,2321941
0.002,0.348,0.933,-0.305,2321945
0.001,0.347,0.93,-0.244,2321949
0.001,0.347,0.93,-0.122,2321953
0.002,0.347,0.93,-0.183,2321957
0.002,0.347,0.93,-0.244,2321961
0.002,0.347,0.93,-0.244,2321965
0.001,0.348,0.932,-0.244,2321969
0.001,0.348,0.932,-0.305,2321973
0.0,0.349,0.931,-0.122,2321977
0.0,0.349,0.931,-0.183,2321981
0.0,0.349,0.931,-0.183,2321985
-0.001,0.347,0.927,-0.122,2321989
-0.001,0.347,0.927,-0.183,2321993
-0.0,0.348,0.929,-0.122,2321997
-0.0,0.348,0.929,-0.122,2322001
-0.0,0.348,0.929,-0.122,2322005
-0.001,0.351,0.932,-0.122,2322009
-0.001,0.351,0.932,-0.183,2322013
-0.0,0.346,0.933,-0.183,2322017
-0.0,0.346,0.933,-0.183,2322021
-0.0,0.346,0.933,-0.183,2322025
0.002,0.345,0.929,-0.183,2322029
0.002,0.345,0.929,-0.244,2322033
0.003,0.346,0.928,-0.244,2322037
0.003,0.346,0.928,-0.183,2322041
0.003,0.349,0.933,-0.244,2322045
0.003,0.349,0.933,-0.244,2322049
0.003,0.349,0.933,-0.305,2322053
0.003,0.348,0.937,-0.244,2322057
0.003,0.348,0.937,-0.244,2322061
0.006,0.343,0.93,-0.183,2322065
0.006,0.343,0.93,-0.183,2322069
0.006,0.343,0.93,-0.061,2322072
0.004,0.342,0.931,-0.183,2322076
0.004,0.342,0.931,-0.183,2322080
0.006,0.345,0.938,-0.122,2322084
0.006,0.345,0.938,-0.122,2322088
0.006,0.345,0.938,-0.244,2322092
0.005,0.346,0.935,-0.122,2322096
0.005,0.346,0.935,-0.122,2322100
0.005,0.345,0.929,-0.061,2322104
0.005,0.345,0.929,-0.061,2322108
0.005,0.345,0.929,-0.183,2322112
0.007,0.346,0.93,-0.183,2322116
0.007,0.346,0.93,-0.305,2322120
0.005,0.347,0.935,-0.366,2322124
0.005,0.347,0.935,-0.366,2322128
0.005,0.347,0.935,-0.183,2322132
0.004,0.347,0.935,-0.183,2322136
0.004,0.347,0.935,-0.061,2322140
0.004,0.347,0.93,-0.122,2322144
0.004,0.347,0.93,-0.122,2322148
0.004,0.347,0.93,-0.183,2322152
0.004,0.346,0.929,-0.183,2322156
0.004,0.346,0.929,-0.305,2322160
0.002,0.348,0.933,-0.244,2322164
0.002,0.348,0.933,-0.244,2322168
0.002,0.348,0.933,-0.305,2322172
0.002,0.348,0.933,-0.244,2322176
0.002,0.348,0.933,-0.244,2322180
0.001,0.35,0.93,-0.244,2322184
0.001,0.35,0.93,-0.244,2322188
0.001,0.35,0.93,-0.183,2322192
-0.001,0.347,0.93,-0.305,2322196
-0.001,0.347,0.93,-0.366,2322200
0.001,0.348,0.93,-0.305,2322204
0.001,0.348,0.93,-0.305,2322208
0.001,0.348,0.93,-0.244,2322212
0.0,0.348,0.932,-0.122,2322216
0.0,0.348,0.932,-0.244,2322220
0.0,0.347,0.93,-0.183,2322224
0.0,0.347,0.93,-0.183,2322228
0.0,0.347,0.93,-0.183,2322232
0.002,0.346,0.931,-0.244,2322236
0.002,0.346,0.931,-0.183,2322240
0.001,0.345,0.932,-0.061,2322244
0.001,0.345,0.932,-0.061,2322248
0.001,0.345,0.932,-0.183,2322252
0.003,0.347,0.932,-0.244,2322256
0.003,0.347,0.932,-0.305,2322260
0.003,0.347,0.932,-0.305,2322263
0.003,0.347,0.932,-0.305,2322267
0.003,0.347,0.932,-0.122,2322271
0.003,0.347,0.93,-0.061,2322275
0.003,0.347,0.93,-0.183,2322279
0.002,0.346,0.931,-0.122,2322283
0.002,0.346,0.931,-0.122,2322287
0.002,0.346,0.931,-0.183,2322291
0.003,0.347,0.934,-0.244,2322295
0.003,0.347,0.934,-0.244,2322299
0.001,0.348,0.937,-0.183,2322303
0.001,0.348,0.937,-0.183,2322307
0.001,0.348,0.937,-0.183,2322311
0.004,0.345,0.932,-0.183,2322315
0.004,0.345,0.932,-0.122,2322319
0.005,0.344,0.934,-0.183,2322323
0.005,0.344,0.934,-0.183,2322327
0.005,0.344,0.934,-0.183,2322331
0.005,0.343,0.932,-0.244,2322335
0.005,0.343,0.932,-0.183,2322339
0.004,0.345,0.937,-0.122,2322343
0.004,0.345,0.937,-0.122,2322347
0.004,0.345,0.937,-0.244,2322351
0.005,0.344,0.93,-0.244,2322355
0.005,0.344,0.93,-0.061,2322359
0.004,0.347,0.933,-0.183,2322363
0.004,0.347,0.933,-0.183,2322367
0.004,0.347,0.933,-0.305,2322371
0.006,0.349,0.933,-0.183,2322375
0.006,0.349,0.933,-0.122,2322379
0.005,0.348,0.933,-0.305,2322383
0.005,0.348,0.933,-0.305,2322387
0.005,0.348,0.933,-0.244,2322391
0.004,0.347,0.931,-0.244,2322395
0.004,0.347,0.931,-0.183,2322399
0.004,0.348,0.93,-0.305,2322403
0.004,0.348,0.93,-0.305,2322407
0.004,0.348,0.93,-0.244,2322411
0.004,0.346,0.933,-0.183,2322415
0.004,0.346,0.933,-0.244,2322419
0.002,0.348,0.933,-0.183,2322423
0.002,0.348,0.933,-0.183,2322427
0.002,0.348,0.933,-0.183,2322431
0.001,0.347,0.929,-0.122,2322435
0.001,0.347,0.929,-0.183,2322439
0.002,0.348,0.932,-0.244,2322443
0.002,0.348,0.932,-0.244,2322447
0.002,0.348,0.932,-0.244,2322451
0.001,0.345,0.931,-0.244,2322454
0.001,0.345,0.931,-0.244,2322458
0.001,0.346,0.932,-0.244,2322462
0.001,0.346,0.932,-0.366,2322466
0.001,0.346,0.932,-0.366,2322470
0.0,0.347,0.931,-0.366,2322474
0.0,0.347,0.931,-0.305,2322478
0.001,0.346,0.934,-0.183,2322482
0.001,0.346,0.934,-0.244,2322486
0.001,0.346,0.934,-0.244,2322490
0.001,0.345,0.932,-0.305,2322494
0.001,0.345,0.932,-0.244,2322498
0.0,0.346,0.932,-0.244,2322502
0.0,0.346,0.932,-0.122,2322506
0.0,0.346,0.932,-0.122,2322510
0.0,0.347,0.933,-0.183,2322514
0.0,0.347,0.933,-0.122,2322518
0.001,0.347,0.932,-0.122,2322522
0.001,0.347,0.932,-0.183,2322526
0.001,0.347,0.932,-0.183,2322530
0.004,0.346,0.934,-0.122,2322534
0.004,0.346,0.934,-0.366,2322538
0.005,0.346,0.933,-0.244,2322542
0.005,0.346,0.933,-0.122,2322546
0.005,0.346,0.933,-0.122,2322550
0.003,0.346,0.931,0.061,2322554
0.003,0.346,0.931,0.0,2322558
0.003,0.347,0.933,-0.122,2322562
0.003,0.347,0.933,-0.183,2322566
0.003,0.347,0.933,-0.183,2322570
0.003,0.347,0.932,-0.244,2322574
0.003,0.347,0.932,-0.183,2322578
0.002,0.348,0.934,-0.183,2322582
0.002,0.348,0.934,-0.183,2322586
0.002,0.348,0.934,-0.183,2322590
0.003,0.348,0.934,-0.244,2322594
0.003,0.348,0.934,-0.244,2322598
0.004,0.347,0.931,-0.183,2322602
0.004,0.347,0.931,-0.122,2322606
0.004,0.347,0.931,-0.122,2322609
0.002,0.347,0.932,-0.244,2322613
0.002,0.347,0.932,-0.183,2322617
0.003,0.346,0.934,-0.122,2322621
0.003,0.346,0.934,-0.183,2322625
0.003,0.346,0.934,-0.183,2322629
0.004,0.347,0.933,-0.183,2322633
0.004,0.347,0.933,-0.183,2322637
0.005,0.346,0.934,-0.183,2322641
0.005,0.346,0.934,-0.305,2322645
0.005,0.346,0.934,-0.305,2322649
0.005,0.347,0.934,-0.244,2322653
0.005,0.347,0.934,-0.244,2322657
0.003,0.346,0.932,-0.244,2322661
0.003,0.346,0.932,-0.244,2322665
0.003,0.346,0.932,-0.244,2322669
0.003,0.346,0.933,-0.244,2322673
0.003,0.346,0.933,-0.244,2322677
0.002,0.347,0.932,-0.183,2322681
0.002,0.347,0.932,-0.244,2322685
0.002,0.347,0.932,-0.244,2322689
0.002,0.346,0.932,-0.183,2322693
0.002,0.346,0.932,-0.061,2322697
0.001,0.346,0.931,-0.122,2322701
0.001,0.346,0.931,-0.183,2322705
0.001,0.346,0.931,-0.183,2322709
0.002,0.346,0.931,-0.244,2322713
0.002,0.346,0.931,-0.183,2322717
0.001,0.346,0.931,-0.305,2322721
0.001,0.346,0.931,-0.244,2322725
0.001,0.346,0.931,-0.244,2322729
0.003,0.344,0.924,-0.122,2322733
0.003,0.344,0.924,-0.122,2322737
-0.001,0.351,0.939,-0.061,2322741
-0.001,0.351,0.939,-0.305,2322745
-0.001,0.351,0.939,-0.305,2322749
-0.001,0.352,0.946,-0.244,2322753
-0.001,0.352,0.946,-0.183,2322757
0.004,0.341,0.919,-0.122,2322761
0.004,0.341,0.919,-0.183,2322765
0.004,0.341,0.919,-0.183,2322769
0.007,0.349,0.936,-0.183,2322773
0.007,0.349,0.936,-0.061,2322777
0.003,0.35,0.925,-0.183,2322781
0.003,0.35,0.925,-0.183,2322785
0.003,0.35,0.925,-0.183,2322789
0.001,0.358,0.938,-0.244,2322793
0.001,0.358,0.938,-0.183,2322797
0.003,0.343,0.918,-0.305,2322801
0.003,0.343,0.918,-0.122,2322804
0.003,0.343,0.918,-0.122,2322808
0.002,0.347,0.928,-0.061,2322812
0.002,0.347,0.928,-0.305,2322816
0.004,0.348,0.94,-0.061,2322820
0.004,0.348,0.94,-0.183,2322824
0.004,0.348,0.94,-0.183,2322828
0.002,0.348,0.936,-0.122,2322832
0.002,0.348,0.936,-0.183,2322836
0.002,0.344,0.938,-0.244,2322840
0.002,0.344,0.938,-0.244,2322844
0.003,0.338,0.926,-0.122,2322848
0.003,0.338,0.926,-0.122,2322852
0.003,0.338,0.926,-0.122,2322856
0.002,0.342,0.939,-0.244,2322860
0.002,0.342,0.939,-0.183,2322864
0.002,0.344,0.94,0.0,2322868
0.002,0.344,0.94,0.0,2322872
0.002,0.344,0.94,-0.122,2322876
0.002,0.343,0.932,-0.244,2322880
0.002,0.343,0.932,-0.305,2322884
0.006,0.339,0.93,-0.122,2322888
0.006,0.339,0.93,-0.122,2322892
0.006,0.339,0.93,-0.122,2322896
0.004,0.344,0.931,-0.244,2322900
0.004,0.344,0.931,-0.366,2322904
0.005,0.348,0.939,-0.305,2322908
0.005,0.348,0.939,-0.305,2322912
0.005,0.348,0.939,-0.244,2322916
0.003,0.346,0.932,-0.244,2322920
0.003,0.346,0.932,-0.122,2322924
0.004,0.347,0.926,-0.122,2322928
0.004,0.347,0.926,-0.122,2322932
0.004,0.347,0.926,-0.183,2322936
0.004,0.349,0.932,-0.183,2322940
0.004,0.349,0.932,-0.183,2322944
0.002,0.352,0.936,-0.122,2322948
0.002,0.352,0.936,-0.122,2322952
0.002,0.352,0.936,-0.305,2322956
0.002,0.349,0.931,-0.244,2322960
0.002,0.349,0.931,-0.183,2322964
0.001,0.349,0.927,-0.305,2322968
0.001,0.349,0.927,-0.305,2322972
0.001,0.349,0.927,-0.244,2322976
0.001,0.35,0.931,-0.061,2322980
0.001,0.35,0.931,-0.244,2322984
0.003,0.351,0.934,-0.183,2322987
0.003,0.351,0.934,-0.183,2322991
0.003,0.351,0.934,-0.061,2322995
0.003,0.349,0.929,-0.183,2322999
0.003,0.349,0.929,-0.183,2323003
0.001,0.347,0.927,-0.122,2323007
0.001,0.347,0.927,-0.122,2323011
0.001,0.347,0.927,-0.183,2323015
0.0,0.347,0.93,-0.244,2323019
0.0,0.347,0.93,-0.305,2323023
0.001,0.347,0.935,-0.244,2323027
0.001,0.347,0.935,-0.244,2323031
0.001,0.347,0.935,-0.122,2323035
0.0,0.347,0.93,-0.244,2323039
0.0,0.347,0.93,-0.305,2323043
0.001,0.345,0.93,-0.244,2323047
0.001,0.345,0.93,-0.244,2323051
0.001,0.345,0.93,-0.183,2323055
0.002,0.344,0.933,-0.061,2323059
0.002,0.344,0.933,-0.183,2323063
0.002,0.345,0.935,-0.244,2323067
0.002,0.345,0.935,-0.244,2323071
0.002,0.345,0.935,-0.244,2323075
0.002,0.343,0.934,-0.122,2323079
0.002,0.343,0.934,-0.244,2323083
0.003,0.34,0.932,-0.183,2323087
0.003,0.34,0.932,-0.183,2323091
0.003,0.34,0.932,-0.183,2323095
0.004,0.344,0.935,-0.061,2323099
0.004,0.344,0.935,-0.244,2323103
0.003,0.344,0.937,-0.183,2323107
0.003,0.344,0.937,-0.183,2323111
0.003,0.344,0.937,-0.122,2323115
0.004,0.346,0.931,-0.183,2323119
0.004,0.346,0.931,-0.122,2323123
0.003,0.347,0.929,-0.122,2323127
0.003,0.347,0.929,-0.122,2323131
0.003,0.347,0.929,-0.183,2323135
0.004,0.351,0.931,-0.122,2323139
0.004,0.351,0.931,-0.183,2323143
0.005,0.351,0.934,-0.183,2323147
0.005,0.351,0.934,-0.183,2323151
0.005,0.351,0.934,-0.244,2323154
0.006,0.351,0.932,-0.061,2323158
0.006,0.351,0.932,-0.122,2323162
0.006,0.353,0.93,-0.305,2323166
0.006,0.353,0.93,-0.305,2323170
0.006,0.353,0.93,-0.183,2323174
0.004,0.351,0.932,-0.305,2323178
0.004,0.351,0.932,-0.244,2323182
0.004,0.351,0.932,-0.183,2323186
0.004,0.351,0.932,-0.183,2323190
0.004,0.351,0.932,-0.244,2323194
0.004,0.349,0.931,-0.183,2323198
0.004,0.349,0.931,-0.244,2323202
0.003,0.345,0.929,-0.305,2323206
0.003,0.345,0.929,-0.305,2323210
0.003,0.345,0.929,-0.244,2323214
0.001,0.345,0.932,-0.183,2323218
0.001,0.345,0.932,-0.183,2323222
0.001,0.345,0.933,-0.183,2323226
0.001,0.345,0.933,-0.183,2323230
0.001,0.345,0.933,-0.183,2323234
0.001,0.344,0.931,-0.244,2323238
0.001,0.344,0.931,0.0,2323242
-0.0,0.342,0.931,-0.122,2323246
-0.0,0.342,0.931,-0.122,2323250
-0.0,0.342,0.931,-0.183,2323254
0.0,0.343,0.935,-0.305,2323258
0.0,0.343,0.935,-0.305,2323262
0.0,0.344,0.934,-0.244,2323266
0.0,0.344,0.934,-0.244,2323270
0.0,0.344,0.934,-0.061,2323274
0.001,0.343,0.931,-0.122,2323278
0.001,0.343,0.931,-0.244,2323282
0.004,0.344,0.929,-0.244,2323285
0.004,0.344,0.929,-0.244,2323289
0.004,0.344,0.929,-0.122,2323293
0.002,0.347,0.931,-0.061,2323297
0.002,0.347,0.931,-0.183,2323301
0.003,0.347,0.932,-0.183,2323305
0.003,0.347,0.932,-0.183,2323309
0.003,0.347,0.932,-0.183,2323313
0.004,0.347,0.932,-0.244,2323317
0.004,0.347,0.932,-0.183,2323321
0.004,0.35,0.932,-0.061,2323325
0.004,0.35,0.932,-0.061,2323329
0.004,0.35,0.932,-0.122,2323333
0.006,0.35,0.931,-0.183,2323337
0.006,0.35,0.931,-0.244,2323341
0.004,0.35,0.932,-0.305,2323345
0.004,0.35,0.932,-0.305,2323349
0.004,0.35,0.932,-0.122,2323353
0.004,0.351,0.933,-0.122,2323357
0.004,0.351,0.933,-0.244,2323361
0.003,0.349,0.933,-0.244,2323365
0.003,0.349,0.933,-0.244,2323369
0.003,0.349,0.933,-0.183,2323373
0.004,0.35,0.932,-0.244,2323377
0.004,0.35,0.932,-0.305,2323381
0.003,0.348,0.933,-0.305,2323385
0.003,0.348,0.933,-0.244,2323389
0.003,0.348,0.933,-0.244,2323393
0.004,0.348,0.931,-0.061,2323397
0.004,0.348,0.931,-0.061,2323401
0.004,0.345,0.932,-0.061,2323405
0.004,0.345,0.932,-0.183,2323409
0.004,0.345,0.932,-0.183,2323413
0.005,0.346,0.935,-0.366,2323417
0.005,0.346,0.935,-0.244,2323421
0.006,0.345,0.933,-0.244,2323425
0.006,0.345,0.933,-0.183,2323429
0.006,0.345,0.933,-0.183,2323433
0.005,0.347,0.93,-0.183,2323437
0.005,0.347,0.93,-0.244,2323441
0.004,0.348,0.934,-0.305,2323445
0.004,0.348,0.934,-0.305,2323449
0.004,0.348,0.934,-0.305,2323453
0.002,0.349,0.942,-0.305,2323457
0.002,0.349,0.942,-0.366,2323461
0.005,0.339,0.921,-0.305,2323465
0.005,0.339,0.921,-0.244,2323469
0.005,0.339,0.921,-0.244,2323473
0.004,0.343,0.932,-0.244,2323476
0.004,0.343,0.932,-0.305,2323480
0.001,0.348,0.944,-0.183,2323484
0.001,0.348,0.944,-0.366,2323488
0.001,0.348,0.944,-0.366,2323492
-0.0,0.34,0.927,-0.183,2323496
-0.0,0.34,0.927,-0.122,2323500
0.003,0.339,0.931,-0.122,2323504
0.003,0.339,0.931,0.0,2323508
0.003,0.339,0.931,0.0,2323512
-0.001,0.341,0.933,-0.122,2323516
-0.001,0.341,0.933,-0.122,2323520
-0.003,0.347,0.936,-0.061,2323524
-0.003,0.347,0.936,-0.061,2323528
-0.003,0.347,0.936,-0.061,2323532
-0.002,0.346,0.929,0.0,2323536
-0.002,0.346,0.929,-0.122,2323540
-0.002,0.345,0.924,-0.122,2323544
-0.002,0.345,0.924,0.0,2323548
-0.002,0.345,0.924,0.0,2323552
-0.001,0.35,0.932,-0.061,2323556
-0.001,0.35,0.932,-0.122,2323560
-0.001,0.353,0.931,-0.061,2323564
-0.001,0.353,0.931,0.0,2323568
-0.001,0.353,0.931,0.0,2323571
0.001,0.351,0.928,-0.061,2323575
0.001,0.351,0.928,-0.183,2323579
0.003,0.352,0.928,-0.305,2323583
0.003,0.352,0.928,-0.122,2323587
0.003,0.352,0.928,-0.122,2323591
0.002,0.352,0.93,-0.122,2323595
0.002,0.352,0.93,-0.244,2323599
0.005,0.353,0.934,-0.122,2323603
0.005,0.353,0.934,-0.061,2323607
0.005,0.353,0.934,-0.061,2323611
0.004,0.351,0.93,-0.183,2323615
0.004,0.351,0.93,-0.305,2323619
0.006,0.347,0.926,-0.183,2323623
0.006,0.347,0.926,-0.305,2323627
0.006,0.347,0.926,-0.305,2323631
0.007,0.344,0.933,-0.244,2323635
0.007,0.344,0.933,-0.183,2323639
0.005,0.346,0.939,-0.183,2323643
0.005,0.346,0.939,-0.305,2323647
0.005,0.346,0.939,-0.305,2323651
0.006,0.342,0.936,-0.366,2323655
0.006,0.342,0.936,-0.244,2323659
0.005,0.339,0.932,-0.122,2323663
0.005,0.339,0.932,-0.061,2323667
0.005,0.339,0.932,-0.061,2323671
0.005,0.343,0.936,-0.061,2323675
0.005,0.343,0.936,-0.183,2323679
0.003,0.344,0.938,-0.244,2323683
0.003,0.344,0.938,-0.183,2323687
0.003,0.344,0.938,-0.183,2323691
0.005,0.344,0.936,-0.183,2323695
0.005,0.344,0.936,-0.122,2323699
0.005,0.343,0.931,-0.183,2323703
0.005,0.343,0.931,-0.183,2323707
0.005,0.343,0.931,-0.183,2323711
0.005,0.345,0.934,-0.244,2323715
0.005,0.345,0.934,-0.244,2323719
0.006,0.346,0.935,-0.305,2323723
0.006,0.346,0.935,-0.244,2323727
0.006,0.346,0.935,-0.244,2323731
0.005,0.343,0.933,-0.061,2323735
0.005,0.343,0.933,-0.244,2323739
0.003,0.344,0.93,-0.183,2323743
0.003,0.344,0.93,-0.061,2323747
0.003,0.344,0.93,-0.061,2323751
0.002,0.345,0.929,-0.183,2323755
0.002,0.345,0.929,-0.244,2323758
0.0,0.347,0.932,-0.305,2323762
0.0,0.347,0.932,-0.244,2323766
0.0,0.347,0.932,-0.244,2323770
-0.001,0.35,0.931,-0.061,2323774
-0.001,0.35,0.931,-0.244,2323778
-0.001,0.349,0.929,-0.305,2323782
-0.001,0.349,0.929,-0.183,2323786
-0.001,0.349,0.929,-0.183,2323790
-0.001,0.349,0.927,-0.122,2323794
-0.001,0.349,0.927,-0.122,2323798
-0.0,0.352,0.927,-0.061,2323802
-0.0,0.352,0.927,-0.061,2323806
-0.0,0.352,0.927,-0.061,2323810
0.0,0.357,0.927,-0.122,2323814
0.0,0.357,0.927,-0.183,2323818
0.001,0.355,0.926,-0.122,2323822
0.001,0.355,0.926,-0.305,2323826
0.001,0.355,0.926,-0.305,2323830
0.003,0.353,0.93,-0.427,2323834
0.003,0.353,0.93,-0.366,2323838
0.005,0.351,0.934,-0.305,2323842
0.005,0.351,0.934,-0.366,2323846
0.005,0.351,0.934,-0.366,2323850
0.007,0.346,0.934,-0.305,2323854
0.007,0.346,0.934,-0.183,2323858
0.006,0.342,0.936,-0.244,2323862
0.006,0.342,0.936,-0.183,2323866
0.006,0.342,0.936,-0.183,2323870
0.006,0.338,0.936,-0.183,2323874
0.006,0.338,0.936,-0.122,2323878
0.004,0.336,0.938,-0.122,2323882
0.004,0.336,0.938,-0.122,2323886
0.004,0.336,0.938,-0.122,2323889
0.003,0.336,0.938,-0.061,2323894
0.003,0.336,0.938,-0.061,2323898
0.0,0.337,0.934,0.061,2323901
0.0,0.337,0.934,0.0,2323905
0.0,0.337,0.934,0.0,2323909
0.0,0.339,0.933,0.061,2323913
0.0,0.339,0.933,-0.061,2323917
0.0,0.341,0.934,-0.183,2323921
0.0,0.341,0.934,-0.244,2323925
0.0,0.341,0.934,-0.244,2323929
0.001,0.345,0.933,-0.183,2323933
0.001,0.345,0.933,-0.244,2323937
0.002,0.346,0.931,-0.122,2323941
0.002,0.346,0.931,-0.122,2323945
0.002,0.346,0.931,-0.122,2323949
0.003,0.348,0.933,-0.244,2323953
0.003,0.348,0.933,-0.183,2323957
0.007,0.351,0.934,-0.183,2323961
0.007,0.351,0.934,-0.183,2323965
0.007,0.351,0.934,-0.183,2323969
0.01,0.351,0.931,-0.244,2323973
0.01,0.351,0.931,-0.122,2323977
0.008,0.352,0.931,-0.183,2323981
0.008,0.352,0.931,-0.122,2323985
0.008,0.352,0.931,-0.122,2323989
0.007,0.354,0.929,-0.183,2323993
0.007,0.354,0.929,-0.427,2323997
0.005,0.354,0.93,-0.488,2324001
0.005,0.354,0.93,-0.305,2324005
0.005,0.354,0.93,-0.305,2324009
0.001,0.354,0.929,-0.305,2324013
0.001,0.354,0.929,-0.305,2324017
0.001,0.353,0.926,-0.244,2324021
0.001,0.353,0.926,-0.183,2324025
0.001,0.353,0.926,-0.183,2324029
-0.0,0.353,0.928,-0.244,2324032
-0.0,0.353,0.928,-0.305,2324036
-0.002,0.351,0.929,-0.305,2324040
-0.002,0.351,0.929,-0.244,2324044
-0.002,0.351,0.929,-0.244,2324048
-0.0,0.346,0.93,-0.305,2324052
-0.0,0.346,0.93,-0.305,2324056
0.0,0.344,0.933,-0.122,2324060
0.0,0.344,0.933,-0.305,2324064
0.0,0.344,0.933,-0.305,2324068
0.002,0.341,0.934,-0.305,2324072
0.002,0.341,0.934,-0.183,2324076
0.003,0.34,0.936,-0.183,2324080
0.003,0.34,0.936,-0.122,2324084
0.003,0.34,0.936,-0.122,2324088
0.002,0.339,0.936,-0.183,2324092
0.002,0.339,0.936,-0.061,2324096
0.002,0.341,0.934,-0.061,2324100
0.002,0.341,0.934,-0.183,2324104
0.002,0.341,0.934,-0.183,2324108
0.004,0.342,0.934,-0.244,2324112
0.004,0.342,0.934,-0.305,2324116
0.001,0.341,0.934,-0.183,2324120
0.001,0.341,0.934,-0.122,2324124
0.001,0.341,0.934,-0.122,2324128
0.002,0.343,0.934,-0.183,2324132
0.002,0.343,0.934,-0.183,2324136
0.001,0.343,0.933,-0.122,2324140
0.001,0.343,0.933,-0.244,2324144
0.001,0.343,0.933,-0.244,2324148
0.001,0.345,0.933,-0.244,2324152
0.001,0.345,0.933,-0.244,2324156
0.003,0.348,0.932,-0.183,2324160
0.003,0.348,0.932,-0.183,2324164
0.004,0.348,0.93,-0.183,2324168
0.004,0.348,0.93,-0.183,2324172
0.004,0.348,0.93,-0.183,2324176
0.003,0.35,0.928,-0.244,2324180
0.003,0.35,0.928,-0.122,2324184
0.004,0.353,0.93,-0.061,2324188
0.004,0.353,0.93,-0.061,2324192
0.004,0.353,0.93,-0.061,2324196
0.005,0.355,0.93,-0.183,2324199
0.005,0.355,0.93,-0.244,2324203
0.007,0.353,0.932,-0.244,2324207
0.007,0.353,0.932,-0.244,2324211
0.007,0.353,0.932,-0.183,2324215
0.007,0.355,0.93,-0.244,2324219
0.007,0.355,0.93,-0.244,2324223
0.006,0.352,0.93,-0.183,2324227
0.006,0.352,0.93,-0.183,2324231
0.006,0.352,0.93,-0.183,2324235
0.004,0.348,0.931,-0.244,2324239
0.004,0.348,0.931,-0.183,2324243
0.004,0.347,0.932,-0.244,2324247
0.004,0.347,0.932,-0.244,2324251
0.004,0.347,0.932,-0.305,2324255
0.0,0.346,0.931,-0.183,2324259
0.0,0.346,0.931,-0.305,2324263
-0.001,0.343,0.932,-0.183,2324267
-0.001,0.343,0.932,-0.183,2324271
-0.001,0.343,0.932,-0.183,2324275
-0.001,0.341,0.935,-0.244,2324279
-0.001,0.341,0.935,-0.366,2324283
0.0,0.338,0.935,-0.305,2324287
0.0,0.338,0.935,-0.305,2324291
0.0,0.338,0.935,-0.122,2324295
-0.0,0.338,0.933,-0.061,2324299
-0.0,0.338,0.933,-0.122,2324303
0.001,0.338,0.934,-0.244,2324307
0.001,0.338,0.934,-0.244,2324311
0.001,0.338,0.934,-0.122,2324315
0.001,0.339,0.935,-0.183,2324319
0.001,0.339,0.935,-0.183,2324323
0.0,0.341,0.933,-0.122,2324327
0.0,0.341,0.933,-0.122,2324330
0.0,0.341,0.933,-0.061,2324334
0.002,0.344,0.932,-0.183,2324338
0.002,0.344,0.932,-0.244,2324342
0.003,0.348,0.932,0.0,2324346
0.003,0.348,0.932,0.0,2324350
0.003,0.348,0.932,-0.122,2324354
0.002,0.351,0.93,-0.305,2324358
0.002,0.351,0.93,-0.122,2324362
0.003,0.354,0.928,-0.183,2324366
0.003,0.354,0.928,-0.183,2324370
0.003,0.354,0.928,-0.183,2324374
0.003,0.355,0.926,-0.183,2324378
0.003,0.355,0.926,-0.244,2324382
0.004,0.354,0.927,-0.122,2324386
0.004,0.354,0.927,-0.122,2324390
0.004,0.354,0.927,-0.244,2324394
0.003,0.354,0.931,-0.244,2324398
0.003,0.354,0.931,-0.183,2324402
0.002,0.351,0.932,-0.183,2324406
0.002,0.351,0.932,-0.183,2324410
0.002,0.351,0.932,-0.183,2324414
0.004,0.349,0.932,-0.305,2324418
0.004,0.349,0.932,-0.244,2324422
0.005,0.348,0.932,-0.122,2324426
0.005,0.348,0.932,-0.122,2324430
0.005,0.348,0.932,-0.183,2324434
0.004,0.347,0.933,-0.122,2324438
0.004,0.347,0.933,-0.244,2324442
0.002,0.344,0.934,-0.061,2324446
0.002,0.344,0.934,-0.061,2324450
0.002,0.344,0.934,-0.122,2324454
0.004,0.342,0.933,-0.183,2324458
0.004,0.342,0.933,-0.244,2324462
0.004,0.341,0.935,-0.183,2324466
0.004,0.341,0.935,-0.183,2324470
0.004,0.341,0.935,-0.122,2324474
0.003,0.342,0.934,-0.122,2324478
0.003,0.342,0.934,-0.244,2324482
0.003,0.342,0.933,-0.183,2324486
0.003,0.342,0.933,-0.183,2324490
0.003,0.342,0.933,-0.122,2324494
0.004,0.341,0.934,-0.244,2324498
0.004,0.341,0.934,-0.244,2324502
0.005,0.343,0.934,-0.244,2324505
0.005,0.343,0.934,-0.244,2324509
0.005,0.343,0.934,-0.061,2324513
0.006,0.343,0.936,-0.366,2324517
0.006,0.343,0.936,-0.183,2324521
0.005,0.343,0.933,-0.305,2324525
0.005,0.343,0.933,-0.305,2324529
0.005,0.343,0.933,-0.183,2324533
0.004,0.346,0.934,-0.244,2324537
0.004,0.346,0.934,0.0,2324541
0.004,0.347,0.934,-0.122,2324545
0.004,0.347,0.934,-0.122,2324549
0.004,0.347,0.934,-0.305,2324553
0.003,0.348,0.932,-0.244,2324557
0.003,0.348,0.932,-0.183,2324561
0.002,0.351,0.929,-0.183,2324565
0.002,0.351,0.929,-0.183,2324569
0.002,0.351,0.929,-0.244,2324573
0.0,0.352,0.927,-0.244,2324577
0.0,0.352,0.927,-0.244,2324581
0.001,0.352,0.928,-0.122,2324585
0.001,0.352,0.928,-0.122,2324589
0.001,0.352,0.928,-0.061,2324593
0.0,0.353,0.928,-0.183,2324597
0.0,0.353,0.928,-0.122,2324601
0.002,0.354,0.93,-0.244,2324605
0.002,0.354,0.93,-0.244,2324609
0.002,0.354,0.93,-0.183,2324613
0.002,0.352,0.928,-0.183,2324617
0.002,0.352,0.928,-0.122,2324621
0.002,0.35,0.929,-0.122,2324625
0.002,0.35,0.929,-0.122,2324629
0.002,0.35,0.929,-0.244,2324633
0.002,0.348,0.931,-0.183,2324637
0.002,0.348,0.931,-0.183,2324641
0.003,0.346,0.933,-0.305,2324645
0.003,0.346,0.933,-0.305,2324649
0.003,0.346,0.933,-0.183,2324653
0.003,0.342,0.934,-0.122,2324657
0.003,0.342,0.934,-0.244,2324661
0.002,0.341,0.934,-0.244,2324665
0.002,0.341,0.934,-0.244,2324669
0.002,0.341,0.934,-0.061,2324673
0.001,0.34,0.934,-0.183,2324677
0.001,0.34,0.934,-0.244,2324681
0.001,0.34,0.933,-0.244,2324685
0.001,0.34,0.933,-0.122,2324689
0.001,0.34,0.933,-0.122,2324692
0.002,0.341,0.934,-0.183,2324696
0.002,0.341,0.934,-0.244,2324700
0.002,0.341,0.932,-0.183,2324704
0.002,0.341,0.932,-0.244,2324708
0.002,0.341,0.932,-0.244,2324712
0.002,0.344,0.933,-0.244,2324716
0.002,0.344,0.933,-0.244,2324720
0.003,0.344,0.933,-0.244,2324724
0.003,0.344,0.933,-0.183,2324728
0.003,0.344,0.933,-0.183,2324732
0.004,0.347,0.932,0.0,2324736
0.004,0.347,0.932,-0.122,2324740
0.005,0.348,0.933,-0.305,2324744
0.005,0.348,0.933,-0.183,2324748
0.005,0.348,0.933,-0.183,2324752
0.006,0.349,0.933,-0.061,2324756
0.006,0.349,0.933,-0.122,2324760
0.005,0.352,0.932,-0.183,2324764
0.005,0.352,0.932,-0.244,2324768
0.005,0.352,0.932,-0.244,2324772
0.006,0.351,0.93,-0.122,2324776
0.006,0.351,0.93,-0.122,2324780
0.004,0.353,0.93,-0.122,2324784
0.004,0.353,0.93,-0.122,2324788
0.004,0.353,0.93,-0.122,2324792
0.003,0.352,0.932,-0.183,2324796
0.003,0.352,0.932,-0.183,2324800
0.002,0.351,0.931,-0.305,2324804
0.002,0.351,0.931,-0.305,2324808
0.002,0.351,0.931,-0.305,2324812
0.001,0.35,0.93,-0.305,2324816
0.001,0.35,0.93,-0.061,2324820
0.002,0.349,0.929,-0.122,2324824
0.002,0.349,0.929,-0.305,2324828
0.002,0.349,0.929,-0.305,2324832
0.001,0.348,0.931,-0.244,2324836
0.001,0.348,0.931,-0.305,2324840
0.002,0.345,0.934,-0.244,2324844
0.002,0.345,0.934,-0.244,2324848
0.002,0.345,0.934,-0.244,2324852
0.001,0.344,0.933,-0.244,2324856
0.001,0.344,0.933,-0.244,2324860
0.001,0.342,0.932,-0.305,2324864
0.001,0.342,0.932,-0.305,2324868
0.001,0.342,0.932,-0.305,2324872
0.003,0.34,0.934,-0.061,2324875
0.003,0.34,0.934,-0.183,2324879
0.003,0.341,0.936,-0.244,2324883
0.003,0.341,0.936,-0.183,2324887
0.003,0.341,0.936,-0.183,2324891
0.001,0.342,0.932,-0.183,2324895
0.001,0.342,0.932,-0.122,2324899
0.001,0.342,0.933,-0.122,2324903
0.001,0.342,0.933,-0.122,2324907
0.001,0.342,0.933,-0.122,2324911
0.001,0.344,0.933,-0.061,2324915
0.001,0.344,0.933,-0.061,2324919
0.001,0.348,0.932,-0.122,2324923
0.001,0.348,0.932,-0.122,2324927
0.001,0.348,0.932,-0.122,2324931
0.001,0.348,0.932,-0.122,2324935
0.001,0.348,0.932,-0.183,2324939
0.001,0.349,0.93,-0.183,2324943
0.001,0.349,0.93,-0.183,2324947
0.001,0.349,0.93,-0.183,2324951
0.003,0.35,0.931,-0.244,2324955
0.003,0.35,0.931,-0.244,2324959
0.004,0.35,0.931,-0.244,2324963
0.004,0.35,0.931,-0.183,2324967
0.004,0.35,0.931,-0.183,2324971
0.005,0.349,0.931,-0.061,2324975
0.005,0.349,0.931,-0.061,2324979
0.004,0.349,0.93,-0.122,2324983
0.004,0.349,0.93,-0.183,2324987
0.004,0.349,0.93,-0.183,2324991
0.004,0.348,0.929,-0.183,2324995
0.004,0.348,0.929,-0.183,2324999
0.004,0.35,0.931,-0.122,2325003
0.004,0.35,0.931,-0.061,2325007
0.004,0.35,0.931,-0.061,2325011
0.004,0.35,0.931,-0.244,2325015
0.004,0.35,0.931,-0.061,2325019
0.004,0.349,0.93,-0.183,2325023
0.004,0.349,0.93,-0.244,2325027
0.004,0.349,0.93,-0.244,2325031
0.004,0.347,0.93,-0.305,2325035
0.004,0.347,0.93,-0.183,2325039
0.002,0.346,0.936,-0.427,2325043
0.002,0.346,0.936,-0.183,2325047
0.002,0.346,0.936,-0.183,2325051
0.004,0.344,0.932,-0.183,2325055
0.004,0.344,0.932,-0.183,2325059
0.003,0.343,0.932,-0.305,2325063
0.003,0.343,0.932,-0.183,2325067
0.005,0.342,0.934,-0.244,2325070
0.005,0.342,0.934,-0.244,2325074
0.005,0.342,0.934,-0.183,2325078
0.002,0.342,0.935,-0.183,2325082
0.002,0.342,0.935,-0.183,2325086
0.004,0.341,0.935,-0.122,2325090
0.004,0.341,0.935,-0.122,2325094
0.004,0.341,0.935,-0.122,2325098
0.004,0.34,0.933,-0.183,2325102
0.004,0.34,0.933,-0.244,2325106
0.004,0.342,0.934,-0.305,2325110
0.004,0.342,0.934,-0.305,2325114
0.004,0.342,0.934,-0.244,2325118
0.004,0.344,0.931,-0.183,2325122
0.004,0.344,0.931,-0.122,2325126
0.0,0.348,0.934,-0.122,2325130
0.0,0.348,0.934,-0.122,2325134
0.0,0.348,0.934,-0.122,2325138
0.0,0.348,0.933,-0.122,2325142
0.0,0.348,0.933,-0.183,2325146
0.001,0.347,0.928,-0.244,2325150
0.001,0.347,0.928,-0.244,2325154
0.001,0.347,0.928,-0.122,2325158
0.001,0.349,0.93,-0.183,2325162
0.001,0.349,0.93,-0.244,2325166
0.002,0.351,0.929,-0.183,2325170
0.002,0.351,0.929,-0.183,2325174
0.002,0.351,0.929,-0.183,2325178
0.001,0.354,0.929,-0.183,2325182
0.001,0.354,0.929,-0.244,2325186
0.001,0.353,0.928,-0.183,2325190
0.001,0.353,0.928,-0.183,2325194
0.001,0.353,0.928,-0.183,2325198
0.003,0.351,0.93,-0.122,2325202
0.003,0.351,0.93,-0.244,2325206
0.003,0.35,0.931,-0.366,2325210
0.003,0.35,0.931,-0.366,2325214
0.003,0.35,0.931,-0.366,2325218
0.001,0.35,0.931,-0.244,2325222
0.001,0.35,0.931,-0.244,2325226
0.001,0.348,0.936,-0.305,2325230
0.001,0.348,0.936,-0.305,2325234
0.001,0.348,0.936,-0.366,2325238
0.002,0.341,0.932,-0.183,2325242
0.002,0.341,0.932,-0.244,2325246
0.001,0.339,0.935,-0.244,2325250
0.001,0.339,0.935,-0.244,2325254
0.001,0.339,0.935,-0.244,2325258
0.0,0.358,0.976,-0.305,2325261
0.0,0.358,0.976,-0.366,2325265
0.007,0.341,0.938,-0.244,2325269
0.007,0.341,0.938,-0.244,2325273
0.007,0.341,0.938,-0.122,2325277
0.009,0.329,0.9,-0.061,2325281
0.009,0.329,0.9,0.122,2325285
0.004,0.346,0.919,0.0,2325289
0.004,0.346,0.919,0.0,2325293
0.004,0.346,0.919,-0.183,2325297
-0.001,0.367,0.963,-0.305,2325301
-0.001,0.367,0.963,-0.305,2325305
0.009,0.352,0.954,-0.427,2325309
0.009,0.352,0.954,-0.427,2325313
0.009,0.352,0.954,-0.427,2325317
0.015,0.335,0.913,-0.244,2325321
0.015,0.335,0.913,-0.183,2325325
0.016,0.339,0.922,0.061,2325329
0.016,0.339,0.922,0.061,2325333
0.016,0.339,0.922,0.183,2325337
0.003,0.363,0.961,0.061,2325341
0.003,0.363,0.961,-0.122,2325345
-0.005,0.363,0.946,-0.305,2325349
-0.005,0.363,0.946,-0.305,2325353
-0.005,0.363,0.946,-0.244,2325357
0.004,0.342,0.916,-0.305,2325361
0.004,0.342,0.916,-0.244,2325365
0.006,0.338,0.918,-0.183,2325369
0.006,0.338,0.918,-0.183,2325373
0.006,0.338,0.918,-0.244,2325377
0.002,0.354,0.948,-0.305,2325381
0.002,0.354,0.948,-0.244,2325385
-0.001,0.36,0.953,-0.305,2325389
-0.001,0.36,0.953,-0.305,2325393
-0.001,0.36,0.953,-0.244,2325397
0.0,0.346,0.928,-0.183,2325400
0.0,0.346,0.928,0.0,2325404
0.0,0.341,0.914,-0.061,2325408
0.0,0.341,0.914,-0.061,2325412
0.0,0.341,0.914,-0.061,2325416
-0.001,0.347,0.936,-0.122,2325420
-0.001,0.347,0.936,-0.366,2325424
-0.003,0.355,0.954,-0.305,2325428
-0.003,0.355,0.954,-0.305,2325432
-0.003,0.355,0.954,-0.305,2325436
0.001,0.348,0.937,-0.366,2325440
0.001,0.348,0.937,-0.244,2325444
0.009,0.337,0.925,-0.305,2325448
0.009,0.337,0.925,-0.305,2325452
0.009,0.337,0.925,-0.244,2325456
0.005,0.342,0.933,-0.061,2325460
0.005,0.342,0.933,0.061,2325464
-0.004,0.351,0.944,-0.061,2325468
-0.004,0.351,0.944,-0.061,2325472
-0.004,0.351,0.944,-0.244,2325476
-0.005,0.353,0.941,-0.366,2325480
-0.005,0.353,0.941,-0.244,2325484
0.002,0.343,0.926,-0.244,2325488
0.002,0.343,0.926,-0.244,2325492
0.002,0.343,0.926,-0.305,2325496
0.005,0.342,0.928,-0.122,2325500
0.005,0.342,0.928,-0.061,2325504
0.007,0.352,0.946,-0.122,2325508
0.007,0.352,0.946,-0.122,2325512
0.007,0.352,0.946,-0.122,2325516
0.002,0.356,0.948,-0.061,2325520
0.002,0.356,0.948,-0.244,2325524
0.003,0.35,0.932,-0.244,2325528
0.003,0.35,0.932,-0.244,2325532
0.003,0.35,0.932,-0.305,2325536
0.005,0.343,0.922,-0.061,2325540
0.005,0.343,0.922,0.061,2325544
0.004,0.349,0.936,-0.122,2325547
0.004,0.349,0.936,-0.122,2325551
0.004,0.349,0.936,-0.061,2325555
0.006,0.358,0.948,-0.061,2325559
0.006,0.358,0.948,-0.183,2325563
0.007,0.349,0.938,-0.366,2325567
0.007,0.349,0.938,-0.366,2325571
0.007,0.349,0.938,-0.366,2325575
0.01,0.341,0.931,-0.366,2325579
0.01,0.341,0.931,-0.183,2325583
0.007,0.346,0.938,-0.122,2325587
0.007,0.346,0.938,-0.183,2325591
0.007,0.346,0.938,-0.183,2325595
0.001,0.351,0.944,-0.244,2325599
0.001,0.351,0.944,-0.122,2325603
0.002,0.345,0.928,-0.244,2325607
0.002,0.345,0.928,-0.183,2325611
0.002,0.345,0.928,-0.183,2325615
0.003,0.344,0.927,-0.305,2325619
0.003,0.344,0.927,-0.183,2325623
0.006,0.346,0.938,-0.183,2325627
0.006,0.346,0.938,-0.366,2325631
0.006,0.346,0.938,-0.366,2325635
0.004,0.352,0.947,-0.427,2325639
0.004,0.352,0.947,-0.427,2325643
0.003,0.345,0.936,-0.366,2325647
0.003,0.345,0.936,-0.305,2325651
0.003,0.345,0.936,-0.305,2325655
0.0,0.341,0.924,-0.183,2325659
0.0,0.341,0.924,0.0,2325663
-0.0,0.346,0.932,-0.183,2325667
-0.0,0.346,0.932,-0.183,2325671
-0.0,0.346,0.932,-0.183,2325675
-0.0,0.352,0.943,-0.244,2325679
-0.0,0.352,0.943,-0.305,2325683
0.005,0.35,0.939,-0.183,2325687
0.005,0.35,0.939,-0.061,2325691
0.005,0.35,0.939,-0.061,2325695
0.005,0.344,0.932,-0.183,2325699
0.005,0.344,0.932,-0.183,2325703
0.005,0.34,0.927,-0.183,2325707
0.005,0.34,0.927,0.0,2325710
0.005,0.34,0.927,0.0,2325714
0.0,0.349,0.937,0.0,2325718
0.0,0.349,0.937,-0.183,2325722
-0.0,0.354,0.936,-0.244,2325726
-0.0,0.354,0.936,-0.244,2325730
-0.0,0.354,0.936,-0.183,2325734
-0.002,0.354,0.933,-0.183,2325738
-0.002,0.354,0.933,-0.122,2325742
0.004,0.347,0.929,-0.305,2325746
0.004,0.347,0.929,-0.305,2325750
0.004,0.347,0.929,-0.305,2325754
0.003,0.346,0.929,0.0,2325758
0.003,0.346,0.929,-0.061,2325762
0.001,0.35,0.936,-0.122,2325766
0.001,0.35,0.936,-0.122,2325770
0.001,0.35,0.936,-0.183,2325774
-0.0,0.352,0.937,-0.183,2325778
-0.0,0.352,0.937,-0.061,2325782
0.002,0.352,0.935,-0.244,2325786
0.002,0.352,0.935,-0.244,2325790
0.002,0.352,0.935,-0.183,2325794
0.007,0.344,0.924,0.0,2325798
0.007,0.344,0.924,-0.061,2325802
0.005,0.346,0.932,-0.244,2325806
0.005,0.346,0.932,-0.183,2325810
0.005,0.346,0.932,-0.183,2325814
0.003,0.35,0.938,-0.122,2325817
0.003,0.35,0.938,-0.183,2325821
0.005,0.352,0.945,-0.061,2325825
0.005,0.352,0.945,-0.366,2325829
0.005,0.352,0.945,-0.366,2325833
0.008,0.339,0.927,-0.183,2325837
0.008,0.339,0.927,0.061,2325841
0.005,0.341,0.928,-0.183,2325845
0.005,0.341,0.928,-0.244,2325849
0.005,0.341,0.928,-0.244,2325853
0.0,0.349,0.936,0.0,2325857
0.0,0.349,0.936,-0.122,2325861
0.003,0.352,0.944,-0.244,2325865
0.003,0.352,0.944,-0.305,2325869
0.003,0.352,0.944,-0.305,2325873
0.006,0.341,0.928,-0.244,2325877
0.006,0.341,0.928,-0.122,2325881
0.004,0.34,0.927,-0.061,2325885
0.004,0.34,0.927,-0.061,2325889
0.004,0.34,0.927,-0.061,2325893
0.002,0.348,0.937,-0.122,2325897
0.002,0.348,0.937,-0.244,2325901
-0.002,0.355,0.945,0.0,2325905
-0.002,0.355,0.945,-0.183,2325909
-0.002,0.355,0.945,-0.183,2325913
0.003,0.347,0.926,-0.244,2325917
0.003,0.347,0.926,-0.244,2325921
0.005,0.34,0.921,-0.183,2325925
0.005,0.34,0.921,-0.244,2325929
0.005,0.34,0.921,-0.244,2325933
0.003,0.35,0.934,-0.244,2325937
0.003,0.35,0.934,-0.183,2325941
-0.0,0.356,0.947,-0.183,2325945
-0.0,0.356,0.947,-0.244,2325949
-0.0,0.356,0.947,-0.244,2325953
0.002,0.346,0.929,-0.305,2325957
0.002,0.346,0.929,-0.183,2325961
0.003,0.341,0.92,-0.122,2325965
0.003,0.341,0.92,-0.122,2325969
0.003,0.341,0.92,-0.122,2325972
0.001,0.347,0.93,-0.183,2325976
0.001,0.347,0.93,-0.244,2325980
-0.001,0.358,0.948,-0.305,2325984
-0.001,0.358,0.948,-0.305,2325988
-0.001,0.358,0.948,-0.305,2325992
0.001,0.348,0.927,-0.244,2325996
0.001,0.348,0.927,-0.122,2326000
0.002,0.342,0.92,-0.183,2326004
0.002,0.342,0.92,-0.183,2326008
0.002,0.342,0.92,-0.183,2326012
0.0,0.346,0.933,-0.122,2326016
0.0,0.346,0.933,-0.122,2326020
0.0,0.355,0.947,-0.305,2326024
0.0,0.355,0.947,-0.244,2326028
0.0,0.355,0.947,-0.244,2326032
0.002,0.346,0.93,-0.244,2326036
0.002,0.346,0.93,-0.244,2326040
0.004,0.344,0.92,-0.244,2326044
0.004,0.344,0.92,-0.183,2326048
0.004,0.344,0.92,-0.183,2326052
0.002,0.346,0.935,-0.061,2326056
0.002,0.346,0.935,-0.122,2326060
0.002,0.351,0.944,-0.305,2326064
0.002,0.351,0.944,-0.366,2326068
0.002,0.351,0.944,-0.366,2326072
0.003,0.342,0.931,-0.305,2326076
0.003,0.342,0.931,-0.183,2326080
0.005,0.342,0.923,-0.122,2326084
0.005,0.342,0.923,-0.183,2326088
0.005,0.342,0.923,-0.183,2326092
0.005,0.347,0.936,-0.244,2326096
0.005,0.347,0.936,-0.244,2326100
0.004,0.348,0.94,-0.244,2326104
0.004,0.348,0.94,-0.183,2326108
0.004,0.348,0.94,-0.183,2326112
0.003,0.345,0.929,-0.244,2326116
0.003,0.345,0.929,-0.305,2326120
0.004,0.344,0.928,-0.183,2326124
0.004,0.344,0.928,-0.061,2326128
0.004,0.344,0.928,-0.061,2326132
0.003,0.348,0.938,-0.183,2326136
0.003,0.348,0.938,-0.183,2326140
0.005,0.349,0.935,-0.122,2326144
0.005,0.349,0.935,-0.122,2326148
0.005,0.349,0.935,-0.122,2326152
0.002,0.345,0.929,-0.244,2326155
0.002,0.345,0.929,-0.183,2326159
0.003,0.346,0.93,-0.183,2326163
0.003,0.346,0.93,-0.244,2326167
0.003,0.346,0.93,-0.244,2326171
0.005,0.348,0.94,-0.183,2326175
0.005,0.348,0.94,-0.244,2326179
0.004,0.343,0.929,-0.244,2326183
0.004,0.343,0.929,-0.061,2326187
0.004,0.343,0.929,-0.061,2326191
0.002,0.345,0.928,-0.183,2326195
0.002,0.345,0.928,-0.122,2326199
0.001,0.348,0.934,-0.183,2326203
0.001,0.348,0.934,-0.244,2326207
0.001,0.348,0.934,-0.244,2326211
0.002,0.351,0.938,-0.183,2326215
0.002,0.351,0.938,-0.183,2326219
0.0,0.344,0.927,-0.183,2326223
0.0,0.344,0.927,-0.122,2326227
0.0,0.344,0.927,-0.122,2326231
0.002,0.349,0.927,-0.061,2326235
0.002,0.349,0.927,-0.122,2326239
0.001,0.35,0.938,-0.183,2326243
0.001,0.35,0.938,-0.183,2326247
0.001,0.35,0.938,-0.183,2326251
0.0,0.348,0.93,-0.061,2326255
0.0,0.348,0.93,-0.183,2326259
0.001,0.344,0.925,-0.244,2326263
0.001,0.344,0.925,-0.305,2326267
0.0,0.347,0.929,-0.244,2326271
0.0,0.347,0.929,-0.244,2326275
0.0,0.347,0.929,-0.061,2326279
0.0,0.351,0.939,-0.244,2326283
0.0,0.351,0.939,-0.366,2326287
0.0,0.351,0.939,-0.366,2326291
0.003,0.347,0.93,-0.305,2326295
0.003,0.347,0.93,-0.305,2326299
0.004,0.344,0.931,-0.244,2326303
0.004,0.344,0.931,-0.244,2326307
0.004,0.344,0.931,-0.244,2326311
0.005,0.345,0.93,-0.122,2326314
0.005,0.345,0.93,-0.183,2326318
0.003,0.35,0.937,-0.244,2326322
0.003,0.35,0.937,-0.244,2326326
0.002,0.344,0.927,-0.305,2326330
0.002,0.344,0.927,-0.305,2326334
0.002,0.344,0.927,-0.183,2326338
-0.0,0.347,0.929,-0.122,2326342
-0.0,0.347,0.929,-0.183,2326346
0.002,0.348,0.934,-0.183,2326350
0.002,0.348,0.934,-0.183,2326354
0.002,0.348,0.934,-0.244,2326358
0.004,0.348,0.938,-0.366,2326362
0.004,0.348,0.938,-0.122,2326366
0.002,0.344,0.929,-0.122,2326370
0.002,0.344,0.929,-0.122,2326374
0.002,0.344,0.929,-0.183,2326378
0.003,0.344,0.929,-0.244,2326382
0.003,0.344,0.929,-0.122,2326386
0.002,0.347,0.933,-0.122,2326390
0.002,0.347,0.933,-0.122,2326394
0.002,0.347,0.933,-0.183,2326398
0.002,0.347,0.935,-0.244,2326402
0.002,0.347,0.935,-0.244,2326406
0.002,0.343,0.924,-0.183,2326410
0.002,0.343,0.924,-0.183,2326414
0.002,0.343,0.924,-0.061,2326418
0.006,0.345,0.929,-0.122,2326422
0.006,0.345,0.929,-0.305,2326426
0.001,0.352,0.941,-0.061,2326430
0.001,0.352,0.941,-0.061,2326434
0.001,0.352,0.941,-0.244,2326438
0.003,0.348,0.936,-0.244,2326442
0.003,0.348,0.936,-0.244,2326446
0.004,0.342,0.925,-0.244,2326450
0.004,0.342,0.925,-0.244,2326454
0.004,0.342,0.925,-0.305,2326458
0.0,0.348,0.929,-0.305,2326462
0.0,0.348,0.929,-0.244,2326466
0.001,0.353,0.943,-0.305,2326470
0.001,0.353,0.943,-0.305,2326474
0.001,0.353,0.943,-0.244,2326478
0.004,0.347,0.931,-0.305,2326482
0.004,0.347,0.931,-0.244,2326486
0.005,0.343,0.925,-0.305,2326489
0.005,0.343,0.925,-0.305,2326493
0.005,0.343,0.925,-0.305,2326497
0.005,0.348,0.932,-0.244,2326501
0.005,0.348,0.932,-0.183,2326505
0.002,0.35,0.943,-0.244,2326509
0.002,0.35,0.943,-0.244,2326513
0.002,0.35,0.943,-0.244,2326517
0.003,0.345,0.929,-0.244,2326521
0.003,0.345,0.929,-0.244,2326525
0.004,0.344,0.925,-0.122,2326529
0.004,0.344,0.925,-0.122,2326533
0.004,0.344,0.925,-0.122,2326537
0.004,0.348,0.931,-0.183,2326541
0.004,0.348,0.931,-0.061,2326545
0.001,0.351,0.942,-0.183,2326549
0.001,0.351,0.942,-0.183,2326553
0.001,0.351,0.942,-0.122,2326557
0.003,0.345,0.928,-0.122,2326561
0.003,0.345,0.928,-0.183,2326565
-0.0,0.344,0.926,-0.122,2326569
-0.0,0.344,0.926,-0.122,2326573
-0.0,0.344,0.926,-0.122,2326577
0.002,0.348,0.934,-0.122,2326581
0.002,0.348,0.934,0.0,2326585
0.0,0.349,0.938,-0.183,2326589
0.0,0.349,0.938,-0.183,2326593
0.0,0.349,0.938,-0.122,2326597
0.002,0.344,0.925,-0.244,2326601
0.002,0.344,0.925,-0.244,2326605
0.003,0.345,0.927,-0.305,2326609
0.003,0.345,0.927,-0.305,2326613
0.003,0.345,0.927,-0.244,2326617
0.002,0.347,0.935,-0.244,2326621
0.002,0.347,0.935,-0.305,2326625
0.002,0.349,0.939,-0.366,2326629
0.002,0.349,0.939,-0.366,2326633
0.002,0.349,0.939,-0.183,2326637
0.003,0.343,0.926,-0.244,2326641
0.003,0.343,0.926,-0.244,2326645
0.005,0.344,0.925,-0.183,2326648
0.005,0.344,0.925,-0.183,2326652
0.005,0.344,0.925,-0.122,2326656
0.003,0.35,0.939,-0.122,2326660
0.003,0.35,0.939,-0.122,2326664
0.003,0.349,0.936,-0.305,2326668
0.003,0.349,0.936,-0.305,2326672
0.003,0.349,0.936,-0.244,2326676
0.003,0.343,0.927,-0.244,2326680
0.003,0.343,0.927,-0.122,2326684
0.002,0.344,0.925,-0.122,2326688
0.002,0.344,0.925,-0.122,2326692
0.002,0.344,0.925,-0.122,2326696
0.002,0.352,0.941,-0.183,2326700
0.002,0.352,0.941,-0.183,2326704
0.003,0.348,0.932,-0.244,2326708
0.003,0.348,0.932,-0.244,2326712
0.003,0.348,0.932,-0.183,2326716
0.003,0.345,0.926,-0.122,2326720
0.003,0.345,0.926,-0.122,2326724
0.002,0.345,0.927,-0.183,2326728
0.002,0.345,0.927,-0.183,2326732
0.002,0.345,0.927,-0.061,2326736
0.003,0.352,0.941,-0.122,2326740
0.003,0.352,0.941,-0.122,2326744
0.003,0.346,0.932,-0.183,2326748
0.003,0.346,0.932,-0.183,2326752
0.003,0.346,0.932,-0.183,2326756
0.002,0.345,0.926,-0.122,2326760
0.002,0.345,0.926,0.0,2326764
0.003,0.346,0.929,-0.122,2326768
0.003,0.346,0.929,-0.122,2326772
0.003,0.346,0.929,-0.183,2326776
0.001,0.349,0.938,-0.244,2326780
0.001,0.349,0.938,-0.244,2326784
0.003,0.344,0.93,-0.244,2326788
0.003,0.344,0.93,-0.183,2326792
0.003,0.344,0.93,-0.183,2326796
0.001,0.344,0.929,-0.244,2326800
0.001,0.344,0.929,-0.305,2326804
0.001,0.347,0.935,-0.305,2326808
0.001,0.347,0.935,-0.244,2326812
0.001,0.347,0.935,-0.244,2326816
0.004,0.345,0.938,-0.183,2326820
0.004,0.345,0.938,-0.183,2326824
0.003,0.343,0.927,-0.183,2326828
0.003,0.343,0.927,-0.122,2326832
0.003,0.343,0.927,-0.122,2326835
0.003,0.343,0.928,-0.122,2326839
0.003,0.343,0.928,-0.244,2326843
0.003,0.348,0.937,-0.183,2326847
0.003,0.348,0.937,-0.122,2326851
0.003,0.348,0.937,-0.122,2326855
0.004,0.347,0.937,-0.244,2326859
0.004,0.347,0.937,-0.244,2326863
0.001,0.343,0.925,-0.183,2326867
0.001,0.343,0.925,-0.061,2326871
0.001,0.343,0.925,-0.061,2326875
0.002,0.347,0.929,-0.183,2326879
0.002,0.347,0.929,-0.122,2326883
0.001,0.353,0.94,-0.061,2326887
0.001,0.353,0.94,-0.244,2326891
0.001,0.353,0.94,-0.244,2326895
0.004,0.349,0.933,-0.244,2326899
0.004,0.349,0.933,-0.122,2326903
0.003,0.345,0.922,-0.122,2326907
0.003,0.345,0.922,-0.061,2326911
0.003,0.345,0.922,-0.061,2326915
0.002,0.349,0.93,-0.183,2326919
0.002,0.349,0.93,-0.183,2326923
0.001,0.353,0.944,-0.183,2326927
0.001,0.353,0.944,-0.244,2326931
0.001,0.353,0.944,-0.244,2326935
0.004,0.346,0.926,-0.244,2326939
0.004,0.346,0.926,-0.122,2326943
0.004,0.345,0.924,-0.305,2326947
0.004,0.345,0.924,-0.244,2326951
0.004,0.345,0.924,-0.244,2326955
0.0,0.348,0.931,-0.122,2326959
0.0,0.348,0.931,-0.244,2326963
0.001,0.349,0.942,-0.366,2326967
0.001,0.349,0.942,-0.244,2326971
0.001,0.349,0.942,-0.244,2326975
0.003,0.343,0.929,-0.183,2326979
0.003,0.343,0.929,-0.244,2326983
0.003,0.344,0.928,-0.122,2326987
0.003,0.344,0.928,-0.061,2326991
0.003,0.344,0.928,-0.061,2326995
0.004,0.346,0.932,-0.183,2326999
0.004,0.346,0.932,-0.244,2327003
0.0,0.349,0.937,-0.183,2327007
0.0,0.349,0.937,-0.244,2327010
0.0,0.349,0.937,-0.244,2327014
0.001,0.342,0.926,-0.122,2327018
0.001,0.342,0.926,-0.061,2327022
0.003,0.344,0.928,-0.183,2327026
0.003,0.344,0.928,-0.122,2327030
0.003,0.344,0.928,-0.122,2327034
0.001,0.349,0.937,0.0,2327038
0.001,0.349,0.937,-0.183,2327042
0.001,0.348,0.938,-0.061,2327046
0.001,0.348,0.938,-0.122,2327050
0.001,0.348,0.938,-0.122,2327054
0.001,0.345,0.928,-0.305,2327058
0.001,0.345,0.928,-0.305,2327062
0.002,0.344,0.927,-0.183,2327066
0.002,0.344,0.927,-0.244,2327070
0.002,0.344,0.927,-0.244,2327074
-0.001,0.35,0.936,-0.244,2327078
-0.001,0.35,0.936,-0.244,2327082
0.002,0.349,0.936,-0.183,2327086
0.002,0.349,0.936,-0.305,2327090
0.002,0.349,0.936,-0.305,2327094
0.003,0.343,0.924,-0.305,2327098
0.003,0.343,0.924,-0.122,2327102
0.005,0.345,0.926,-0.183,2327106
0.005,0.345,0.926,-0.244,2327110
0.005,0.345,0.926,-0.244,2327114
0.002,0.353,0.944,-0.183,2327118
0.002,0.353,0.944,-0.183,2327122
0.003,0.349,0.935,-0.244,2327126
0.003,0.349,0.935,-0.244,2327130
0.003,0.349,0.935,-0.244,2327134
0.005,0.342,0.923,-0.244,2327138
0.005,0.342,0.923,-0.183,2327142
0.004,0.347,0.927,-0.183,2327146
0.004,0.347,0.927,-0.305,2327149
0.004,0.347,0.927,-0.305,2327153
-0.001,0.354,0.944,-0.183,2327157
-0.001,0.354,0.944,-0.122,2327161
0.0,0.349,0.931,-0.183,2327165
0.0,0.349,0.931,-0.122,2327169
0.0,0.349,0.931,-0.122,2327173
0.004,0.342,0.922,-0.061,2327177
0.004,0.342,0.922,-0.183,2327181
0.004,0.347,0.927,-0.122,2327185
0.004,0.347,0.927,-0.183,2327189
0.004,0.347,0.927,-0.183,2327193
0.002,0.353,0.945,-0.183,2327197
0.002,0.353,0.945,-0.122,2327201
0.002,0.345,0.93,-0.244,2327205
0.002,0.345,0.93,-0.305,2327209
0.002,0.345,0.93,-0.305,2327213
0.003,0.342,0.924,-0.183,2327217
0.003,0.342,0.924,-0.183,2327221
0.005,0.344,0.93,-0.305,2327225
0.005,0.344,0.93,-0.305,2327229
0.005,0.344,0.93,-0.305,2327233
0.003,0.35,0.943,-0.183,2327237
0.003,0.35,0.943,-0.305,2327241
0.003,0.345,0.931,-0.244,2327245
0.003,0.345,0.931,-0.122,2327249
0.003,0.345,0.931,-0.122,2327253
0.001,0.341,0.924,-0.183,2327257
0.001,0.341,0.924,-0.183,2327261
0.002,0.347,0.933,-0.183,2327265
0.002,0.347,0.933,-0.061,2327269
0.002,0.347,0.933,-0.061,2327273
-0.0,0.35,0.944,-0.122,2327277
-0.0,0.35,0.944,-0.244,2327281
0.004,0.344,0.928,-0.244,2327285
0.004,0.344,0.928,-0.183,2327289
0.002,0.342,0.923,-0.122,2327293
0.002,0.342,0.923,-0.122,2327297
0.002,0.342,0.923,-0.366,2327301
0.002,0.35,0.933,-0.366,2327305
0.002,0.35,0.933,-0.122,2327309
0.002,0.352,0.943,-0.244,2327313
0.002,0.352,0.943,-0.244,2327317
0.002,0.352,0.943,-0.244,2327321
0.003,0.344,0.923,-0.305,2327325
0.003,0.344,0.923,-0.122,2327328
0.003,0.345,0.925,-0.183,2327332
0.003,0.345,0.925,-0.183,2327336
0.003,0.345,0.925,-0.122,2327340
0.002,0.351,0.936,-0.122,2327344
0.002,0.351,0.936,-0.183,2327348
0.001,0.354,0.942,-0.183,2327352
0.001,0.354,0.942,-0.183,2327356
0.001,0.354,0.942,-0.244,2327360
0.002,0.344,0.923,-0.244,2327364
0.002,0.344,0.923,-0.183,2327368
0.004,0.344,0.923,-0.122,2327372
0.004,0.344,0.923,-0.122,2327376
0.004,0.344,0.923,-0.183,2327380
0.0,0.352,0.944,-0.244,2327384
0.0,0.352,0.944,-0.244,2327388
0.001,0.352,0.94,-0.244,2327392
0.001,0.352,0.94,-0.244,2327396
0.001,0.352,0.94,-0.244,2327400
0.002,0.341,0.919,-0.244,2327404
0.002,0.341,0.919,-0.244,2327408
0.002,0.344,0.923,-0.183,2327412
0.002,0.344,0.923,-0.183,2327416
0.002,0.344,0.923,0.0,2327420
0.001,0.35,0.941,-0.244,2327424
0.001,0.35,0.941,-0.244,2327428
0.001,0.35,0.939,-0.366,2327432
0.001,0.35,0.939,-0.366,2327436
0.001,0.35,0.939,-0.366,2327440
0.002,0.341,0.923,-0.183,2327444
0.002,0.341,0.923,-0.183,2327448
0.004,0.342,0.927,-0.122,2327452
0.004,0.342,0.927,-0.122,2327456
0.004,0.342,0.927,-0.122,2327460
0.003,0.352,0.943,-0.122,2327464
0.003,0.352,0.943,-0.183,2327468
0.002,0.349,0.937,-0.122,2327472
0.002,0.349,0.937,-0.122,2327476
0.002,0.349,0.937,-0.244,2327480
0.003,0.341,0.924,-0.122,2327484
0.003,0.341,0.924,-0.183,2327488
0.004,0.345,0.929,-0.305,2327492
0.004,0.345,0.929,-0.305,2327496
0.004,0.345,0.929,-0.244,2327500
0.001,0.35,0.943,-0.305,2327504
0.001,0.35,0.943,-0.305,2327508
0.005,0.348,0.933,-0.244,2327512
0.005,0.348,0.933,-0.244,2327516
0.005,0.348,0.933,-0.366,2327519
0.003,0.343,0.924,-0.244,2327523
0.003,0.343,0.924,-0.244,2327527
0.005,0.348,0.931,-0.122,2327531
0.005,0.348,0.931,-0.122,2327535
0.005,0.348,0.931,-0.122,2327539
0.002,0.351,0.942,-0.122,2327543
0.002,0.351,0.942,-0.183,2327547
0.005,0.346,0.927,-0.183,2327551
0.005,0.346,0.927,-0.183,2327555
0.005,0.346,0.927,-0.183,2327559
0.003,0.344,0.925,-0.244,2327563
0.003,0.344,0.925,-0.366,2327567
0.002,0.347,0.931,-0.244,2327571
0.002,0.347,0.931,-0.244,2327575
0.002,0.347,0.931,-0.061,2327579
0.003,0.351,0.942,-0.122,2327583
0.003,0.351,0.942,-0.244,2327587
0.004,0.344,0.924,-0.183,2327591
0.004,0.344,0.924,-0.183,2327595
0.004,0.344,0.924,-0.061,2327599
0.002,0.346,0.926,-0.183,2327603
0.002,0.346,0.926,-0.183,2327607
0.002,0.347,0.936,-0.183,2327611
0.002,0.347,0.936,-0.183,2327615
0.002,0.347,0.936,-0.183,2327619
0.002,0.348,0.937,-0.244,2327623
0.002,0.348,0.937,-0.305,2327627
0.001,0.343,0.927,-0.305,2327631
0.001,0.343,0.927,-0.244,2327635
0.001,0.343,0.927,-0.244,2327639
0.0,0.346,0.925,-0.183,2327643
0.0,0.346,0.925,-0.183,2327647
0.001,0.35,0.936,-0.122,2327651
0.001,0.35,0.936,-0.122,2327655
0.001,0.35,0.936,-0.244,2327659
0.002,0.348,0.935,-0.244,2327663
0.002,0.348,0.935,-0.122,2327667
0.002,0.344,0.927,-0.122,2327671
0.002,0.344,0.927,-0.183,2327675
0.002,0.344,0.927,-0.183,2327679
0.003,0.344,0.928,-0.183,2327683
0.003,0.344,0.928,-0.061,2327687
0.0,0.35,0.938,-0.183,2327691
0.0,0.35,0.938,-0.244,2327694
0.0,0.35,0.938,-0.244,2327698
0.002,0.345,0.929,-0.305,2327702
0.002,0.345,0.929,-0.183,2327706
0.001,0.344,0.929,-0.183,2327710
0.001,0.344,0.929,-0.183,2327714
0.001,0.344,0.929,-0.183,2327718
0.004,0.344,0.93,-0.366,2327722
0.004,0.344,0.93,-0.122,2327726
0.001,0.349,0.942,0.061,2327730
0.001,0.349,0.942,0.0,2327734
0.001,0.349,0.942,0.0,2327738
0.004,0.344,0.93,-0.244,2327742
0.004,0.344,0.93,-0.244,2327746
0.002,0.344,0.929,-0.305,2327750
0.002,0.344,0.929,-0.305,2327754
0.002,0.344,0.929,-0.244,2327758
0.003,0.348,0.928,-0.244,2327762
0.003,0.348,0.928,-0.305,2327766
0.0,0.351,0.94,-0.244,2327770
0.0,0.351,0.94,-0.183,2327774
0.0,0.351,0.94,-0.183,2327778
0.004,0.344,0.925,-0.244,2327782
0.004,0.344,0.925,-0.244,2327786
0.003,0.345,0.929,-0.244,2327790
0.003,0.345,0.929,-0.244,2327794
0.003,0.345,0.929,-0.244,2327798
0.002,0.347,0.932,-0.183,2327802
0.002,0.347,0.932,-0.183,2327806
0.0,0.353,0.941,-0.183,2327810
0.0,0.353,0.941,-0.183,2327814
0.0,0.353,0.941,-0.183,2327817
0.003,0.343,0.925,-0.183,2327821
0.003,0.343,0.925,-0.183,2327825
0.003,0.343,0.924,-0.122,2327829
0.003,0.343,0.924,-0.061,2327833
0.003,0.343,0.924,-0.061,2327837
0.001,0.348,0.935,-0.366,2327841
0.001,0.348,0.935,-0.427,2327845
0.001,0.351,0.941,-0.305,2327849
0.001,0.351,0.941,-0.305,2327853
0.001,0.351,0.941,-0.305,2327857
0.003,0.343,0.925,-0.122,2327861
0.003,0.343,0.925,-0.122,2327865
0.001,0.344,0.925,-0.122,2327869
0.001,0.344,0.925,-0.183,2327873
0.001,0.344,0.925,-0.183,2327877
0.002,0.349,0.935,-0.122,2327881
0.002,0.349,0.935,-0.305,2327885
0.0,0.351,0.939,-0.183,2327889
0.0,0.351,0.939,-0.183,2327893
0.0,0.351,0.939,-0.183,2327897
0.001,0.347,0.926,-0.183,2327901
0.001,0.347,0.926,-0.061,2327905
0.002,0.345,0.923,-0.122,2327909
0.002,0.345,0.923,-0.244,2327913
0.002,0.345,0.923,-0.244,2327917
0.002,0.351,0.938,-0.122,2327921
0.002,0.351,0.938,-0.122,2327925
0.001,0.347,0.938,-0.061,2327929
0.001,0.347,0.938,-0.244,2327933
0.001,0.347,0.938,-0.244,2327937
0.003,0.343,0.928,-0.183,2327941
0.003,0.343,0.928,-0.183,2327945
0.003,0.346,0.927,-0.244,2327949
0.003,0.346,0.927,-0.183,2327953
0.003,0.346,0.927,-0.183,2327957
0.003,0.347,0.939,-0.122,2327961
0.003,0.347,0.939,-0.061,2327965
0.004,0.346,0.937,-0.244,2327969
0.004,0.346,0.937,-0.244,2327973
0.004,0.346,0.937,-0.244,2327977
0.002,0.342,0.927,-0.122,2327981
0.002,0.342,0.927,-0.183,2327985
0.004,0.347,0.926,-0.183,2327989
0.004,0.347,0.926,-0.305,2327993
0.004,0.347,0.926,-0.305,2327997
0.002,0.35,0.941,-0.244,2328001
0.002,0.35,0.941,-0.183,2328005
0.003,0.347,0.932,-0.244,2328009
0.003,0.347,0.932,-0.122,2328013
0.003,0.347,0.932,-0.122,2328016
0.001,0.344,0.927,-0.183,2328020
0.001,0.344,0.927,-0.183,2328024
0.005,0.347,0.927,-0.122,2328028
0.005,0.347,0.927,-0.061,2328032
0.005,0.347,0.927,-0.061,2328036
0.002,0.354,0.944,-0.244,2328040
0.002,0.354,0.944,-0.305,2328044
0.003,0.346,0.932,-0.183,2328048
0.003,0.346,0.932,-0.183,2328052
0.003,0.346,0.932,-0.183,2328056
0.003,0.344,0.926,-0.122,2328060
0.003,0.344,0.926,-0.122,2328064
0.004,0.346,0.93,-0.183,2328068
0.004,0.346,0.93,-0.061,2328072
0.004,0.346,0.93,-0.061,2328076
0.002,0.354,0.945,-0.305,2328080
0.002,0.354,0.945,-0.305,2328084
0.005,0.343,0.926,0.0,2328088
0.005,0.343,0.926,-0.183,2328092
0.005,0.343,0.926,-0.183,2328096
0.002,0.346,0.927,-0.183,2328100
0.002,0.346,0.927,-0.183,2328104
0.001,0.345,0.93,-0.305,2328108
0.001,0.345,0.93,-0.305,2328112
0.001,0.345,0.93,-0.305,2328116
0.001,0.351,0.94,-0.305,2328120
0.001,0.351,0.94,-0.183,2328124
0.004,0.344,0.926,-0.244,2328128
0.004,0.344,0.926,-0.244,2328132
0.004,0.344,0.926,-0.244,2328136
0.002,0.345,0.927,-0.183,2328140
0.002,0.345,0.927,-0.244,2328144
0.002,0.348,0.936,-0.183,2328148
0.002,0.348,0.936,-0.061,2328152
0.002,0.348,0.936,-0.061,2328156
0.002,0.349,0.94,-0.183,2328160
0.002,0.349,0.94,-0.122,2328164
0.002,0.342,0.927,-0.122,2328168
0.002,0.342,0.927,-0.183,2328172
0.002,0.342,0.927,-0.183,2328176
0.001,0.345,0.933,-0.244,2328180
0.001,0.345,0.933,-0.122,2328184
0.001,0.347,0.934,-0.244,2328188
0.001,0.347,0.934,-0.305,2328192
0.001,0.349,0.936,-0.061,2328195
0.001,0.349,0.936,-0.061,2328199
0.001,0.349,0.936,-0.061,2328203
0.001,0.342,0.925,-0.122,2328207
0.001,0.342,0.925,-0.122,2328211
0.0,0.347,0.928,-0.183,2328215
0.0,0.347,0.928,-0.183,2328219
0.0,0.347,0.928,-0.183,2328223
0.002,0.349,0.937,-0.183,2328227
0.002,0.349,0.937,-0.061,2328231
0.002,0.347,0.936,-0.183,2328235
0.002,0.347,0.936,-0.183,2328239
0.002,0.347,0.936,-0.183,2328243
0.001,0.341,0.924,-0.061,2328247
0.001,0.341,0.924,-0.061,2328251
0.001,0.349,0.93,-0.183,2328255
0.001,0.349,0.93,-0.183,2328259
0.001,0.349,0.93,-0.183,2328263
0.001,0.352,0.941,-0.183,2328267
0.001,0.352,0.941,-0.244,2328271
0.004,0.348,0.929,-0.061,2328275
0.004,0.348,0.929,-0.061,2328279
0.004,0.348,0.929,-0.183,2328283
0.004,0.341,0.925,-0.244,2328287
0.004,0.341,0.925,-0.244,2328291
0.003,0.348,0.93,-0.061,2328295
0.003,0.348,0.93,-0.061,2328299
0.003,0.348,0.93,-0.183,2328303
0.004,0.353,0.946,-0.305,2328307
0.004,0.353,0.946,-0.305,2328311
0.004,0.344,0.926,-0.183,2328315
0.004,0.344,0.926,-0.183,2328319
0.004,0.344,0.926,-0.183,2328323
0.005,0.342,0.926,-0.183,2328327
0.005,0.342,0.926,-0.183,2328331
0.003,0.346,0.933,-0.183,2328335
0.003,0.346,0.933,-0.183,2328339
0.003,0.346,0.933,-0.183,2328343
0.001,0.351,0.945,-0.183,2328347
0.001,0.351,0.945,-0.183,2328351
0.004,0.343,0.925,-0.305,2328355
0.004,0.343,0.925,-0.305,2328359
0.004,0.343,0.925,-0.244,2328363
0.004,0.344,0.929,-0.183,2328367
0.004,0.344,0.929,-0.122,2328370
0.003,0.347,0.931,-0.061,2328374
0.003,0.347,0.931,-0.061,2328378
0.003,0.347,0.931,-0.183,2328382
0.001,0.351,0.942,-0.305,2328386
0.001,0.351,0.942,-0.183,2328390
0.003,0.344,0.923,-0.061,2328394
0.003,0.344,0.923,-0.061,2328398
0.003,0.344,0.923,-0.183,2328402
0.001,0.344,0.927,-0.183,2328406
0.001,0.344,0.927,-0.061,2328410
0.003,0.348,0.937,-0.122,2328414
0.003,0.348,0.937,-0.122,2328418
0.003,0.348,0.937,-0.244,2328422
0.001,0.35,0.941,-0.183,2328426
0.001,0.35,0.941,-0.122,2328430
0.001,0.344,0.925,-0.061,2328434
0.001,0.344,0.925,-0.061,2328438
0.001,0.344,0.925,-0.183,2328442
0.001,0.342,0.928,-0.183,2328446
0.001,0.342,0.928,-0.244,2328450
-0.002,0.347,0.935,-0.244,2328454
-0.002,0.347,0.935,-0.244,2328458
-0.002,0.347,0.935,-0.305,2328462
-0.0,0.349,0.937,-0.366,2328466
-0.0,0.349,0.937,-0.244,2328470
0.0,0.341,0.922,-0.183,2328474
0.0,0.341,0.922,-0.183,2328478
0.0,0.341,0.922,-0.183,2328482
0.004,0.344,0.926,-0.122,2328486
0.004,0.344,0.926,-0.183,2328490
0.002,0.351,0.94,-0.183,2328494
0.002,0.351,0.94,-0.183,2328498
0.002,0.351,0.94,-0.244,2328502
0.002,0.35,0.937,-0.183,2328506
0.002,0.35,0.937,-0.061,2328510
0.003,0.34,0.925,-0.183,2328513
0.003,0.34,0.925,-0.183,2328517
0.003,0.34,0.925,-0.122,2328521
0.002,0.346,0.927,-0.061,2328525
0.002,0.346,0.927,-0.305,2328529
0.001,0.354,0.941,-0.183,2328533
0.001,0.354,0.941,-0.183,2328537
0.001,0.354,0.941,-0.122,2328541
0.003,0.349,0.934,-0.305,2328545
0.003,0.349,0.934,-0.183,2328549
0.003,0.344,0.926,-0.183,2328553
0.003,0.344,0.926,-0.183,2328557
0.003,0.344,0.926,-0.183,2328561
0.005,0.348,0.929,-0.183,2328565
0.005,0.348,0.929,-0.183,2328569
0.001,0.354,0.943,-0.183,2328573
0.001,0.354,0.943,-0.183,2328577
0.001,0.354,0.943,-0.305,2328581
0.001,0.347,0.932,-0.305,2328585
0.001,0.347,0.932,-0.366,2328589
0.003,0.344,0.925,-0.244,2328593
0.003,0.344,0.925,-0.244,2328597
0.003,0.344,0.925,-0.183,2328601
0.004,0.346,0.93,-0.061,2328605
0.004,0.346,0.93,-0.061,2328609
0.001,0.352,0.945,-0.122,2328613
0.001,0.352,0.945,-0.122,2328617
0.001,0.352,0.945,-0.244,2328621
0.003,0.344,0.934,-0.244,2328625
0.003,0.344,0.934,-0.244,2328629
0.003,0.342,0.926,-0.183,2328633
0.003,0.342,0.926,-0.183,2328637
0.003,0.342,0.926,-0.183,2328641
0.004,0.347,0.935,-0.122,2328645
0.004,0.347,0.935,-0.183,2328649
0.002,0.347,0.944,-0.244,2328653
0.002,0.347,0.944,-0.244,2328657
0.002,0.347,0.944,-0.244,2328661
0.003,0.343,0.927,-0.244,2328665
0.003,0.343,0.927,-0.183,2328669
0.0,0.342,0.926,-0.183,2328673
0.0,0.342,0.926,-0.244,2328677
0.0,0.342,0.926,-0.244,2328681
0.002,0.348,0.934,-0.122,2328685
0.002,0.348,0.934,-0.122,2328689
0.001,0.349,0.943,-0.183,2328693
0.001,0.349,0.943,-0.244,2328696
0.001,0.349,0.943,-0.244,2328700
0.001,0.345,0.924,-0.244,2328704
0.001,0.345,0.924,-0.122,2328708
0.001,0.345,0.922,-0.061,2328712
0.001,0.345,0.922,-0.183,2328716
0.001,0.345,0.922,-0.183,2328720
0.0,0.35,0.934,-0.061,2328724
0.0,0.35,0.934,-0.061,2328728
0.002,0.353,0.944,-0.244,2328732
0.002,0.353,0.944,-0.244,2328736
0.002,0.353,0.944,-0.244,2328740
0.002,0.345,0.926,-0.244,2328744
0.002,0.345,0.926,-0.122,2328748
0.001,0.344,0.924,-0.122,2328752
0.001,0.344,0.924,-0.183,2328756
0.001,0.344,0.924,-0.183,2328760
0.002,0.351,0.936,-0.183,2328764
0.002,0.351,0.936,-0.183,2328768
0.0,0.352,0.939,-0.183,2328772
0.0,0.352,0.939,-0.122,2328776
0.0,0.352,0.939,-0.122,2328780
0.0,0.345,0.923,-0.122,2328784
0.0,0.345,0.923,-0.366,2328788
0.001,0.345,0.926,-0.305,2328792
0.001,0.345,0.926,-0.305,2328796
0.001,0.345,0.926,-0.305,2328800
0.003,0.351,0.941,-0.305,2328804
0.003,0.351,0.941,-0.244,2328808
0.002,0.349,0.939,-0.305,2328812
0.002,0.349,0.939,-0.122,2328816
0.002,0.349,0.939,-0.122,2328820
0.003,0.343,0.925,-0.183,2328824
0.003,0.343,0.925,-0.244,2328828
0.002,0.345,0.928,-0.183,2328832
0.002,0.345,0.928,-0.122,2328836
0.002,0.345,0.928,-0.122,2328840
0.003,0.349,0.939,-0.305,2328844
0.003,0.349,0.939,-0.183,2328848
0.003,0.346,0.937,-0.122,2328852
0.003,0.346,0.937,-0.122,2328856
0.003,0.346,0.937,-0.122,2328860
0.003,0.341,0.926,-0.183,2328863
0.003,0.341,0.926,-0.122,2328867
0.005,0.345,0.93,-0.122,2328871
0.005,0.345,0.93,-0.305,2328875
0.005,0.345,0.93,-0.305,2328879
0.002,0.348,0.94,-0.305,2328883
0.002,0.348,0.94,-0.244,2328887
0.003,0.346,0.933,-0.183,2328891
0.003,0.346,0.933,-0.122,2328895
0.003,0.346,0.933,-0.122,2328899
0.004,0.342,0.924,-0.183,2328903
0.004,0.342,0.924,-0.244,2328907
0.001,0.347,0.931,-0.183,2328911
0.001,0.347,0.931,-0.061,2328915
0.001,0.347,0.931,-0.061,2328919
0.002,0.351,0.943,-0.122,2328923
0.002,0.351,0.943,-0.183,2328927
0.004,0.344,0.93,-0.122,2328931
0.004,0.344,0.93,-0.183,2328935
0.004,0.344,0.93,-0.183,2328939
0.003,0.343,0.927,-0.183,2328943
0.003,0.343,0.927,-0.244,2328947
0.001,0.348,0.929,-0.122,2328951
0.001,0.348,0.929,-0.305,2328955
0.001,0.348,0.929,-0.305,2328959
0.002,0.352,0.94,-0.244,2328963
0.002,0.352,0.94,-0.305,2328967
0.003,0.343,0.926,-0.305,2328971
0.003,0.343,0.926,-0.244,2328975
0.003,0.343,0.926,-0.244,2328979
0.001,0.344,0.927,-0.122,2328983
0.001,0.344,0.927,-0.122,2328987
0.001,0.348,0.932,0.0,2328991
0.001,0.348,0.932,-0.122,2328995
0.001,0.348,0.932,-0.122,2328999
-0.001,0.351,0.94,-0.244,2329003
-0.001,0.351,0.94,-0.183,2329007
0.001,0.344,0.924,-0.183,2329011
0.001,0.344,0.924,-0.183,2329014
0.001,0.344,0.924,-0.183,2329018
0.0,0.346,0.927,-0.183,2329022
0.0,0.346,0.927,-0.183,2329026
0.003,0.349,0.935,-0.183,2329030
0.003,0.349,0.935,-0.061,2329034
0.003,0.349,0.935,-0.061,2329038
0.001,0.349,0.935,-0.244,2329042
0.001,0.349,0.935,-0.183,2329046
0.004,0.347,0.927,-0.183,2329050
0.004,0.347,0.927,-0.183,2329054
0.004,0.347,0.927,-0.183,2329058
0.003,0.347,0.929,-0.305,2329062
0.003,0.347,0.929,-0.244,2329066
0.004,0.347,0.936,-0.122,2329070
0.004,0.347,0.936,-0.183,2329074
0.004,0.347,0.936,-0.183,2329078
0.003,0.346,0.933,-0.305,2329082
0.003,0.346,0.933,-0.244,2329086
0.002,0.344,0.929,-0.244,2329090
0.002,0.344,0.929,-0.305,2329094
0.002,0.344,0.929,-0.305,2329098
0.004,0.345,0.93,-0.305,2329102
0.004,0.345,0.93,-0.122,2329106
0.004,0.347,0.939,-0.244,2329110
0.004,0.347,0.939,-0.183,2329114
0.004,0.347,0.939,-0.183,2329118
0.004,0.345,0.934,-0.122,2329122
0.004,0.345,0.934,-0.061,2329126
0.001,0.344,0.93,-0.244,2329130
0.001,0.344,0.93,-0.122,2329134
0.001,0.344,0.93,-0.122,2329138
0.004,0.344,0.93,-0.061,2329142
0.004,0.344,0.93,-0.122,2329146
0.005,0.347,0.939,-0.122,2329150
0.005,0.347,0.939,-0.244,2329154
0.005,0.347,0.939,-0.244,2329158
0.004,0.345,0.93,-0.183,2329162
0.004,0.345,0.93,-0.183,2329166
0.002,0.345,0.929,0.0,2329170
0.002,0.345,0.929,-0.122,2329173
0.002,0.345,0.929,-0.122,2329177
0.002,0.346,0.929,-0.061,2329181
0.002,0.346,0.929,-0.122,2329185
0.002,0.352,0.942,-0.244,2329189
0.002,0.352,0.942,-0.305,2329193
0.002,0.352,0.942,-0.305,2329197
0.002,0.346,0.928,-0.183,2329201
0.002,0.346,0.928,-0.122,2329205
0.001,0.345,0.927,-0.244,2329209
0.001,0.345,0.927,-0.061,2329213
0.001,0.351,0.932,-0.122,2329217
0.001,0.351,0.932,-0.122,2329221
0.001,0.351,0.932,-0.122,2329225
0.0,0.353,0.939,-0.183,2329229
0.0,0.353,0.939,-0.244,2329233
0.003,0.347,0.926,-0.183,2329237
0.003,0.347,0.926,-0.183,2329241
0.003,0.347,0.926,-0.122,2329245
0.001,0.348,0.93,-0.183,2329249
0.001,0.348,0.93,-0.061,2329253
0.001,0.349,0.934,-0.183,2329257
0.001,0.349,0.934,-0.183,2329261
0.001,0.349,0.934,-0.244,2329265
-0.001,0.351,0.936,-0.183,2329269
-0.001,0.351,0.936,-0.244,2329273
-0.0,0.345,0.925,-0.122,2329277
-0.0,0.345,0.925,-0.122,2329281
-0.0,0.345,0.925,-0.183,2329285
-0.002,0.347,0.928,-0.183,2329289
-0.002,0.347,0.928,-0.183,2329293
0.002,0.349,0.936,-0.244,2329297
0.002,0.349,0.936,-0.244,2329301
0.002,0.349,0.936,-0.305,2329305
-0.0,0.349,0.935,-0.305,2329309
-0.0,0.349,0.935,-0.244,2329313
0.0,0.343,0.925,-0.122,2329317
0.0,0.343,0.925,-0.122,2329321
0.0,0.343,0.925,-0.305,2329325
0.002,0.346,0.931,-0.122,2329329
0.002,0.346,0.931,-0.183,2329333
0.002,0.349,0.939,-0.305,2329337
0.002,0.349,0.939,-0.305,2329341
0.002,0.349,0.939,-0.183,2329345
0.003,0.347,0.935,-0.183,2329349
0.003,0.347,0.935,-0.183,2329353
0.004,0.342,0.926,-0.122,2329357
0.004,0.342,0.926,-0.122,2329361
0.004,0.342,0.926,-0.183,2329364
0.003,0.347,0.933,-0.244,2329368
0.003,0.347,0.933,-0.305,2329372
0.003,0.35,0.941,-0.122,2329376
0.003,0.35,0.941,-0.122,2329380
0.003,0.35,0.941,-0.244,2329384
0.004,0.347,0.932,-0.305,2329388
0.004,0.347,0.932,-0.122,2329392
0.003,0.341,0.926,-0.122,2329396
0.003,0.341,0.926,-0.122,2329400
0.003,0.341,0.926,-0.244,2329404
0.001,0.347,0.93,-0.183,2329408
0.001,0.347,0.93,-0.061,2329412
0.004,0.351,0.944,-0.183,2329416
0.004,0.351,0.944,-0.183,2329420
0.004,0.351,0.944,-0.305,2329424
0.004,0.345,0.93,-0.366,2329428
0.004,0.345,0.93,-0.183,2329432
0.005,0.341,0.927,-0.183,2329436
0.005,0.341,0.927,-0.183,2329440
0.005,0.341,0.927,-0.305,2329444
0.004,0.346,0.929,-0.244,2329448
0.004,0.346,0.929,-0.061,2329452
0.002,0.353,0.943,-0.122,2329456
0.002,0.353,0.943,-0.122,2329460
0.002,0.353,0.943,-0.244,2329464
0.002,0.346,0.929,-0.122,2329468
0.002,0.346,0.929,-0.183,2329472
0.003,0.343,0.923,-0.183,2329476
0.003,0.343,0.923,-0.183,2329480
0.003,0.343,0.923,-0.183,2329484
0.001,0.347,0.928,-0.183,2329488
0.001,0.347,0.928,-0.122,2329492
-0.002,0.353,0.942,-0.244,2329496
-0.002,0.353,0.942,-0.244,2329500
-0.002,0.353,0.942,-0.244,2329504
-0.0,0.347,0.924,-0.244,2329508
-0.0,0.347,0.924,-0.244,2329512
-0.002,0.343,0.919,-0.122,2329516
-0.002,0.343,0.919,-0.122,2329520
-0.002,0.343,0.919,0.0,2329524
-0.004,0.349,0.93,0.122,2329528
-0.004,0.349,0.93,-0.061,2329531
-0.006,0.354,0.942,-0.122,2329535
-0.006,0.354,0.942,-0.122,2329539
-0.006,0.354,0.942,-0.061,2329543
-0.0,0.347,0.929,-0.183,2329547
-0.0,0.347,0.929,-0.244,2329551
0.001,0.343,0.924,-0.183,2329555
0.001,0.343,0.924,-0.183,2329559
0.001,0.343,0.924,-0.183,2329563
0.001,0.349,0.934,-0.244,2329567
0.001,0.349,0.934,-0.183,2329571
0.0,0.352,0.943,-0.244,2329575
0.0,0.352,0.943,-0.244,2329579
0.0,0.352,0.943,-0.244,2329583
0.001,0.345,0.925,-0.244,2329587
0.001,0.345,0.925,-0.305,2329591
0.003,0.342,0.924,-0.244,2329595
0.003,0.342,0.924,-0.244,2329599
0.003,0.342,0.924,-0.244,2329603
0.003,0.344,0.934,-0.183,2329607
0.003,0.344,0.934,-0.305,2329611
0.004,0.345,0.941,-0.305,2329615
0.004,0.345,0.941,-0.305,2329619
0.004,0.345,0.941,-0.366,2329623
0.007,0.341,0.931,-0.305,2329627
0.007,0.341,0.931,-0.122,2329631
0.007,0.343,0.934,-0.061,2329635
0.007,0.343,0.934,-0.061,2329639
0.007,0.343,0.934,-0.122,2329643
0.006,0.345,0.941,0.0,2329647
0.006,0.345,0.941,-0.366,2329651
0.007,0.344,0.935,-0.183,2329655
0.007,0.344,0.935,-0.183,2329659
0.007,0.344,0.935,-0.122,2329663
0.006,0.342,0.926,0.0,2329666
0.006,0.342,0.926,-0.122,2329670
0.004,0.347,0.929,-0.122,2329674
0.004,0.347,0.929,-0.122,2329678
0.004,0.347,0.929,-0.244,2329682
0.003,0.352,0.94,-0.122,2329686
0.003,0.352,0.94,-0.183,2329690
0.004,0.349,0.93,-0.183,2329694
0.004,0.349,0.93,-0.183,2329698
0.004,0.349,0.93,-0.244,2329702
0.004,0.349,0.925,0.0,2329706
0.004,0.349,0.925,-0.061,2329710
0.0,0.351,0.928,-0.122,2329714
0.0,0.351,0.928,-0.122,2329718
0.0,0.351,0.928,-0.122,2329722
-0.001,0.355,0.937,-0.305,2329726
-0.001,0.355,0.937,-0.244,2329730
-0.003,0.349,0.926,-0.183,2329734
-0.003,0.349,0.926,-0.183,2329738
-0.003,0.349,0.926,-0.122,2329742
-0.001,0.349,0.928,-0.244,2329746
-0.001,0.349,0.928,-0.244,2329750
-0.001,0.351,0.928,-0.244,2329754
-0.001,0.351,0.928,-0.244,2329758
-0.001,0.351,0.928,-0.305,2329762
-0.002,0.351,0.935,-0.305,2329766
-0.002,0.351,0.935,-0.244,2329770
-0.0,0.344,0.928,-0.183,2329774
-0.0,0.344,0.928,-0.183,2329778
-0.0,0.344,0.928,-0.305,2329782
-0.002,0.344,0.932,-0.305,2329786
-0.002,0.344,0.932,-0.244,2329790
-0.002,0.345,0.935,-0.122,2329794
-0.002,0.345,0.935,-0.122,2329798
-0.002,0.345,0.935,-0.122,2329802
0.001,0.343,0.938,-0.305,2329806
0.001,0.343,0.938,-0.305,2329810
0.001,0.34,0.928,-0.244,2329814
0.001,0.34,0.928,-0.244,2329818
0.001,0.34,0.928,-0.244,2329822
0.002,0.341,0.931,-0.244,2329825
0.002,0.341,0.931,-0.305,2329829
0.002,0.343,0.935,-0.244,2329833
0.002,0.343,0.935,-0.122,2329837
0.002,0.343,0.935,-0.122,2329841
0.005,0.347,0.94,-0.183,2329845
0.005,0.347,0.94,-0.244,2329849
0.005,0.344,0.928,-0.183,2329853
0.005,0.344,0.928,-0.061,2329857
0.005,0.344,0.928,-0.061,2329861
0.005,0.344,0.93,-0.122,2329865
0.005,0.344,0.93,-0.122,2329869
0.004,0.35,0.937,-0.061,2329873
0.004,0.35,0.937,-0.122,2329877
0.004,0.35,0.937,-0.122,2329881
0.006,0.35,0.941,-0.122,2329885
0.006,0.35,0.941,-0.122,2329889
0.007,0.342,0.924,-0.305,2329893
0.007,0.342,0.924,-0.427,2329897
0.007,0.342,0.924,-0.427,2329901
0.005,0.345,0.929,-0.183,2329905
0.005,0.345,0.929,-0.305,2329909
0.005,0.352,0.938,-0.183,2329913
0.005,0.352,0.938,-0.183,2329917
0.005,0.352,0.938,-0.183,2329921
0.006,0.351,0.935,-0.305,2329925
0.006,0.351,0.935,-0.244,2329929
0.005,0.346,0.929,-0.244,2329933
0.005,0.346,0.929,-0.305,2329937
0.005,0.346,0.929,-0.305,2329941
0.004,0.348,0.929,-0.244,2329945
0.004,0.348,0.929,-0.183,2329949
0.003,0.354,0.939,-0.244,2329953
0.003,0.354,0.939,-0.183,2329957
0.003,0.354,0.939,-0.183,2329961
0.002,0.351,0.931,-0.244,2329965
0.002,0.351,0.931,-0.305,2329969
0.002,0.348,0.927,-0.366,2329973
0.002,0.348,0.927,-0.183,2329977
0.002,0.348,0.927,-0.183,2329981
0.004,0.349,0.929,-0.183,2329985
0.004,0.349,0.929,-0.305,2329989
0.001,0.353,0.939,-0.244,2329993
0.001,0.353,0.939,-0.305,2329997
0.001,0.353,0.939,-0.305,2330001
0.004,0.347,0.929,-0.122,2330005
0.004,0.347,0.929,-0.244,2330009
0.0,0.346,0.928,-0.488,2330013
0.0,0.346,0.928,-0.244,2330017
0.0,0.346,0.928,-0.244,2330021
-0.001,0.346,0.934,-0.244,2330024
-0.001,0.346,0.934,-0.183,2330028
-0.001,0.345,0.938,-0.244,2330032
-0.001,0.345,0.938,-0.305,2330036
-0.001,0.345,0.938,-0.305,2330040
0.001,0.34,0.929,-0.244,2330044
0.001,0.34,0.929,-0.244,2330048
-0.003,0.34,0.93,-0.122,2330052
-0.003,0.34,0.93,0.0,2330056
-0.003,0.34,0.93,0.0,2330060
-0.0,0.345,0.939,-0.061,2330064
-0.0,0.345,0.939,-0.122,2330068
0.0,0.343,0.942,-0.183,2330072
0.0,0.343,0.942,0.061,2330076
0.0,0.343,0.942,0.061,2330080
0.001,0.337,0.927,0.0,2330084
0.001,0.337,0.927,-0.183,2330088
-0.002,0.342,0.926,-0.122,2330092
-0.002,0.342,0.926,-0.061,2330096
-0.002,0.342,0.926,-0.061,2330100
-0.003,0.351,0.935,-0.061,2330104
-0.003,0.351,0.935,-0.122,2330108
-0.001,0.353,0.937,-0.122,2330112
-0.001,0.353,0.937,-0.122,2330116
-0.001,0.353,0.937,-0.122,2330120
-0.001,0.346,0.925,-0.122,2330124
-0.001,0.346,0.925,-0.244,2330128
0.001,0.349,0.923,-0.183,2330132
0.001,0.349,0.923,-0.122,2330136
0.001,0.349,0.923,-0.122,2330140
-0.001,0.356,0.937,-0.305,2330143
-0.001,0.356,0.937,-0.244,2330147
0.003,0.356,0.934,-0.183,2330151
0.003,0.356,0.934,-0.305,2330155
0.003,0.356,0.934,-0.305,2330159
0.004,0.349,0.923,-0.183,2330163
0.004,0.349,0.923,-0.305,2330167
0.005,0.349,0.923,-0.305,2330171
0.005,0.349,0.923,-0.183,2330175
0.005,0.349,0.923,-0.183,2330179
0.003,0.357,0.94,-0.244,2330183
0.003,0.357,0.94,-0.366,2330187
0.005,0.352,0.935,-0.427,2330191
0.005,0.352,0.935,-0.366,2330195
0.005,0.352,0.935,-0.366,2330199
0.008,0.344,0.929,-0.366,2330203
0.008,0.344,0.929,-0.244,2330207
0.005,0.343,0.927,-0.183,2330211
0.005,0.343,0.927,-0.183,2330215
0.005,0.343,0.927,-0.183,2330219
0.004,0.35,0.944,-0.183,2330223
0.004,0.35,0.944,-0.244,2330227
0.005,0.343,0.934,-0.244,2330231
0.005,0.343,0.934,-0.183,2330235
0.005,0.343,0.934,-0.183,2330239
0.004,0.341,0.93,-0.122,2330243
0.004,0.341,0.93,-0.244,2330247
0.006,0.341,0.93,-0.122,2330251
0.006,0.341,0.93,-0.122,2330255
0.006,0.341,0.93,-0.122,2330259
0.003,0.346,0.943,-0.183,2330263
0.003,0.346,0.943,-0.244,2330267
0.007,0.341,0.934,-0.183,2330271
0.007,0.341,0.934,-0.183,2330275
0.007,0.341,0.934,-0.183,2330279
0.004,0.34,0.929,-0.122,2330283
0.004,0.34,0.929,-0.061,2330287
0.005,0.342,0.933,-0.183,2330291
0.005,0.342,0.933,-0.122,2330295
0.005,0.342,0.933,-0.122,2330299
0.002,0.346,0.941,-0.183,2330303
0.002,0.346,0.941,-0.244,2330307
0.003,0.34,0.929,-0.183,2330311
0.003,0.34,0.929,-0.244,2330315
0.003,0.343,0.93,-0.305,2330319
0.003,0.343,0.93,-0.305,2330322
0.003,0.343,0.93,-0.366,2330326
0.0,0.348,0.93,-0.366,2330330
0.0,0.348,0.93,-0.244,2330334
0.001,0.351,0.943,-0.305,2330338
0.001,0.351,0.943,-0.305,2330342
0.001,0.351,0.943,-0.305,2330346
0.001,0.342,0.922,-0.244,2330350
0.001,0.342,0.922,-0.244,2330354
0.01,0.341,0.904,-1.404,2330358
0.01,0.341,0.904,-1.404,2330362
0.01,0.341,0.904,-5.493,2330366
-0.007,0.379,0.94,-2.869,2330370
-0.007,0.379,0.94,5.31,2330374
-0.01,0.331,0.96,0.183,2330378
-0.01,0.331,0.96,0.183,2330382
-0.01,0.331,0.96,-2.38,2330386
0.004,0.346,0.917,-3.418,2330390
0.004,0.346,0.917,-1.038,2330394
-0.005,0.348,0.926,-0.122,2330398
-0.005,0.348,0.926,-0.122,2330402
-0.005,0.348,0.926,-0.244,2330406
-0.001,0.357,0.936,0.0,2330410
-0.001,0.357,0.936,-0.183,2330414
0.0,0.351,0.938,-0.244,2330418
0.0,0.351,0.938,-0.244,2330422
0.0,0.351,0.938,-0.244,2330426
0.0,0.347,0.924,-0.122,2330430
0.0,0.347,0.924,-0.061,2330434
0.0,0.347,0.924,-0.061,2330437
-0.0,0.347,0.925,0.122,2330441
-0.0,0.347,0.925,0.0,2330445
-0.004,0.354,0.936,-0.244,2330449
-0.004,0.354,0.936,-0.244,2330453
-0.004,0.354,0.936,-0.244,2330457
-0.003,0.349,0.934,-0.183,2330461
-0.003,0.349,0.934,-0.183,2330465
-0.004,0.345,0.925,-0.122,2330469
-0.004,0.345,0.925,-0.244,2330473
-0.004,0.345,0.925,-0.244,2330477
-0.003,0.345,0.924,-0.183,2330481
-0.003,0.345,0.924,-0.183,2330485
-0.002,0.348,0.939,-0.183,2330489
-0.002,0.348,0.939,-0.122,2330493
-0.001,0.342,0.932,-0.366,2330497
-0.001,0.342,0.932,-0.366,2330501
-0.001,0.342,0.932,-0.244,2330505
-0.002,0.339,0.934,-0.122,2330509
-0.002,0.339,0.934,-0.122,2330513
0.0,0.34,0.936,-0.122,2330517
0.0,0.34,0.936,-0.122,2330521
0.0,0.34,0.936,-0.061,2330525
0.002,0.34,0.943,0.0,2330529
0.002,0.34,0.943,-0.122,2330533
0.003,0.336,0.934,0.0,2330537
0.003,0.336,0.934,0.0,2330541
0.003,0.336,0.934,0.122,2330545
0.003,0.335,0.935,0.122,2330549
0.003,0.335,0.935,0.0,2330552
0.003,0.335,0.935,0.0,2330556
0.002,0.338,0.934,0.061,2330560
0.002,0.338,0.934,-0.061,2330564
0.004,0.344,0.945,-0.061,2330568
0.004,0.344,0.945,0.0,2330572
0.004,0.344,0.945,0.0,2330576
0.007,0.341,0.931,-0.122,2330580
0.007,0.341,0.931,0.0,2330584
0.006,0.344,0.931,0.061,2330588
0.006,0.344,0.931,-0.061,2330592
0.006,0.344,0.931,-0.061,2330596
0.001,0.35,0.931,-0.061,2330600
0.001,0.35,0.931,-0.122,2330604
0.006,0.356,0.943,-0.305,2330608
0.006,0.356,0.943,-0.183,2330612
0.006,0.356,0.943,-0.183,2330616
0.007,0.35,0.929,-0.122,2330620
0.007,0.35,0.929,-0.305,2330624
0.008,0.351,0.927,-0.366,2330628
0.008,0.351,0.927,-0.366,2330632
0.008,0.351,0.927,-0.366,2330636
0.007,0.351,0.929,-0.244,2330640
0.007,0.351,0.929,-0.305,2330644
0.004,0.354,0.939,-0.366,2330648
0.004,0.354,0.939,-0.305,2330652
0.004,0.354,0.939,-0.305,2330656
0.004,0.346,0.93,-0.244,2330660
0.004,0.346,0.93,-0.183,2330664
0.002,0.348,0.929,-0.305,2330668
0.002,0.348,0.929,0.244,2330672
0.002,0.348,0.929,0.244,2330675
-0.008,0.355,0.939,3.235,2330679
-0.008,0.355,0.939,4.517,2330683
-0.006,0.336,0.947,2.38,2330687
-0.006,0.336,0.947,0.61,2330691
-0.006,0.336,0.947,0.61,2330695
0.014,0.335,0.913,-4.333,2330699
0.014,0.335,0.913,-3.601,2330703
-0.003,0.364,0.92,0.488,2330707
-0.003,0.364,0.92,0.0,2330711
-0.003,0.364,0.92,0.0,2330715
-0.007,0.347,0.939,-0.122,2330719
-0.007,0.347,0.939,-0.061,2330723
-0.006,0.348,0.935,-0.122,2330727
-0.006,0.348,0.935,-0.061,2330731
-0.006,0.348,0.935,-0.061,2330735
-0.007,0.342,0.923,0.0,2330739
-0.007,0.342,0.923,0.0,2330743
-0.009,0.348,0.928,-0.061,2330747
-0.009,0.348,0.928,-0.061,2330751
-0.009,0.348,0.928,-0.061,2330755
-0.01,0.35,0.937,0.0,2330759
-0.01,0.35,0.937,-0.061,2330762
-0.005,0.344,0.936,-0.061,2330766
-0.005,0.344,0.936,-0.061,2330770
-0.005,0.344,0.936,-0.061,2330774
-0.007,0.34,0.925,0.061,2330778
-0.007,0.34,0.925,-0.244,2330782
-0.007,0.344,0.922,-0.244,2330786
-0.007,0.344,0.922,-0.122,2330790
-0.007,0.344,0.922,-0.122,2330794
-0.006,0.349,0.941,-0.122,2330798
-0.006,0.349,0.941,-0.122,2330802
-0.003,0.347,0.934,-0.244,2330806
-0.003,0.347,0.934,-0.183,2330810
-0.003,0.347,0.934,-0.183,2330814
0.002,0.341,0.928,-0.061,2330818
0.002,0.341,0.928,-0.122,2330822
-0.001,0.344,0.927,-0.244,2330826
-0.001,0.344,0.927,-0.244,2330830
-0.001,0.344,0.927,-0.244,2330834
0.006,0.352,0.944,-0.244,2330838
0.006,0.352,0.944,-0.244,2330842
0.004,0.355,0.928,-0.366,2330846
0.004,0.355,0.928,-7.08,2330850
0.004,0.355,0.928,-7.08,2330854
-0.018,0.533,0.859,-46.082,2330858
-0.018,0.533,0.859,-130.615,2330862
0.058,0.316,0.952,-150.94,2330866
0.058,0.316,0.952,-23.56,2330870
0.017,0.16,0.96,65.308,2330874
0.017,0.16,0.96,65.308,2330878
0.017,0.16,0.96,113.586,2330882
0.167,0.344,1.009,54.81,2330886
0.167,0.344,1.009,-23.01,2330890
0.125,0.255,0.998,-44.434,2330894
0.125,0.255,0.998,-44.434,2330898
0.125,0.255,0.998,-29.602,2330902
-0.109,0.396,0.856,3.235,2330906
-0.109,0.396,0.856,26.184,2330910
0.042,0.159,0.953,31.067,2330914
0.042,0.159,0.953,31.067,2330918
0.042,0.159,0.953,9.399,2330922
0.15,0.185,1.002,-9.216,2330926
0.15,0.185,1.002,3.54,2330930
0.031,0.349,0.929,9.888,2330934
0.031,0.349,0.929,9.888,2330938
0.031,0.349,0.929,11.841,2330942
0.04,0.33,0.956,15.198,2330946
0.04,0.33,0.956,19.775,2330950
0.068,0.318,0.94,15.381,2330954
0.068,0.318,0.94,15.381,2330958
0.068,0.318,0.94,3.052,2330962
0.044,0.32,0.92,-1.709,2330966
0.044,0.32,0.92,-0.549,2330970
0.041,0.305,0.953,-0.244,2330974
0.041,0.305,0.953,-0.244,2330978
0.041,0.305,0.953,-0.427,2330982
0.04,0.312,0.947,-0.183,2330986
0.04,0.312,0.947,-0.183,2330990
0.033,0.322,0.94,-0.427,2330994
0.033,0.322,0.94,-0.427,2330998
0.033,0.322,0.94,-0.732,2331002
0.04,0.3,0.943,-0.427,2331006
0.04,0.3,0.943,-0.183,2331010
0.038,0.307,0.945,-0.183,2331014
0.038,0.307,0.945,-0.183,2331018
0.038,0.307,0.945,-0.305,2331022
0.032,0.314,0.943,-0.427,2331026
0.032,0.314,0.943,-0.427,2331030
0.039,0.304,0.952,-0.183,2331034
0.039,0.304,0.952,-0.183,2331038
0.039,0.304,0.952,-0.244,2331042
0.033,0.311,0.935,-0.305,2331046
0.033,0.311,0.935,-0.427,2331050
0.039,0.305,0.944,-0.488,2331054
0.039,0.305,0.944,-0.305,2331058
0.039,0.305,0.944,-0.305,2331062
0.044,0.304,0.956,-0.305,2331066
0.044,0.304,0.956,-0.366,2331069
0.042,0.307,0.942,-0.427,2331073
0.042,0.307,0.942,-0.305,2331077
0.042,0.307,0.942,-0.305,2331081
0.048,0.301,0.944,-0.366,2331085
0.048,0.301,0.944,-0.244,2331089
0.046,0.302,0.948,-0.183,2331093
0.046,0.302,0.948,-0.305,2331097
0.046,0.302,0.948,-0.305,2331101
0.05,0.308,0.954,-0.305,2331105
0.05,0.308,0.954,-0.122,2331109
0.057,0.299,0.947,0.0,2331113
0.057,0.299,0.947,0.061,2331117
0.057,0.299,0.947,0.061,2331121
0.054,0.304,0.946,-0.061,2331125
0.054,0.304,0.946,-0.061,2331129
0.052,0.308,0.945,0.0,2331133
0.052,0.308,0.945,-0.122,2331137
0.052,0.308,0.945,-0.122,2331141
0.057,0.307,0.959,0.0,2331145
0.057,0.307,0.959,0.122,2331149
0.056,0.305,0.943,0.061,2331153
0.056,0.305,0.943,0.061,2331157
0.056,0.305,0.943,0.061,2331161
0.048,0.31,0.937,-0.122,2331165
0.048,0.31,0.937,-0.183,2331169
0.056,0.307,0.949,-0.244,2331173
0.056,0.307,0.949,-0.244,2331177
0.056,0.307,0.949,-0.244,2331181
0.057,0.305,0.954,-0.122,2331185
0.057,0.305,0.954,-0.183,2331189
0.053,0.305,0.939,-0.122,2331193
0.053,0.305,0.939,-0.366,2331197
0.053,0.305,0.939,-0.366,2331201
0.051,0.305,0.938,-0.61,2331205
0.051,0.305,0.938,-0.61,2331209
0.061,0.292,0.954,-0.488,2331213
0.061,0.292,0.954,-2.014,2331217
0.061,0.292,0.954,-2.014,2331221
0.036,0.341,0.95,-10.254,2331225
0.036,0.341,0.95,-26.55,2331229
0.014,0.347,0.923,-35.828,2331233
0.014,0.347,0.923,-41.077,2331237
0.014,0.347,0.923,-41.077,2331241
0.063,0.283,0.941,-41.26,2331245
0.063,0.283,0.941,-32.654,2331249
0.087,0.246,0.96,-21.362,2331253
0.087,0.246,0.96,-13.977,2331257
0.087,0.246,0.96,-13.977,2331261
0.078,0.263,0.973,-2.991,2331265
0.078,0.263,0.973,0.793,2331269
0.05,0.296,0.94,-0.305,2331273
0.05,0.296,0.94,-0.488,2331277
0.05,0.296,0.94,-0.488,2331281
0.045,0.295,0.932,-0.244,2331285
0.045,0.295,0.932,-0.244,2331289
0.06,0.292,0.938,-0.488,2331293
0.06,0.292,0.938,-5.066,2331297
0.08,0.302,0.945,-11.719,2331301
0.08,0.302,0.945,-11.719,2331305
0.08,0.302,0.945,-14.16,2331309
0.052,0.304,0.953,-12.085,2331313
0.052,0.304,0.953,-12.573,2331317
0.042,0.293,0.94,-12.268,2331321
0.042,0.293,0.94,-12.268,2331325
0.042,0.293,0.94,-8.423,2331329
0.002,0.286,0.941,-2.258,2331333
0.002,0.286,0.941,0.244,2331337
0.035,0.315,0.95,0.0,2331341
0.035,0.315,0.95,0.0,2331344
0.035,0.315,0.95,0.366,2331348
0.037,0.319,0.948,2.258,2331352
0.037,0.319,0.948,2.563,2331356
0.041,0.306,0.932,0.0,2331360
0.041,0.306,0.932,0.0,2331364
0.041,0.306,0.932,-0.061,2331368
0.034,0.286,0.942,3.418,2331372
0.034,0.286,0.942,15.808,2331376
-0.013,0.273,0.936,30.396,2331380
-0.013,0.273,0.936,30.396,2331384
-0.013,0.273,0.936,34.668,2331388
-0.024,0.267,0.832,34.607,2331392
-0.024,0.267,0.832,36.316,2331396
0.051,0.444,1.042,48.279,2331400
0.051,0.444,1.042,48.279,2331404
0.051,0.444,1.042,31.494,2331408
0.085,0.382,0.964,-16.968,2331412
0.085,0.382,0.964,-25.024,2331416
-0.057,0.379,0.875,-0.854,2331420
-0.057,0.379,0.875,-0.854,2331424
-0.057,0.379,0.875,16.235,2331428
-0.015,0.333,0.93,7.935,2331432
-0.015,0.333,0.93,-0.122,2331436
0.027,0.293,1.036,-5.31,2331440
0.027,0.293,1.036,-5.31,2331444
0.027,0.293,1.036,-1.526,2331448
0.007,0.326,0.948,-4.578,2331452
0.007,0.326,0.948,-6.409,2331456
-0.01,0.351,0.872,-2.808,2331460
-0.01,0.351,0.872,-2.808,2331464
-0.01,0.351,0.872,0.61,2331468
-0.002,0.34,0.923,1.282,2331472
-0.002,0.34,0.923,0.854,2331476
0.001,0.333,0.942,1.221,2331480
0.001,0.333,0.942,1.221,2331484
0.001,0.333,0.942,2.93,2331488
0.007,0.333,0.914,2.258,2331492
0.007,0.333,0.914,0.427,2331496
0.005,0.32,0.976,1.526,2331500
0.005,0.32,0.976,1.526,2331503
0.005,0.32,0.976,-0.183,2331507
0.011,0.317,0.983,-2.319,2331511
0.011,0.317,0.983,-3.052,2331515
-0.003,0.343,0.917,-2.319,2331519
-0.003,0.343,0.917,-2.319,2331523
-0.003,0.343,0.917,-0.427,2331527
-0.002,0.342,0.902,-0.305,2331531
-0.002,0.342,0.902,-0.305,2331535
0.001,0.335,0.915,-0.122,2331539
0.001,0.335,0.915,-0.122,2331543
0.001,0.335,0.915,-0.122,2331547
-0.005,0.336,0.933,0.793,2331551
-0.005,0.336,0.933,2.319,2331555
0.001,0.329,0.96,0.488,2331559
0.001,0.329,0.96,0.488,2331563
0.001,0.329,0.96,-0.61,2331567
-0.003,0.331,0.958,-0.549,2331571
-0.003,0.331,0.958,-0.366,2331575
-0.002,0.335,0.926,-1.526,2331579
-0.002,0.335,0.926,-1.526,2331583
-0.002,0.335,0.926,-2.136,2331587
-0.009,0.343,0.906,-1.16,2331591
-0.009,0.343,0.906,-0.427,2331595
-0.008,0.342,0.929,0.061,2331599
-0.008,0.342,0.929,0.061,2331603
-0.008,0.342,0.929,0.0,2331607
-0.004,0.338,0.939,0.305,2331611
-0.004,0.338,0.939,0.549,2331615
-0.003,0.34,0.924,0.305,2331619
-0.003,0.34,0.924,0.305,2331623
-0.003,0.34,0.924,-0.061,2331627
-0.004,0.335,0.941,-0.305,2331631
-0.004,0.335,0.941,-0.427,2331635
-0.004,0.337,0.937,-0.549,2331639
-0.004,0.337,0.937,-0.549,2331643
-0.004,0.337,0.937,-0.671,2331647
-0.006,0.34,0.921,-0.61,2331650
-0.006,0.34,0.921,-0.427,2331654
-0.01,0.339,0.923,0.0,2331658
-0.01,0.339,0.923,0.0,2331662
-0.01,0.339,0.923,-0.061,2331666
-0.007,0.335,0.94,0.0,2331670
-0.007,0.335,0.94,-0.122,2331674
-0.007,0.338,0.935,-0.122,2331678
-0.007,0.338,0.935,-0.122,2331682
-0.007,0.338,0.935,0.122,2331686
-0.007,0.334,0.936,-0.061,2331690
-0.007,0.334,0.936,-0.183,2331694
-0.004,0.333,0.938,-0.244,2331698
-0.004,0.333,0.938,-0.244,2331702
-0.004,0.333,0.938,-0.305,2331706
-0.005,0.333,0.929,-0.244,2331710
-0.005,0.333,0.929,-0.122,2331714
-0.003,0.323,0.92,-0.183,2331718
-0.003,0.323,0.92,-0.183,2331722
-0.003,0.323,0.92,-0.305,2331726
-0.005,0.32,0.907,-0.244,2331730
-0.005,0.32,0.907,-0.061,2331734
-0.003,0.335,0.927,-0.061,2331738
-0.003,0.335,0.927,-0.061,2331742
-0.003,0.335,0.927,-0.061,2331746
0.002,0.344,0.96,0.305,2331750
0.002,0.344,0.96,0.61,2331754
0.011,0.326,0.949,0.0,2331757
0.011,0.326,0.949,0.0,2331761
0.011,0.326,0.949,-0.244,2331765
0.008,0.32,0.922,-0.122,2331769
0.008,0.32,0.922,-0.183,2331773
0.002,0.332,0.943,-0.244,2331777
0.002,0.332,0.943,-0.244,2331781
0.002,0.332,0.943,-0.122,2331785
-0.005,0.347,0.949,-0.122,2331789
-0.005,0.347,0.949,-0.366,2331793
-0.004,0.342,0.932,-0.244,2331797
-0.004,0.342,0.932,-0.244,2331801
-0.004,0.342,0.932,-0.061,2331805
0.003,0.33,0.929,-0.305,2331809
0.003,0.33,0.929,-0.244,2331813
0.004,0.335,0.933,-0.183,2331817
0.004,0.335,0.933,-0.183,2331821
0.004,0.335,0.933,-0.305,2331825
0.004,0.343,0.951,-0.244,2331829
0.004,0.343,0.951,-0.305,2331833
0.002,0.341,0.94,-0.305,2331837
0.002,0.341,0.94,-0.305,2331841
0.002,0.341,0.94,-0.244,2331845
-0.002,0.336,0.927,-0.366,2331849
-0.002,0.336,0.927,-0.488,2331853
-0.003,0.336,0.932,-0.244,2331857
-0.003,0.336,0.932,-0.244,2331861
-0.003,0.336,0.932,-0.183,2331865
-0.0,0.341,0.947,-0.244,2331869
-0.0,0.341,0.947,-0.305,2331873
0.0,0.339,0.942,-0.244,2331877
0.0,0.339,0.942,-0.244,2331881
0.0,0.339,0.942,-0.244,2331885
0.0,0.333,0.927,-0.183,2331889
0.0,0.333,0.927,-0.183,2331892
-0.006,0.336,0.928,-0.122,2331896
-0.006,0.336,0.928,-0.122,2331900
-0.006,0.336,0.928,-0.122,2331904
-0.01,0.342,0.943,-0.244,2331908
-0.01,0.342,0.943,-0.305,2331912
-0.011,0.34,0.942,-0.183,2331916
-0.011,0.34,0.942,-0.183,2331920
-0.011,0.34,0.942,-0.305,2331924
-0.008,0.334,0.928,-0.305,2331928
-0.008,0.334,0.928,-0.244,2331932
-0.008,0.332,0.928,-0.122,2331936
-0.008,0.332,0.928,-0.122,2331940
-0.008,0.332,0.928,-0.305,2331944
-0.006,0.337,0.94,-0.427,2331948
-0.006,0.337,0.94,-0.183,2331952
-0.007,0.337,0.941,-0.122,2331956
-0.007,0.337,0.941,-0.122,2331960
-0.007,0.337,0.941,-0.122,2331964
-0.01,0.331,0.933,-0.305,2331968
-0.01,0.331,0.933,-0.305,2331972
-0.007,0.33,0.929,-0.183,2331976
-0.007,0.33,0.929,-0.183,2331980
-0.007,0.33,0.929,-0.183,2331984
-0.004,0.335,0.942,-0.061,2331988
-0.004,0.335,0.942,-0.183,2331992
-0.0,0.335,0.944,-0.122,2331996
-0.0,0.335,0.944,-0.122,2332000
-0.0,0.335,0.944,0.0,2332004
0.001,0.334,0.934,0.061,2332008
0.001,0.334,0.934,0.0,2332012
-0.001,0.333,0.932,-0.061,2332016
-0.001,0.333,0.932,-0.061,2332020
-0.001,0.333,0.932,-0.244,2332024
-0.003,0.339,0.94,-0.305,2332027
-0.003,0.339,0.94,-0.122,2332031
-0.004,0.339,0.941,-0.183,2332035
-0.004,0.339,0.941,-0.183,2332039
-0.004,0.339,0.941,-0.183,2332043
-0.001,0.338,0.933,-0.183,2332047
-0.001,0.338,0.933,-0.244,2332051
0.003,0.337,0.929,-0.305,2332055
0.003,0.337,0.929,-0.305,2332059
0.003,0.337,0.929,-0.244,2332063
0.004,0.338,0.939,-0.183,2332067
0.004,0.338,0.939,-0.122,2332071
0.002,0.339,0.942,-0.122,2332075
0.002,0.339,0.942,-0.122,2332079
0.002,0.339,0.942,-0.244,2332083
0.002,0.337,0.937,-0.305,2332087
0.002,0.337,0.937,-0.366,2332091
0.001,0.335,0.935,-0.244,2332095
0.001,0.335,0.935,-0.244,2332099
0.001,0.335,0.935,-0.244,2332103
0.003,0.336,0.94,-0.244,2332107
0.003,0.336,0.94,-0.183,2332111
0.003,0.337,0.943,-0.305,2332115
0.003,0.337,0.943,-0.305,2332119
0.003,0.337,0.943,-0.183,2332123
0.002,0.336,0.937,-0.122,2332127
0.002,0.336,0.937,-0.061,2332131
0.0,0.335,0.934,-0.183,2332135
0.0,0.335,0.934,-0.305,2332139
0.0,0.335,0.934,-0.305,2332143
-0.003,0.336,0.938,-0.122,2332147
-0.003,0.336,0.938,-0.244,2332151
-0.004,0.337,0.939,-0.244,2332155
-0.004,0.337,0.939,-0.305,2332159
-0.004,0.337,0.939,-0.305,2332163
-0.005,0.335,0.935,-0.305,2332167
-0.005,0.335,0.935,-0.244,2332171
-0.007,0.335,0.931,-0.244,2332175
-0.007,0.335,0.931,-0.366,2332179
-0.007,0.335,0.931,-0.366,2332183
-0.006,0.334,0.938,-0.366,2332187
-0.006,0.334,0.938,-0.244,2332191
-0.007,0.335,0.94,-0.244,2332194
-0.007,0.335,0.94,-0.305,2332198
-0.007,0.335,0.94,-0.305,2332202
-0.008,0.335,0.935,-0.183,2332206
-0.008,0.335,0.935,-0.244,2332210
-0.009,0.333,0.934,-0.183,2332214
-0.009,0.333,0.934,-0.305,2332218
-0.009,0.333,0.934,-0.305,2332222
-0.007,0.334,0.936,-0.183,2332226
-0.007,0.334,0.936,-0.183,2332230
-0.005,0.335,0.939,-0.183,2332234
-0.005,0.335,0.939,-0.244,2332238
-0.005,0.335,0.939,-0.244,2332242
-0.005,0.334,0.935,-0.244,2332246
-0.005,0.334,0.935,-0.122,2332250
-0.005,0.336,0.932,-0.061,2332254
-0.005,0.336,0.932,-0.122,2332258
-0.005,0.336,0.932,-0.122,2332262
-0.006,0.338,0.938,-0.244,2332266
-0.006,0.338,0.938,-0.183,2332270
-0.006,0.338,0.937,-0.061,2332274
-0.006,0.338,0.937,-0.183,2332278
-0.006,0.338,0.937,-0.183,2332282
-0.003,0.336,0.932,0.0,2332286
-0.003,0.336,0.932,-0.122,2332290
-0.002,0.337,0.932,-0.183,2332294
-0.002,0.337,0.932,0.0,2332298
-0.002,0.337,0.932,0.0,2332302
-0.002,0.341,0.938,-0.122,2332306
-0.002,0.341,0.938,-0.183,2332310
-0.002,0.341,0.94,-0.183,2332314
-0.002,0.341,0.94,-0.183,2332318
-0.002,0.341,0.94,-0.183,2332322
0.001,0.338,0.935,-0.244,2332326
0.001,0.338,0.935,-0.61,2332330
0.001,0.336,0.934,-0.671,2332334
0.001,0.336,0.934,-0.366,2332337
0.001,0.336,0.934,-0.366,2332341
0.005,0.33,0.946,-0.366,2332345
0.005,0.33,0.946,-0.61,2332349
0.001,0.337,0.931,-0.366,2332353
0.001,0.337,0.931,-0.183,2332357
0.001,0.337,0.931,-0.183,2332361
0.003,0.333,0.942,-0.061,2332365
0.003,0.333,0.942,-0.061,2332369
0.0,0.333,0.934,-0.183,2332373
0.0,0.333,0.934,-0.244,2332377
0.0,0.333,0.934,-0.244,2332381
-0.001,0.332,0.939,-0.122,2332385
-0.001,0.332,0.939,-0.305,2332389
-0.001,0.335,0.94,-0.122,2332393
-0.001,0.335,0.94,-0.122,2332397
-0.001,0.335,0.94,-0.122,2332401
0.012,0.322,0.98,-0.244,2332405
0.012,0.322,0.98,-7.202,2332409
0.008,0.329,0.988,-14.343,2332413
0.008,0.329,0.988,-4.272,2332417
0.008,0.329,0.988,-4.272,2332421
-0.032,0.371,0.815,-0.488,2332425
-0.032,0.371,0.815,0.916,2332429
-0.033,0.362,0.897,-0.488,2332433
-0.033,0.362,0.897,-12.817,2332437
-0.033,0.362,0.897,-12.817,2332441
-0.007,0.349,0.992,-19.958,2332445
-0.007,0.349,0.992,-28.809,2332449
-0.047,0.418,0.914,-49.011,2332453
-0.047,0.418,0.914,-55.542,2332457
-0.047,0.418,0.914,-55.542,2332461
-0.007,0.332,0.919,-53.04,2332465
-0.007,0.332,0.919,-43.762,2332469
0.089,0.236,1.139,-30.579,2332473
0.089,0.236,1.139,-39.429,2332477
0.089,0.236,1.139,-39.429,2332481
0.113,0.162,1.053,-64.575,2332485
0.113,0.162,1.053,-98.022,2332489
0.085,0.095,0.951,-149.841,2332493
0.085,0.095,0.951,-200.928,2332497
0.03,0.095,1.068,-189.575,2332501
0.03,0.095,1.068,-189.575,2332505
0.03,0.095,1.068,-187.317,2332509
-0.014,0.076,1.08,-181.091,2332513
-0.014,0.076,1.08,-161.011,2332517
0.067,0.115,0.995,-181.03,2332521
0.067,0.115,0.995,-181.03,2332525
0.067,0.115,0.995,-185.12,2332529
0.136,0.335,1.034,-125.732,2332533
0.136,0.335,1.034,-70.068,2332537
0.16,0.318,0.783,7.202,2332541
0.16,0.318,0.783,7.202,2332545
0.16,0.318,0.783,97.656,2332549
0.219,0.452,0.451,225.708,2332553
0.219,0.452,0.451,370.911,2332557
0.24,0.643,0.378,509.338,2332561
0.24,0.643,0.378,509.338,2332565
0.24,0.643,0.378,547.974,2332569
0.376,0.987,1.076,405.701,2332573
0.376,0.987,1.076,256.836,2332577
0.113,1.159,1.482,236.755,2332581
0.113,1.159,1.482,238.159,2332585
0.113,1.159,1.482,238.159,2332589
-0.035,0.659,0.916,228.149,2332593
-0.035,0.659,0.916,300.598,2332597
-0.42,0.352,0.817,342.407,2332601
-0.42,0.352,0.817,323.975,2332605
-0.42,0.352,0.817,323.975,2332609
-0.289,0.428,0.696,251.953,2332613
-0.289,0.428,0.696,112.244,2332617
-0.364,0.321,0.727,-28.748,2332621
-0.364,0.321,0.727,-75.623,2332625
-0.364,0.321,0.727,-75.623,2332629
-0.167,0.214,0.916,-68.359,2332633
-0.167,0.214,0.916,-37.537,2332637
0.104,0.122,1.065,2.686,2332641
0.104,0.122,1.065,0.854,2332645
0.104,0.122,1.065,0.854,2332649
0.315,0.221,1.102,-38.818,2332653
0.315,0.221,1.102,-65.43,2332657
0.049,0.387,0.874,-26.001,2332661
0.049,0.387,0.874,25.879,2332665
0.049,0.387,0.874,25.879,2332669
0.072,0.376,0.842,13.0,2332673
0.072,0.376,0.842,11.353,2332677
0.139,0.351,0.912,18.494,2332681
0.139,0.351,0.912,-17.273,2332685
0.139,0.351,0.912,-17.273,2332689
0.19,0.337,0.953,-0.61,2332693
0.19,0.337,0.953,26.917,2332697
0.185,0.244,1.036,15.442,2332701
0.185,0.244,1.036,19.348,2332705
0.119,0.234,0.958,14.587,2332709
0.119,0.234,0.958,14.587,2332713
0.119,0.234,0.958,-5.127,2332717
0.029,0.203,0.966,-34.363,2332721
0.029,0.203,0.966,-45.532,2332725
0.134,0.221,0.981,-38.086,2332729
0.134,0.221,0.981,-38.086,2332733
0.134,0.221,0.981,-37.842,2332737
0.029,0.163,0.865,-21.179,2332741
0.029,0.163,0.865,-12.085,2332745
0.215,0.196,1.111,-32.166,2332749
0.215,0.196,1.111,-32.166,2332753
0.215,0.196,1.111,-62.988,2332757
0.161,0.258,0.903,-77.515,2332761
0.161,0.258,0.903,-77.026,2332765
0.041,0.244,0.936,-76.599,2332769
0.041,0.244,0.936,-76.599,2332773
0.041,0.244,0.936,-71.411,2332777
0.085,0.186,0.98,-62.927,2332781
0.085,0.186,0.98,-59.265,2332785
0.1,0.219,0.994,-38.147,2332789
0.1,0.219,0.994,-38.147,2332793
0.1,0.219,0.994,-15.198,2332797
0.111,0.277,0.935,-8.728,2332801
0.111,0.277,0.935,-14.221,2332805
0.116,0.359,0.951,-12.756,2332809
0.116,0.359,0.951,-12.756,2332813
0.116,0.359,0.951,-0.061,2332817
0.216,0.378,0.946,6.165,2332821
0.216,0.378,0.946,-9.766,2332825
0.13,0.302,0.922,-11.78,2332829
0.13,0.302,0.922,-14.709,2332833
0.13,0.302,0.922,-14.709,2332837
0.094,0.264,0.951,-16.235,2332841
0.094,0.264,0.951,-20.935,2332845
0.094,0.274,0.949,-17.761,2332849
0.094,0.274,0.949,4.761,2332853
0.094,0.274,0.949,4.761,2332857
0.133,0.227,0.977,2.747,2332861
0.133,0.227,0.977,-11.963,2332865
0.094,0.242,0.969,-13.672,2332869
0.094,0.242,0.969,2.075,2332873
0.094,0.242,0.969,2.075,2332877
0.074,0.223,0.97,-3.479,2332881
0.074,0.223,0.97,-14.587,2332885
0.085,0.221,0.972,-10.559,2332889
0.085,0.221,0.972,-11.169,2332893
0.085,0.221,0.972,-11.169,2332897
0.112,0.244,0.96,-6.775,2332901
0.112,0.244,0.96,4.272,2332905
0.11,0.29,0.957,0.732,2332909
0.11,0.29,0.957,-0.183,2332913
0.11,0.29,0.957,-0.183,2332917
0.019,0.294,0.952,-0.122,2332921
0.019,0.294,0.952,-4.272,2332925
0.109,0.312,0.941,-2.502,2332929
0.109,0.312,0.941,-0.488,2332933
0.109,0.312,0.941,-0.488,2332937
0.09,0.303,0.945,0.0,2332941
0.09,0.303,0.945,-0.061,2332945
0.062,0.306,0.943,-0.244,2332949
0.062,0.306,0.943,-0.305,2332953
0.062,0.306,0.943,-0.305,2332957
0.073,0.302,0.953,-0.122,2332961
0.073,0.302,0.953,-0.122,2332965
0.073,0.302,0.948,-0.244,2332969
0.073,0.302,0.948,-0.122,2332973
0.073,0.302,0.948,-0.122,2332977
0.066,0.311,0.935,-0.427,2332981
0.066,0.311,0.935,-0.244,2332985
0.07,0.303,0.95,-0.061,2332989
0.07,0.303,0.95,2.502,2332993
0.07,0.303,0.95,2.502,2332997
0.01,0.337,0.948,15.686,2333001
0.01,0.337,0.948,19.531,2333005
0.104,0.299,0.941,6.775,2333009
0.104,0.299,0.941,-7.019,2333013
0.104,0.299,0.941,-7.019,2333017
0.129,0.254,0.962,-6.104,2333021
0.129,0.254,0.962,0.732,2333025
0.063,0.301,0.944,0.061,2333029
0.063,0.301,0.944,-0.488,2333033
0.063,0.301,0.944,-0.488,2333037
0.066,0.306,0.947,-0.244,2333041
0.066,0.306,0.947,-0.122,2333045
0.073,0.3,0.948,-0.122,2333049
0.073,0.3,0.948,-0.183,2333053
0.069,0.302,0.946,-0.122,2333057
0.069,0.302,0.946,-0.122,2333061
0.069,0.302,0.946,-0.183,2333065
0.069,0.303,0.945,-0.183,2333069
0.069,0.303,0.945,-0.244,2333072
0.07,0.302,0.95,-0.122,2333076
0.07,0.302,0.95,-0.122,2333080
0.07,0.302,0.95,-0.183,2333084
0.067,0.305,0.943,-0.122,2333088
0.067,0.305,0.943,-0.183,2333092
0.064,0.304,0.944,-0.183,2333096
0.064,0.304,0.944,-0.183,2333100
0.064,0.304,0.944,-0.244,2333104
0.064,0.306,0.944,-0.366,2333108
0.064,0.306,0.944,-0.305,2333112
0.065,0.306,0.944,-0.061,2333116
0.065,0.306,0.944,-0.061,2333120
0.065,0.306,0.944,-0.183,2333124
0.066,0.304,0.943,-0.244,2333128
0.066,0.304,0.943,-0.366,2333132
0.07,0.299,0.948,-0.305,2333136
0.07,0.299,0.948,-0.305,2333140
0.07,0.299,0.948,-0.183,2333144
0.068,0.302,0.947,-0.366,2333148
0.068,0.302,0.947,-0.244,2333152
0.068,0.303,0.945,-0.244,2333156
0.068,0.303,0.945,-0.244,2333160
0.068,0.303,0.945,-0.183,2333164
0.072,0.301,0.948,-0.061,2333168
0.072,0.301,0.948,-0.183,2333172
0.071,0.302,0.946,-0.122,2333176
0.071,0.302,0.946,-0.122,2333180
0.071,0.302,0.946,-0.305,2333184
0.071,0.301,0.947,-0.122,2333188
0.071,0.301,0.947,-0.061,2333192
0.068,0.303,0.947,-0.122,2333196
0.068,0.303,0.947,-0.122,2333200
0.068,0.303,0.947,0.061,2333204
0.066,0.307,0.943,-0.061,2333208
0.066,0.307,0.943,-0.122,2333212
0.07,0.305,0.945,-0.061,2333216
0.07,0.305,0.945,-0.061,2333220
0.07,0.305,0.945,-0.183,2333224
0.072,0.305,0.946,-0.244,2333228
0.072,0.305,0.946,-0.122,2333232
0.069,0.308,0.943,-0.122,2333236
0.069,0.308,0.943,-0.122,2333240
0.069,0.308,0.943,-0.305,2333244
0.071,0.305,0.944,-0.305,2333248
0.071,0.305,0.944,-0.244,2333252
0.075,0.3,0.949,-0.305,2333256
0.075,0.3,0.949,-0.305,2333260
0.075,0.3,0.949,-0.305,2333264
0.072,0.301,0.948,-0.305,2333268
0.072,0.301,0.948,-0.305,2333272
0.075,0.299,0.949,-0.244,2333275
0.075,0.299,0.949,-0.244,2333279
0.075,0.299,0.949,-0.122,2333283
0.075,0.296,0.95,-0.122,2333287
0.075,0.296,0.95,-0.183,2333291
0.072,0.3,0.946,-0.122,2333295
0.072,0.3,0.946,-0.122,2333299
0.072,0.3,0.946,0.061,2333303
0.071,0.303,0.946,-0.122,2333307
0.071,0.303,0.946,-0.122,2333311
0.071,0.301,0.948,0.0,2333315
0.071,0.301,0.948,0.0,2333319
0.071,0.301,0.948,-0.061,2333323
0.067,0.302,0.945,-0.122,2333327
0.067,0.302,0.945,-0.122,2333331
0.069,0.301,0.946,-0.244,2333335
0.069,0.301,0.946,-0.244,2333339
0.069,0.301,0.946,-0.183,2333343
0.062,0.308,0.951,0.183,2333347
0.062,0.308,0.951,6.592,2333351
0.03,0.347,0.94,20.691,2333355
0.03,0.347,0.94,20.691,2333359
0.03,0.347,0.94,24.414,2333363
0.04,0.29,0.935,12.573,2333367
0.04,0.29,0.935,-1.892,2333371
0.118,0.298,0.953,-10.498,2333375
0.118,0.298,0.953,-10.498,2333379
0.118,0.298,0.953,-20.996,2333383
0.098,0.295,0.946,-26.306,2333387
0.098,0.295,0.946,-11.963,2333391
0.089,0.259,0.951,2.136,2333395
0.089,0.259,0.951,0.793,2333399
0.089,0.259,0.951,0.793,2333403
0.073,0.3,0.95,-0.61,2333407
0.073,0.3,0.95,0.0,2333411
0.068,0.308,0.945,-0.061,2333415
0.068,0.308,0.945,-0.122,2333419
0.068,0.308,0.945,-0.122,2333423
0.067,0.306,0.941,-0.122,2333427
0.067,0.306,0.941,-0.244,2333431
0.067,0.304,0.945,-0.122,2333435
0.067,0.304,0.945,0.0,2333439
0.067,0.304,0.945,0.0,2333443
0.065,0.305,0.946,-0.061,2333446
0.065,0.305,0.946,-0.061,2333450
0.064,0.311,0.942,-0.122,2333454
0.064,0.311,0.942,-0.061,2333458
0.064,0.311,0.942,-0.061,2333462
0.065,0.309,0.942,-0.183,2333466
0.065,0.309,0.942,-0.305,2333470
0.067,0.306,0.944,-0.305,2333474
0.067,0.306,0.944,-0.305,2333478
0.067,0.306,0.944,-0.305,2333482
0.069,0.308,0.946,-0.183,2333486
0.069,0.308,0.946,-0.366,2333490
0.069,0.308,0.946,-0.244,2333494
0.069,0.308,0.946,-0.183,2333498
0.069,0.308,0.946,-0.183,2333502
0.068,0.307,0.943,-0.305,2333506
0.068,0.307,0.943,-0.183,2333510
0.068,0.306,0.944,-0.183,2333514
0.068,0.306,0.944,-0.244,2333518
0.068,0.306,0.944,-0.244,2333522
0.068,0.305,0.946,-0.244,2333526
0.068,0.305,0.946,-0.183,2333530
0.069,0.305,0.948,-0.061,2333534
0.069,0.305,0.948,-0.122,2333538
0.069,0.305,0.948,-0.122,2333542
0.069,0.304,0.946,-0.244,2333546
0.069,0.304,0.946,-0.244,2333550
0.04,0.289,0.951,0.061,2333554
0.04,0.289,0.951,-0.916,2333558
0.04,0.289,0.951,-0.916,2333562
0.051,0.292,0.952,0.183,2333566
0.051,0.292,0.952,4.578,2333570
0.094,0.329,0.937,6.348,2333574
0.094,0.329,0.937,1.648,2333578
0.094,0.329,0.937,1.648,2333582
0.048,0.298,0.946,2.319,2333586
0.048,0.298,0.946,2.197,2333590
0.039,0.301,0.954,1.343,2333594
0.039,0.301,0.954,1.77,2333598
0.039,0.301,0.954,1.77,2333602
0.047,0.321,0.942,1.526,2333606
0.047,0.321,0.942,3.845,2333610
0.066,0.318,0.941,10.559,2333614
0.066,0.318,0.941,13.977,2333618
0.066,0.318,0.941,13.977,2333622
0.107,0.276,0.955,8.972,2333626
0.107,0.276,0.955,5.31,2333630
0.095,0.306,0.948,6.775,2333634
0.095,0.306,0.948,10.193,2333638
0.095,0.306,0.948,10.193,2333642
0.039,0.331,0.941,12.146,2333646
0.039,0.331,0.941,15.808,2333650
0.042,0.356,0.926,24.841,2333654
0.042,0.356,0.926,37.781,2333658
0.042,0.356,0.926,37.781,2333662
0.041,0.338,0.938,29.968,2333666
0.041,0.338,0.938,13.977,2333670
-0.006,0.34,0.938,14.16,2333674
-0.006,0.34,0.938,-7.751,2333678
-0.012,0.453,1.013,-33.752,2333682
-0.012,0.453,1.013,-33.752,2333686
-0.012,0.453,1.013,-41.26,2333690
0.136,0.519,0.946,-62.683,2333694
0.136,0.519,0.946,-51.758,2333698
0.08,0.394,0.797,-15.015,2333702
0.08,0.394,0.797,-15.015,2333706
0.08,0.394,0.797,10.498,2333710
-0.036,0.325,0.83,27.588,2333714
-0.036,0.325,0.83,27.405,2333718
-0.01,0.414,0.887,18.188,2333722
-0.01,0.414,0.887,18.188,2333726
-0.01,0.414,0.887,-14.526,2333730
0.015,0.366,0.869,-21.973,2333734
0.015,0.366,0.869,-34.18,2333738
-0.052,0.354,0.956,-41.748,2333742
-0.052,0.354,0.956,-41.748,2333746
-0.052,0.354,0.956,-13.367,2333750
-0.076,0.424,0.925,-2.319,2333754
-0.076,0.424,0.925,2.075,2333758
-0.105,0.355,0.843,0.061,2333762
-0.105,0.355,0.843,0.061,2333766
-0.105,0.355,0.843,-12.024,2333770
-0.128,0.428,0.81,-0.61,2333774
-0.128,0.428,0.81,10.01,2333778
-0.049,0.45,0.868,7.019,2333782
-0.049,0.45,0.868,7.019,2333786
-0.049,0.45,0.868,2.991,2333790
0.165,0.309,1.022,-54.016,2333794
0.165,0.309,1.022,-109.375,2333798
0.305,0.265,1.079,-68.848,2333802
0.305,0.265,1.079,6.775,2333806
0.305,0.265,1.079,6.775,2333810
0.131,0.195,0.98,33.02,2333814
0.131,0.195,0.98,21.301,2333818
0.098,0.214,0.992,19.226,2333822
0.098,0.214,0.992,17.761,2333826
0.098,0.214,0.992,17.761,2333830
0.076,0.286,0.962,13.367,2333834
0.076,0.286,0.962,10.315,2333838
0.019,0.35,0.912,2.686,2333842
0.019,0.35,0.912,1.099,2333846
0.019,0.35,0.912,1.099,2333850
-0.034,0.4,0.886,0.366,2333853
-0.034,0.4,0.886,-2.625,2333857
-0.078,0.399,0.844,-7.019,2333861
-0.078,0.399,0.844,-13.306,2333865
-0.078,0.399,0.844,-13.306,2333869
0.012,0.401,0.926,-12.512,2333873
0.012,0.401,0.926,-12.024,2333877
0.051,0.35,0.937,-5.188,2333881
0.051,0.35,0.937,-0.793,2333885
0.051,0.35,0.937,-0.793,2333889
0.033,0.324,0.932,-1.953,2333893
0.033,0.324,0.932,-2.075,2333897
0.07,0.279,0.975,-1.587,2333901
0.07,0.279,0.975,-3.174,2333905
0.07,0.279,0.975,-3.174,2333909
0.062,0.297,0.968,-8.606,2333913
0.062,0.297,0.968,-14.343,2333917
0.062,0.291,0.958,-12.573,2333921
0.062,0.291,0.958,-4.517,2333925
0.062,0.291,0.958,-4.517,2333929
0.046,0.313,0.947,-1.892,2333933
0.046,0.313,0.947,-11.047,2333937
0.03,0.332,0.931,-1.648,2333941
0.03,0.332,0.931,10.01,2333945
0.03,0.332,0.931,10.01,2333949
0.031,0.331,0.929,0.732,2333953
0.031,0.331,0.929,-3.906,2333957
0.002,0.372,0.907,-5.92,2333961
0.002,0.372,0.907,-8.789,2333965
0.002,0.372,0.907,-8.789,2333969
0.024,0.341,0.93,-11.169,2333973
0.024,0.341,0.93,-7.751,2333977
0.06,0.291,0.958,-1.831,2333981
0.06,0.291,0.958,-0.244,2333985
0.05,0.307,0.953,-0.671,2333989
0.05,0.307,0.953,-0.671,2333993
0.05,0.307,0.953,-0.366,2333997
0.057,0.296,0.96,-0.122,2334001
0.057,0.296,0.96,0.183,2334005
0.046,0.309,0.949,0.488,2334009
0.046,0.309,0.949,0.488,2334013
0.046,0.309,0.949,0.427,2334017
0.029,0.332,0.933,0.366,2334021
0.029,0.332,0.933,0.122,2334025
0.024,0.339,0.93,0.0,2334029
0.024,0.339,0.93,0.0,2334033
0.024,0.339,0.93,-0.122,2334037
0.025,0.337,0.929,-0.366,2334041
0.025,0.337,0.929,-0.427,2334045
0.03,0.332,0.933,-0.671,2334049
0.03,0.332,0.933,-0.671,2334053
0.03,0.332,0.933,-0.732,2334057
0.038,0.321,0.942,-0.549,2334061
0.038,0.321,0.942,-0.549,2334065
0.048,0.308,0.953,-0.488,2334069
0.048,0.308,0.953,-0.488,2334073
0.048,0.308,0.953,-0.183,2334077
0.048,0.307,0.953,0.0,2334080
0.048,0.307,0.953,-0.061,2334084
0.039,0.318,0.945,0.183,2334088
0.039,0.318,0.945,0.183,2334092
0.039,0.318,0.945,0.122,2334096
0.034,0.326,0.938,0.122,2334100
0.034,0.326,0.938,0.122,2334104
0.029,0.335,0.931,0.061,2334108
0.029,0.335,0.931,0.061,2334112
0.029,0.335,0.931,-0.183,2334116
0.028,0.336,0.93,-0.305,2334120
0.028,0.336,0.93,-0.427,2334124
0.032,0.328,0.938,-0.488,2334128
0.032,0.328,0.938,-0.488,2334132
0.032,0.328,0.938,-0.488,2334136
0.041,0.32,0.945,-0.366,2334140
0.041,0.32,0.945,-0.488,2334144
0.044,0.314,0.948,-0.366,2334148
0.044,0.314,0.948,-0.366,2334152
0.044,0.314,0.948,-0.244,2334156
0.044,0.314,0.949,0.061,2334160
0.044,0.314,0.949,0.0,2334164
0.042,0.317,0.946,-0.122,2334168
0.042,0.317,0.946,-0.122,2334172
0.042,0.317,0.946,-0.061,2334176
0.035,0.325,0.938,0.061,2334180
0.035,0.325,0.938,0.0,2334184
0.031,0.331,0.935,-0.061,2334188
0.031,0.331,0.935,-0.061,2334192
0.031,0.331,0.935,-0.244,2334196
0.033,0.33,0.936,-0.244,2334200
0.033,0.33,0.936,-0.366,2334204
0.036,0.325,0.939,-0.305,2334208
0.036,0.325,0.939,-0.305,2334212
0.036,0.325,0.939,-0.366,2334216
0.04,0.318,0.942,-0.305,2334220
0.04,0.318,0.942,-0.366,2334224
0.043,0.314,0.947,-0.244,2334228
0.043,0.314,0.947,-0.244,2334232
0.043,0.314,0.947,-0.305,2334236
0.041,0.315,0.948,-0.061,2334240
0.041,0.315,0.948,0.061,2334244
0.038,0.32,0.943,0.122,2334248
0.038,0.32,0.943,0.122,2334252
0.038,0.32,0.943,0.0,2334256
0.034,0.326,0.937,-0.061,2334260
0.034,0.326,0.937,-0.122,2334264
0.03,0.33,0.937,-0.122,2334267
0.03,0.33,0.937,-0.122,2334271
0.03,0.33,0.937,-0.183,2334275
0.033,0.331,0.936,-0.366,2334279
0.033,0.331,0.936,-0.366,2334283
0.035,0.324,0.941,-0.366,2334287
0.035,0.324,0.941,-0.366,2334291
0.035,0.324,0.941,-0.366,2334295
0.039,0.319,0.943,-0.183,2334299
0.039,0.319,0.943,-0.183,2334303
0.041,0.317,0.944,-0.183,2334307
0.041,0.317,0.944,-0.183,2334311
0.041,0.317,0.944,-0.183,2334315
0.042,0.321,0.945,-0.122,2334319
0.042,0.321,0.945,-0.122,2334323
0.037,0.321,0.941,0.061,2334327
0.037,0.321,0.941,0.061,2334331
0.037,0.321,0.941,0.0,2334335
0.033,0.325,0.937,-0.122,2334339
0.033,0.325,0.937,0.0,2334343
0.033,0.329,0.936,-0.061,2334347
0.033,0.329,0.936,-0.061,2334351
0.033,0.329,0.936,-0.305,2334355
0.034,0.327,0.938,-0.183,2334359
0.034,0.327,0.938,-0.183,2334363
0.037,0.324,0.94,-0.305,2334367
0.037,0.324,0.94,-0.305,2334371
0.037,0.324,0.94,-0.366,2334375
0.039,0.32,0.942,-0.244,2334379
0.039,0.32,0.942,-0.122,2334383
0.04,0.318,0.944,-0.122,2334387
0.04,0.318,0.944,0.0,2334391
0.04,0.318,0.944,0.0,2334395
0.039,0.319,0.943,-0.061,2334399
0.039,0.319,0.943,-0.122,2334403
0.038,0.322,0.941,-0.122,2334407
0.038,0.322,0.941,-0.122,2334411
0.038,0.322,0.941,-0.122,2334415
0.035,0.326,0.939,-0.183,2334419
0.035,0.326,0.939,-0.122,2334423
0.034,0.325,0.938,-0.122,2334427
0.034,0.325,0.938,-0.244,2334431
0.034,0.325,0.938,-0.244,2334435
0.037,0.325,0.94,-0.244,2334439
0.037,0.325,0.94,-0.244,2334443
0.039,0.321,0.942,-0.305,2334447
0.039,0.321,0.942,-0.305,2334451
0.039,0.321,0.942,-0.305,2334454
0.04,0.318,0.944,-0.305,2334458
0.04,0.318,0.944,-0.305,2334462
0.041,0.32,0.943,-0.061,2334466
0.041,0.32,0.943,0.0,2334470
0.041,0.32,0.943,0.0,2334474
0.039,0.321,0.942,-0.183,2334478
0.039,0.321,0.942,0.0,2334482
0.038,0.325,0.94,0.061,2334486
0.038,0.325,0.94,0.0,2334490
0.038,0.325,0.94,0.0,2334494
0.035,0.326,0.939,-0.122,2334498
0.035,0.326,0.939,-0.244,2334502
0.034,0.326,0.937,-0.183,2334506
0.034,0.326,0.937,-0.183,2334510
0.034,0.326,0.937,-0.183,2334514
0.035,0.325,0.94,-0.305,2334518
0.035,0.325,0.94,-0.183,2334522
0.038,0.323,0.943,-0.244,2334526
0.038,0.323,0.943,-0.244,2334530
0.038,0.323,0.943,-0.244,2334534
0.039,0.322,0.941,-0.122,2334538
0.039,0.322,0.941,-0.183,2334542
0.04,0.323,0.942,-0.122,2334546
0.04,0.323,0.942,-0.122,2334550
0.04,0.323,0.942,-0.122,2334554
0.036,0.325,0.941,-0.183,2334558
0.036,0.325,0.941,-0.183,2334562
0.035,0.324,0.937,-0.183,2334566
0.035,0.324,0.937,-0.183,2334570
0.035,0.324,0.937,-0.183,2334574
0.036,0.325,0.94,-0.366,2334578
0.036,0.325,0.94,-0.244,2334582
0.036,0.325,0.94,-0.183,2334586
0.036,0.325,0.94,-0.244,2334590
0.036,0.325,0.94,-0.244,2334594
0.037,0.323,0.941,-0.183,2334598
0.037,0.323,0.941,-0.122,2334602
0.04,0.319,0.942,-0.183,2334606
0.04,0.319,0.942,-0.305,2334610
0.04,0.319,0.942,-0.305,2334614
0.038,0.317,0.943,-0.305,2334617
0.038,0.317,0.943,-0.122,2334621
0.039,0.319,0.945,-0.122,2334625
0.039,0.319,0.945,-0.061,2334629
0.039,0.319,0.945,-0.061,2334633
0.037,0.321,0.942,-0.183,2334637
0.037,0.321,0.942,-0.122,2334641
0.037,0.324,0.939,0.0,2334645
0.037,0.324,0.939,-0.183,2334649
0.037,0.324,0.939,-0.183,2334653
0.037,0.325,0.938,-0.244,2334657
0.037,0.325,0.938,-0.183,2334661
0.037,0.327,0.94,-0.305,2334665
0.037,0.327,0.94,-0.366,2334669
0.037,0.327,0.94,-0.366,2334673
0.037,0.324,0.939,-0.366,2334677
0.037,0.324,0.939,-0.366,2334681
0.039,0.323,0.94,-0.305,2334685
0.039,0.323,0.94,-0.305,2334689
0.039,0.323,0.94,-0.305,2334693
0.041,0.321,0.943,-0.183,2334697
0.041,0.321,0.943,-0.244,2334701
0.04,0.321,0.944,-0.366,2334705
0.04,0.321,0.944,-0.244,2334709
0.04,0.321,0.944,-0.244,2334713
0.039,0.324,0.943,-0.183,2334717
0.039,0.324,0.943,-0.244,2334721
0.036,0.323,0.94,-0.183,2334725
0.036,0.323,0.94,-0.305,2334729
0.036,0.323,0.94,-0.305,2334733
0.035,0.323,0.939,-0.305,2334737
0.035,0.323,0.939,-0.366,2334741
0.036,0.322,0.941,-0.122,2334745
0.036,0.322,0.941,-0.244,2334749
0.036,0.322,0.941,-0.244,2334753
0.036,0.321,0.941,-0.183,2334757
0.036,0.321,0.941,-0.122,2334761
0.035,0.321,0.94,-0.122,2334765
0.035,0.321,0.94,-0.183,2334769
0.034,0.321,0.941,-0.122,2334773
0.034,0.321,0.941,-0.122,2334777
0.034,0.321,0.941,-0.183,2334781
0.034,0.324,0.943,-0.122,2334785
0.034,0.324,0.943,-0.122,2334789
0.034,0.324,0.936,-0.122,2334793
0.034,0.324,0.936,-0.122,2334797
0.034,0.324,0.936,-0.122,2334801
0.033,0.322,0.933,-0.122,2334805
0.033,0.322,0.933,-0.244,2334809
0.033,0.325,0.939,-0.183,2334813
0.033,0.325,0.939,-0.183,2334817
0.033,0.325,0.939,-0.183,2334821
0.032,0.326,0.942,-0.122,2334825
0.032,0.326,0.942,-0.122,2334829
0.034,0.324,0.94,-0.122,2334833
0.034,0.324,0.94,-0.122,2334837
0.034,0.324,0.94,0.0,2334841
0.036,0.323,0.941,-0.122,2334844
0.036,0.323,0.941,-0.122,2334848
0.036,0.324,0.944,-0.061,2334852
0.036,0.324,0.944,-0.061,2334856
0.036,0.324,0.944,0.0,2334860
0.036,0.325,0.944,-0.061,2334864
0.036,0.325,0.944,-0.122,2334868
0.035,0.327,0.94,-0.122,2334872
0.035,0.327,0.94,-0.122,2334876
0.035,0.327,0.94,0.0,2334880
0.036,0.324,0.934,0.0,2334884
0.036,0.324,0.934,-0.244,2334888
0.036,0.323,0.937,-0.244,2334892
0.036,0.323,0.937,-0.244,2334896
0.036,0.323,0.937,-0.305,2334900
0.039,0.322,0.944,-0.366,2334904
0.039,0.322,0.944,-0.305,2334908
0.042,0.321,0.944,-0.244,2334912
0.042,0.321,0.944,-0.244,2334916
0.042,0.321,0.944,-0.366,2334920
0.043,0.317,0.943,-0.183,2334924
0.043,0.317,0.943,-0.183,2334928
0.044,0.317,0.947,-0.244,2334932
0.044,0.317,0.947,-0.244,2334936
0.044,0.317,0.947,0.0,2334940
0.044,0.316,0.947,-0.122,2334944
0.044,0.316,0.947,-0.122,2334948
0.044,0.318,0.945,0.0,2334952
0.044,0.318,0.945,0.0,2334956
0.044,0.318,0.945,-0.122,2334960
0.041,0.318,0.939,0.0,2334964
0.041,0.318,0.939,-0.061,2334968
0.04,0.321,0.941,-0.183,2334971
0.04,0.321,0.941,-0.183,2334975
0.04,0.321,0.941,-0.061,2334979
0.039,0.323,0.944,-0.183,2334983
0.039,0.323,0.944,-0.366,2334987
0.04,0.323,0.942,-0.183,2334991
0.04,0.323,0.942,-0.183,2334995
0.04,0.323,0.942,-0.305,2334999
0.038,0.324,0.941,-0.305,2335003
0.038,0.324,0.941,-0.305,2335007
0.036,0.324,0.939,-0.183,2335011
0.036,0.324,0.939,-0.183,2335015
0.036,0.324,0.939,-0.244,2335019
0.035,0.323,0.939,-0.305,2335023
0.035,0.323,0.939,-0.183,2335027
0.034,0.324,0.94,-0.122,2335031
0.034,0.324,0.94,-0.122,2335035
0.034,0.324,0.94,-0.183,2335039
0.034,0.324,0.936,-0.183,2335043
0.034,0.324,0.936,-0.183,2335047
0.033,0.326,0.938,-0.244,2335051
0.033,0.326,0.938,-0.244,2335055
0.033,0.326,0.938,-0.183,2335059
0.035,0.326,0.938,-0.244,2335063
0.035,0.326,0.938,-0.183,2335067
0.033,0.327,0.943,-0.183,2335071
0.033,0.327,0.943,-0.183,2335075
0.033,0.327,0.943,-0.244,2335079
0.034,0.324,0.938,-0.061,2335083
0.034,0.324,0.938,-0.183,2335087
0.032,0.324,0.94,-0.183,2335091
0.032,0.324,0.94,-0.183,2335095
0.032,0.324,0.94,-0.122,2335099
0.032,0.323,0.939,0.0,2335103
0.032,0.323,0.939,-0.122,2335107
0.032,0.324,0.939,-0.183,2335111
0.032,0.324,0.939,-0.183,2335115
0.032,0.324,0.939,-0.244,2335119
0.032,0.323,0.937,-0.183,2335123
0.032,0.323,0.937,-0.122,2335127
0.033,0.324,0.939,-0.244,2335131
0.033,0.324,0.939,-0.244,2335135
0.033,0.324,0.939,-0.244,2335139
0.037,0.324,0.942,-0.183,2335143
0.037,0.324,0.942,-0.183,2335147
0.038,0.321,0.941,-0.183,2335151
0.038,0.321,0.941,-0.244,2335155
0.038,0.321,0.941,-0.244,2335159
0.036,0.321,0.943,-0.244,2335163
0.036,0.321,0.943,-0.183,2335167
0.039,0.32,0.942,-0.183,2335171
0.039,0.32,0.942,-0.183,2335175
0.039,0.32,0.942,-0.183,2335179
0.041,0.32,0.942,-0.122,2335183
0.041,0.32,0.942,-0.122,2335187
0.041,0.32,0.942,-0.122,2335191
0.041,0.32,0.942,-0.183,2335195
0.041,0.32,0.942,-0.183,2335199
0.04,0.322,0.941,-0.122,2335203
0.04,0.322,0.941,-0.244,2335207
0.041,0.321,0.941,-0.244,2335210
0.041,0.321,0.941,-0.122,2335214
0.041,0.321,0.941,-0.122,2335218
0.041,0.322,0.943,-0.244,2335222
0.041,0.322,0.943,-0.366,2335226
0.042,0.323,0.944,-0.244,2335230
0.042,0.323,0.944,-0.122,2335234
0.042,0.323,0.944,-0.122,2335238
0.042,0.32,0.944,-0.122,2335242
0.042,0.32,0.944,-0.061,2335246
0.041,0.321,0.943,0.0,2335250
0.041,0.321,0.943,-0.122,2335254
0.041,0.321,0.943,-0.122,2335258
0.042,0.323,0.943,-0.244,2335262
0.042,0.323,0.943,-0.427,2335266
0.039,0.323,0.941,-0.183,2335270
0.039,0.323,0.941,-0.244,2335274
0.039,0.323,0.941,-0.244,2335278
0.039,0.323,0.94,-0.183,2335282
0.039,0.323,0.94,-0.061,2335286
0.04,0.322,0.942,-0.305,2335290
0.04,0.322,0.942,-0.244,2335294
0.04,0.322,0.942,-0.244,2335298
0.039,0.321,0.941,-0.305,2335302
0.039,0.321,0.941,-0.305,2335306
0.039,0.321,0.941,-0.244,2335310
0.039,0.321,0.941,-0.244,2335314
0.039,0.321,0.941,-0.244,2335318
0.037,0.321,0.941,-0.183,2335322
0.037,0.321,0.941,-0.122,2335326
0.036,0.321,0.939,-0.122,2335330
0.036,0.321,0.939,-0.061,2335334
0.036,0.321,0.939,-0.061,2335338
0.035,0.322,0.943,-0.183,2335342
0.035,0.322,0.943,-0.183,2335346
0.034,0.322,0.94,-0.366,2335350
0.034,0.322,0.94,-0.305,2335354
0.034,0.322,0.94,-0.305,2335358
0.033,0.325,0.939,-0.366,2335362
0.033,0.325,0.939,-0.183,2335366
0.032,0.323,0.938,-0.183,2335370
0.032,0.323,0.938,-0.244,2335374
0.032,0.323,0.938,-0.244,2335378
0.034,0.323,0.938,-0.183,2335382
0.034,0.323,0.938,-0.183,2335386
0.033,0.325,0.939,-0.122,2335390
0.033,0.325,0.939,-0.122,2335394
0.033,0.325,0.939,-0.122,2335398
0.032,0.325,0.939,-0.122,2335402
0.032,0.325,0.939,-0.183,2335406
0.033,0.324,0.94,-0.183,2335410
0.033,0.324,0.94,-0.183,2335414
0.033,0.324,0.94,-0.183,2335418
0.034,0.324,0.937,-0.183,2335422
0.034,0.324,0.937,-0.244,2335425
0.033,0.324,0.94,-0.305,2335429
0.033,0.324,0.94,-0.244,2335433
0.034,0.324,0.94,-0.183,2335437
0.034,0.324,0.94,-0.183,2335441
0.034,0.324,0.94,-0.183,2335445
0.036,0.323,0.939,-0.122,2335449
0.036,0.323,0.939,-0.061,2335453
0.036,0.324,0.94,-0.122,2335457
0.036,0.324,0.94,-0.122,2335461
0.036,0.324,0.94,-0.122,2335465
0.037,0.323,0.941,-0.183,2335469
0.037,0.323,0.941,-0.183,2335473
0.039,0.323,0.941,-0.061,2335477
0.039,0.323,0.941,-0.061,2335481
0.039,0.323,0.941,-0.122,2335485
0.039,0.323,0.939,-0.061,2335489
0.039,0.323,0.939,-0.122,2335493
0.039,0.323,0.94,-0.183,2335497
0.039,0.323,0.94,-0.183,2335501
0.039,0.323,0.94,-0.183,2335505
0.041,0.32,0.941,-0.305,2335509
0.041,0.32,0.941,-0.183,2335513
0.042,0.318,0.944,-0.244,2335517
0.042,0.318,0.944,-0.244,2335521
0.042,0.318,0.944,-0.183,2335525
0.04,0.319,0.945,-0.122,2335529
0.04,0.319,0.945,-0.305,2335533
0.042,0.318,0.944,-0.305,2335537
0.042,0.318,0.944,-0.305,2335541
0.042,0.318,0.944,-0.183,2335545
0.041,0.317,0.945,-0.122,2335549
0.041,0.317,0.945,-0.183,2335553
0.042,0.318,0.943,-0.183,2335557
0.042,0.318,0.943,-0.183,2335561
0.042,0.318,0.943,-0.061,2335565
0.04,0.321,0.943,-0.122,2335569
0.04,0.321,0.943,-0.183,2335573
0.04,0.319,0.945,-0.244,2335577
0.04,0.319,0.945,-0.244,2335581
0.04,0.319,0.945,-0.244,2335585
0.038,0.319,0.941,-0.183,2335589
0.038,0.319,0.941,-0.183,2335593
0.04,0.322,0.941,-0.366,2335597
0.04,0.322,0.941,-0.366,2335601
0.04,0.322,0.941,-0.244,2335605
0.039,0.323,0.941,-0.183,2335609
0.039,0.323,0.941,-0.061,2335613
0.037,0.323,0.942,-0.061,2335617
0.037,0.323,0.942,-0.061,2335621
0.037,0.323,0.942,-0.305,2335625
0.036,0.324,0.941,-0.244,2335629
0.036,0.324,0.941,-0.244,2335633
0.035,0.324,0.94,-0.244,2335637
0.035,0.324,0.94,-0.244,2335641
0.035,0.324,0.94,-0.183,2335645
0.035,0.324,0.94,-0.183,2335649
0.035,0.324,0.94,-0.244,2335653
0.034,0.324,0.939,-0.305,2335657
0.034,0.324,0.939,-0.244,2335661
0.034,0.324,0.939,-0.244,2335665
0.033,0.325,0.938,-0.183,2335669
0.033,0.325,0.938,-0.122,2335673
0.034,0.325,0.939,-0.244,2335677
0.034,0.325,0.939,-0.305,2335681
0.034,0.325,0.939,-0.305,2335685
0.033,0.326,0.939,-0.305,2335689
0.033,0.326,0.939,-0.244,2335693
0.033,0.325,0.938,-0.244,2335697
0.033,0.325,0.938,-0.305,2335701
0.033,0.325,0.938,-0.305,2335705
0.032,0.324,0.939,-0.183,2335709
0.032,0.324,0.939,-0.183,2335712
