Acc_X,Acc_Y,Acc_Z,Rot_Z,Millis
-0.004,0.362,0.924,-0.305,2200987
-0.004,0.362,0.924,-0.061,2200991
-0.002,0.361,0.926,-0.061,2200995
-0.002,0.361,0.926,-0.122,2200999
-0.002,0.361,0.926,-0.122,2201003
-0.002,0.362,0.928,-0.183,2201007
-0.002,0.362,0.928,-0.244,2201011
-0.004,0.361,0.927,-0.183,2201015
-0.004,0.361,0.927,-0.244,2201019
-0.004,0.361,0.927,-0.244,2201023
-0.002,0.362,0.926,-0.122,2201027
-0.002,0.362,0.926,-0.061,2201031
-0.002,0.361,0.924,-0.366,2201035
-0.002,0.361,0.924,-0.244,2201039
-0.002,0.361,0.924,-0.244,2201043
-0.002,0.361,0.927,-0.122,2201047
-0.002,0.361,0.927,-0.122,2201051
-0.002,0.36,0.927,-0.244,2201055
-0.002,0.36,0.927,-0.305,2201059
-0.002,0.36,0.927,-0.305,2201063
0.001,0.361,0.925,-0.244,2201067
0.001,0.361,0.925,-0.305,2201071
0.001,0.36,0.927,-0.366,2201075
0.001,0.36,0.927,-0.183,2201079
0.001,0.36,0.927,-0.183,2201083
0.0,0.361,0.925,-0.183,2201087
0.0,0.361,0.925,-0.244,2201090
-0.0,0.362,0.928,-0.244,2201094
-0.0,0.362,0.928,-0.183,2201098
-0.0,0.362,0.928,-0.183,2201102
0.0,0.361,0.926,-0.122,2201106
0.0,0.361,0.926,-0.244,2201110
-0.0,0.362,0.926,-0.305,2201114
-0.0,0.362,0.926,-0.183,2201118
-0.0,0.362,0.926,-0.183,2201122
-0.0,0.362,0.927,-0.122,2201126
-0.0,0.362,0.927,-0.122,2201130
-0.001,0.361,0.927,-0.183,2201134
-0.001,0.361,0.927,-0.244,2201138
-0.001,0.361,0.927,-0.244,2201142
-0.0,0.361,0.927,-0.122,2201146
-0.0,0.361,0.927,-0.122,2201150
-0.001,0.361,0.929,-0.122,2201154
-0.001,0.361,0.929,-0.244,2201158
-0.001,0.361,0.929,-0.244,2201162
-0.001,0.361,0.927,-0.305,2201166
-0.001,0.361,0.927,-0.122,2201170
-0.002,0.359,0.925,-0.183,2201174
-0.002,0.359,0.925,-0.183,2201178
-0.002,0.359,0.925,-0.183,2201182
-0.001,0.359,0.924,-0.305,2201186
-0.001,0.359,0.924,-0.183,2201190
-0.001,0.36,0.925,-0.122,2201194
-0.001,0.36,0.925,-0.183,2201198
-0.001,0.36,0.925,-0.183,2201202
-0.003,0.36,0.928,-0.122,2201206
-0.003,0.36,0.928,-0.122,2201210
-0.002,0.362,0.926,-0.183,2201214
-0.002,0.362,0.926,-0.305,2201218
-0.002,0.362,0.926,-0.305,2201222
-0.002,0.36,0.924,-0.305,2201226
-0.002,0.36,0.924,-0.244,2201230
-0.002,0.361,0.926,-0.122,2201233
-0.002,0.361,0.926,-0.183,2201237
-0.002,0.361,0.926,-0.183,2201241
-0.002,0.361,0.926,-0.183,2201245
-0.002,0.361,0.926,-0.305,2201249
-0.003,0.36,0.924,-0.183,2201253
-0.003,0.36,0.924,-0.122,2201257
-0.003,0.36,0.924,-0.122,2201261
-0.002,0.36,0.927,-0.244,2201265
-0.002,0.36,0.927,-0.244,2201269
-0.001,0.36,0.925,-0.183,2201273
-0.001,0.36,0.925,-0.122,2201277
-0.001,0.36,0.925,-0.122,2201281
-0.001,0.361,0.927,-0.061,2201285
-0.001,0.361,0.927,-0.061,2201289
-0.001,0.36,0.928,-0.061,2201293
-0.001,0.36,0.928,-0.183,2201297
-0.001,0.36,0.928,-0.183,2201301
-0.001,0.36,0.927,-0.183,2201305
-0.001,0.36,0.927,-0.183,2201309
-0.0,0.36,0.927,-0.244,2201313
-0.0,0.36,0.927,-0.183,2201317
-0.0,0.36,0.927,-0.183,2201321
0.0,0.361,0.925,-0.061,2201325
0.0,0.361,0.925,-0.305,2201329
0.001,0.362,0.927,-0.244,2201333
0.001,0.362,0.927,-0.244,2201337
0.001,0.362,0.927,-0.244,2201341
-0.002,0.361,0.927,-0.183,2201345
-0.002,0.361,0.927,-0.183,2201349
-0.001,0.36,0.926,-0.244,2201353
-0.001,0.36,0.926,-0.183,2201357
-0.001,0.36,0.926,-0.183,2201361
0.0,0.362,0.927,-0.183,2201365
0.0,0.362,0.927,-0.244,2201369
-0.003,0.36,0.925,-0.244,2201373
-0.003,0.36,0.925,-0.305,2201377
-0.003,0.36,0.925,-0.305,2201381
-0.002,0.36,0.926,-0.122,2201385
-0.002,0.36,0.926,-0.183,2201388
-0.001,0.362,0.927,-0.244,2201392
-0.001,0.362,0.927,-0.122,2201396
-0.001,0.362,0.926,-0.244,2201400
-0.001,0.362,0.926,-0.244,2201404
-0.001,0.362,0.926,-0.244,2201408
-0.002,0.361,0.925,-0.183,2201412
-0.002,0.361,0.925,-0.183,2201416
-0.004,0.36,0.927,-0.366,2201420
-0.004,0.36,0.927,-0.366,2201424
-0.004,0.36,0.927,-0.244,2201428
-0.003,0.361,0.928,-0.183,2201432
-0.003,0.361,0.928,-0.244,2201436
-0.003,0.361,0.926,-0.244,2201440
-0.003,0.361,0.926,-0.244,2201444
-0.003,0.361,0.926,-0.183,2201448
-0.005,0.361,0.926,-0.244,2201452
-0.005,0.361,0.926,-0.244,2201456
-0.005,0.36,0.927,-0.183,2201460
-0.005,0.36,0.927,-0.183,2201464
-0.005,0.36,0.927,-0.183,2201468
-0.003,0.361,0.926,-0.061,2201472
-0.003,0.361,0.926,-0.183,2201476
-0.002,0.362,0.926,-0.305,2201480
-0.002,0.362,0.926,-0.305,2201484
-0.002,0.362,0.926,-0.305,2201488
-0.005,0.361,0.925,-0.244,2201492
-0.005,0.361,0.925,-0.427,2201496
-0.004,0.36,0.926,-0.244,2201500
-0.004,0.36,0.926,-0.244,2201504
-0.004,0.36,0.926,-0.183,2201508
-0.005,0.359,0.925,-0.305,2201512
-0.005,0.359,0.925,-0.244,2201516
-0.005,0.36,0.925,-0.183,2201520
-0.005,0.36,0.925,-0.183,2201524
-0.005,0.36,0.925,-0.305,2201528
-0.004,0.361,0.927,-0.244,2201532
-0.004,0.361,0.927,-0.244,2201535
-0.0,0.361,0.93,-0.244,2201539
-0.0,0.361,0.93,-0.244,2201543
-0.0,0.361,0.93,-0.183,2201547
-0.001,0.361,0.928,-0.122,2201551
-0.001,0.361,0.928,-0.244,2201555
-0.002,0.361,0.925,-0.183,2201559
-0.002,0.361,0.925,-0.183,2201563
-0.002,0.361,0.925,-0.244,2201567
-0.004,0.36,0.925,-0.305,2201571
-0.004,0.36,0.925,-0.244,2201575
-0.002,0.36,0.926,-0.061,2201579
-0.002,0.36,0.926,-0.061,2201583
-0.002,0.36,0.926,-0.061,2201587
-0.0,0.36,0.926,-0.244,2201591
-0.0,0.36,0.926,-0.183,2201595
-0.002,0.36,0.927,-0.122,2201599
-0.002,0.36,0.927,-0.122,2201603
-0.002,0.36,0.927,-0.305,2201607
-0.001,0.362,0.928,-0.244,2201611
-0.001,0.362,0.928,-0.183,2201615
0.001,0.363,0.928,-0.183,2201619
0.001,0.363,0.928,-0.183,2201623
0.001,0.363,0.928,-0.244,2201627
-0.001,0.362,0.928,-0.183,2201631
-0.001,0.362,0.928,-0.061,2201635
0.0,0.361,0.925,-0.061,2201639
0.0,0.361,0.925,-0.061,2201643
0.0,0.361,0.925,-0.183,2201647
-0.0,0.362,0.924,-0.183,2201651
-0.0,0.362,0.924,-0.305,2201655
-0.001,0.363,0.926,-0.366,2201659
-0.001,0.363,0.926,-0.366,2201663
-0.001,0.363,0.926,-0.061,2201667
0.0,0.362,0.926,-0.122,2201671
0.0,0.362,0.926,-0.244,2201674
0.001,0.362,0.926,-0.244,2201678
0.001,0.362,0.926,-0.244,2201682
0.001,0.362,0.926,-0.244,2201686
0.002,0.363,0.928,-0.183,2201690
0.002,0.363,0.928,-0.244,2201694
-0.002,0.362,0.928,-0.183,2201698
-0.002,0.362,0.928,-0.183,2201702
-0.002,0.362,0.928,-0.122,2201706
-0.003,0.36,0.928,-0.183,2201710
-0.003,0.36,0.928,-0.183,2201714
-0.0,0.36,0.925,-0.183,2201718
-0.0,0.36,0.925,-0.183,2201722
-0.0,0.36,0.925,-0.183,2201726
-0.002,0.36,0.924,-0.122,2201730
-0.002,0.36,0.924,-0.244,2201734
-0.004,0.36,0.927,-0.244,2201738
-0.004,0.36,0.927,-0.244,2201742
-0.004,0.36,0.927,-0.244,2201746
-0.003,0.361,0.926,-0.122,2201750
-0.003,0.361,0.926,-0.244,2201754
-0.004,0.362,0.927,-0.183,2201758
-0.004,0.362,0.927,-0.183,2201762
-0.004,0.362,0.927,-0.183,2201766
-0.003,0.359,0.928,-0.183,2201770
-0.003,0.359,0.928,-0.183,2201774
-0.003,0.36,0.926,-0.183,2201778
-0.003,0.36,0.926,-0.183,2201782
-0.003,0.36,0.926,-0.183,2201786
-0.002,0.36,0.925,-0.244,2201790
-0.002,0.36,0.925,-0.183,2201794
-0.003,0.361,0.926,-0.244,2201798
-0.003,0.361,0.926,-0.244,2201802
-0.003,0.361,0.926,-0.244,2201806
-0.003,0.36,0.925,-0.183,2201810
-0.003,0.36,0.925,-0.244,2201814
-0.003,0.359,0.924,-0.244,2201818
-0.003,0.359,0.924,-0.244,2201821
-0.003,0.359,0.924,-0.183,2201825
-0.004,0.359,0.927,0.0,2201829
-0.004,0.359,0.927,-0.061,2201833
-0.001,0.361,0.924,-0.183,2201837
-0.001,0.361,0.924,-0.183,2201841
-0.001,0.361,0.924,-0.244,2201845
-0.002,0.361,0.926,-0.183,2201849
-0.002,0.361,0.926,0.0,2201853
-0.001,0.36,0.926,-0.061,2201857
-0.001,0.36,0.926,-0.061,2201861
-0.001,0.36,0.926,-0.183,2201865
-0.002,0.362,0.925,-0.244,2201869
-0.002,0.362,0.925,-0.061,2201873
-0.001,0.361,0.926,-0.061,2201877
-0.001,0.361,0.926,-0.061,2201881
-0.001,0.361,0.926,-0.244,2201885
-0.001,0.36,0.925,-0.305,2201889
-0.001,0.36,0.925,-0.122,2201893
-0.002,0.361,0.925,-0.244,2201897
-0.002,0.361,0.925,-0.244,2201901
-0.002,0.361,0.925,-0.244,2201905
0.0,0.361,0.928,-0.122,2201909
0.0,0.361,0.928,-0.122,2201913
0.001,0.361,0.927,-0.244,2201917
0.001,0.361,0.927,-0.244,2201921
0.001,0.361,0.927,-0.183,2201925
-0.0,0.362,0.927,-0.244,2201929
-0.0,0.362,0.927,-0.244,2201933
-0.001,0.361,0.926,-0.244,2201937
-0.001,0.361,0.926,-0.244,2201941
-0.001,0.361,0.926,-0.183,2201945
-0.001,0.361,0.927,-0.244,2201949
-0.001,0.361,0.927,-0.183,2201953
-0.0,0.36,0.926,-0.244,2201957
-0.0,0.36,0.926,-0.244,2201961
-0.0,0.36,0.926,-0.305,2201965
-0.0,0.361,0.926,-0.183,2201968
-0.0,0.361,0.926,-0.244,2201972
-0.001,0.36,0.925,-0.305,2201976
-0.001,0.36,0.925,-0.305,2201980
-0.001,0.36,0.925,-0.183,2201984
-0.002,0.359,0.925,-0.183,2201988
-0.002,0.359,0.925,-0.244,2201992
-0.002,0.361,0.925,-0.061,2201996
-0.002,0.361,0.925,-0.061,2202000
-0.002,0.361,0.925,-0.061,2202004
-0.003,0.36,0.926,-0.183,2202008
-0.003,0.36,0.926,-0.122,2202012
-0.003,0.361,0.927,-0.122,2202016
-0.003,0.361,0.927,-0.122,2202020
-0.003,0.361,0.927,-0.244,2202024
-0.003,0.36,0.925,-0.244,2202028
-0.003,0.36,0.925,-0.427,2202032
-0.003,0.361,0.926,-0.366,2202036
-0.003,0.361,0.926,-0.366,2202040
-0.003,0.361,0.926,-0.244,2202044
-0.003,0.36,0.928,-0.183,2202048
-0.003,0.36,0.928,-0.183,2202052
-0.005,0.361,0.926,-0.122,2202056
-0.005,0.361,0.926,-0.122,2202060
-0.005,0.361,0.926,-0.122,2202064
-0.003,0.36,0.925,-0.183,2202068
-0.003,0.36,0.925,-0.366,2202072
-0.004,0.361,0.925,-0.244,2202076
-0.004,0.361,0.925,-0.244,2202080
-0.004,0.361,0.925,-0.183,2202084
-0.003,0.361,0.926,-0.305,2202088
-0.003,0.361,0.926,-0.305,2202092
-0.004,0.361,0.926,-0.366,2202096
-0.004,0.361,0.926,-0.366,2202100
-0.004,0.361,0.926,-0.366,2202104
-0.003,0.36,0.926,-0.244,2202108
-0.003,0.36,0.926,-0.061,2202112
-0.003,0.36,0.926,-0.061,2202116
-0.003,0.36,0.926,-0.061,2202120
-0.003,0.36,0.926,-0.183,2202123
-0.003,0.362,0.925,-0.122,2202127
-0.003,0.362,0.925,-0.122,2202131
-0.001,0.36,0.927,-0.244,2202135
-0.001,0.36,0.927,-0.244,2202139
-0.001,0.36,0.927,-0.244,2202143
-0.0,0.361,0.928,-0.122,2202147
-0.0,0.361,0.928,-0.183,2202151
0.001,0.361,0.926,-0.183,2202155
0.001,0.361,0.926,-0.183,2202159
0.001,0.361,0.926,-0.122,2202163
0.001,0.363,0.926,-0.122,2202167
0.001,0.363,0.926,-0.244,2202171
-0.001,0.364,0.927,-0.183,2202175
-0.001,0.364,0.927,-0.183,2202179
-0.001,0.364,0.927,-0.244,2202183
0.002,0.363,0.929,-0.061,2202187
0.002,0.363,0.929,-0.122,2202191
0.002,0.362,0.929,-0.183,2202195
0.002,0.362,0.929,-0.305,2202199
0.002,0.362,0.929,-0.305,2202203
0.001,0.361,0.927,-0.305,2202207
0.001,0.361,0.927,-0.122,2202211
0.002,0.361,0.926,-0.183,2202215
0.002,0.361,0.926,-0.244,2202219
0.002,0.361,0.926,-0.244,2202223
0.0,0.361,0.928,-0.183,2202227
0.0,0.361,0.928,-0.183,2202231
0.002,0.362,0.928,-0.244,2202235
0.002,0.362,0.928,-0.183,2202239
0.002,0.362,0.928,-0.183,2202243
0.001,0.362,0.926,-0.244,2202247
0.001,0.362,0.926,-0.244,2202251
-0.001,0.36,0.925,-0.244,2202255
-0.001,0.36,0.925,-0.244,2202259
-0.001,0.36,0.925,-0.244,2202263
-0.002,0.361,0.927,-0.122,2202267
-0.002,0.361,0.927,-0.305,2202271
0.0,0.36,0.926,-0.427,2202275
0.0,0.36,0.926,-0.366,2202278
0.0,0.36,0.926,-0.366,2202282
0.0,0.359,0.924,-0.244,2202286
0.0,0.359,0.924,-0.244,2202290
-0.003,0.36,0.926,-0.305,2202294
-0.003,0.36,0.926,-0.244,2202298
-0.003,0.36,0.926,-0.244,2202302
-0.005,0.359,0.923,-0.244,2202306
-0.005,0.359,0.923,-0.061,2202310
-0.006,0.359,0.925,-0.183,2202314
-0.006,0.359,0.925,-0.183,2202318
-0.006,0.359,0.925,-0.183,2202322
-0.006,0.356,0.926,-0.244,2202326
-0.006,0.356,0.926,-0.183,2202330
-0.006,0.358,0.924,-0.244,2202334
-0.006,0.358,0.924,-0.244,2202338
-0.006,0.358,0.924,-0.244,2202342
-0.008,0.36,0.924,-0.305,2202346
-0.008,0.36,0.924,-0.305,2202350
-0.007,0.36,0.924,-0.305,2202354
-0.007,0.36,0.924,-0.305,2202358
-0.007,0.36,0.924,-0.305,2202362
-0.006,0.359,0.924,-0.305,2202366
-0.006,0.359,0.924,-0.244,2202370
-0.004,0.359,0.926,-0.122,2202374
-0.004,0.359,0.926,-0.122,2202378
-0.004,0.359,0.926,-0.122,2202382
-0.004,0.361,0.926,-0.244,2202386
-0.004,0.361,0.926,-0.183,2202390
-0.003,0.362,0.927,-0.183,2202394
-0.003,0.362,0.927,-0.183,2202398
-0.003,0.362,0.927,-0.183,2202402
-0.001,0.362,0.925,-0.122,2202406
-0.001,0.362,0.925,-0.122,2202409
-0.002,0.361,0.926,-0.122,2202413
-0.002,0.361,0.926,-0.183,2202417
-0.002,0.361,0.926,-0.183,2202421
-0.001,0.362,0.927,-0.244,2202425
-0.001,0.362,0.927,-0.305,2202429
0.002,0.364,0.925,-0.061,2202433
0.002,0.364,0.925,-0.061,2202437
0.002,0.364,0.925,-0.061,2202441
0.003,0.361,0.925,-0.244,2202445
0.003,0.361,0.925,0.0,2202449
-0.0,0.362,0.925,-0.122,2202453
-0.0,0.362,0.925,0.0,2202457
-0.0,0.362,0.925,0.0,2202461
-0.001,0.359,0.923,-0.183,2202465
-0.001,0.359,0.923,-0.305,2202469
0.0,0.362,0.927,-0.244,2202473
0.0,0.362,0.927,-0.183,2202477
0.0,0.362,0.927,-0.183,2202481
0.002,0.365,0.941,-0.244,2202485
0.002,0.365,0.941,0.122,2202489
0.002,0.362,0.93,1.587,2202493
0.002,0.362,0.93,0.549,2202497
0.002,0.362,0.93,0.549,2202501
0.008,0.358,0.919,-0.366,2202505
0.008,0.358,0.919,-0.183,2202509
0.002,0.364,0.926,-0.122,2202513
0.002,0.364,0.926,-0.061,2202517
0.002,0.364,0.926,-0.061,2202521
0.001,0.368,0.934,-0.244,2202525
0.001,0.368,0.934,0.061,2202529
0.0,0.36,0.931,0.366,2202533
0.0,0.36,0.931,-0.122,2202536
0.0,0.36,0.931,-0.122,2202540
0.003,0.359,0.919,-0.305,2202544
0.003,0.359,0.919,-0.366,2202548
0.001,0.364,0.923,-0.244,2202552
0.001,0.364,0.923,-0.183,2202556
0.001,0.364,0.923,-0.183,2202560
-0.0,0.364,0.928,-0.305,2202564
-0.0,0.364,0.928,-0.183,2202568
-0.003,0.362,0.927,-0.122,2202572
-0.003,0.362,0.927,-0.061,2202576
-0.003,0.362,0.927,-0.061,2202580
-0.005,0.358,0.928,-0.061,2202584
-0.005,0.358,0.928,-0.244,2202588
-0.007,0.36,0.924,-0.366,2202592
-0.007,0.36,0.924,-0.244,2202596
-0.007,0.36,0.924,-0.244,2202600
-0.004,0.36,0.927,-0.183,2202604
-0.004,0.36,0.927,-0.305,2202608
-0.003,0.359,0.923,-0.427,2202612
-0.003,0.359,0.923,-0.244,2202616
-0.003,0.359,0.923,-0.244,2202620
-0.005,0.36,0.925,-0.244,2202624
-0.005,0.36,0.925,-0.183,2202628
-0.006,0.358,0.929,-0.183,2202632
-0.006,0.358,0.929,-0.244,2202636
-0.006,0.358,0.929,-0.244,2202640
-0.007,0.36,0.923,-0.244,2202644
-0.007,0.36,0.923,-0.244,2202648
-0.007,0.357,0.927,-0.244,2202652
-0.007,0.357,0.927,-0.183,2202656
-0.007,0.357,0.927,-0.183,2202660
-0.006,0.356,0.925,-0.122,2202664
-0.006,0.356,0.925,-0.122,2202668
-0.005,0.358,0.923,-0.244,2202672
-0.005,0.358,0.923,-0.305,2202676
-0.005,0.358,0.923,-0.305,2202680
-0.007,0.359,0.927,-0.122,2202684
-0.007,0.359,0.927,0.0,2202687
-0.005,0.36,0.926,-0.061,2202691
-0.005,0.36,0.926,-0.183,2202695
-0.005,0.36,0.926,-0.183,2202699
-0.003,0.363,0.925,-0.061,2202703
-0.003,0.363,0.925,-0.061,2202707
0.0,0.363,0.926,-0.061,2202711
0.0,0.363,0.926,-0.183,2202715
0.0,0.363,0.926,-0.183,2202719
0.002,0.364,0.929,-0.122,2202723
0.002,0.364,0.929,-0.244,2202727
0.001,0.364,0.927,-0.183,2202731
0.001,0.364,0.927,-0.183,2202735
0.001,0.364,0.927,-0.183,2202739
0.001,0.365,0.926,-0.122,2202743
0.001,0.365,0.926,-0.183,2202747
0.005,0.364,0.928,-0.122,2202751
0.005,0.364,0.928,-0.122,2202755
0.005,0.364,0.928,-0.122,2202759
0.005,0.362,0.926,-0.122,2202763
0.005,0.362,0.926,-0.244,2202767
0.007,0.365,0.927,-0.183,2202771
0.007,0.365,0.927,-0.122,2202775
0.007,0.365,0.927,-0.122,2202779
0.005,0.362,0.93,-0.061,2202783
0.005,0.362,0.93,-0.183,2202787
0.004,0.364,0.928,-0.183,2202791
0.004,0.364,0.928,-0.183,2202795
0.004,0.364,0.928,-0.183,2202799
0.002,0.362,0.928,-0.183,2202803
0.002,0.362,0.928,-0.183,2202807
0.0,0.361,0.927,-0.183,2202811
0.0,0.361,0.927,-0.244,2202815
0.0,0.361,0.927,-0.244,2202818
0.001,0.361,0.927,-0.244,2202822
0.001,0.361,0.927,-0.366,2202826
-0.001,0.36,0.928,-0.305,2202830
-0.001,0.36,0.928,-0.244,2202834
-0.001,0.36,0.928,-0.244,2202838
-0.0,0.359,0.927,-0.244,2202842
-0.0,0.359,0.927,-0.305,2202846
-0.003,0.358,0.927,-0.366,2202850
-0.003,0.358,0.927,-0.183,2202854
-0.003,0.358,0.927,-0.183,2202858
-0.005,0.359,0.924,-0.122,2202862
-0.005,0.359,0.924,-0.244,2202866
-0.006,0.359,0.926,-0.122,2202870
-0.006,0.359,0.926,-0.183,2202874
-0.006,0.359,0.926,-0.183,2202878
-0.006,0.359,0.926,-0.183,2202882
-0.006,0.359,0.926,-0.061,2202886
-0.009,0.358,0.924,-0.244,2202890
-0.009,0.358,0.924,-0.122,2202894
-0.009,0.358,0.924,-0.122,2202898
-0.009,0.358,0.922,-0.061,2202902
-0.009,0.358,0.922,-0.122,2202906
-0.011,0.362,0.92,-0.122,2202910
-0.011,0.362,0.92,-0.122,2202914
-0.011,0.362,0.92,-0.122,2202918
-0.011,0.362,0.925,-0.061,2202922
-0.011,0.362,0.925,-0.122,2202926
-0.009,0.361,0.925,-0.122,2202930
-0.009,0.361,0.925,-0.061,2202934
-0.009,0.361,0.925,-0.061,2202938
-0.008,0.361,0.923,-0.183,2202942
-0.008,0.361,0.923,-0.183,2202946
-0.005,0.361,0.922,-0.183,2202950
-0.005,0.361,0.922,-0.244,2202954
-0.005,0.361,0.922,-0.244,2202958
-0.003,0.361,0.924,-0.244,2202961
-0.003,0.361,0.924,-0.183,2202965
0.0,0.361,0.928,-0.122,2202969
0.0,0.361,0.928,-0.183,2202973
0.0,0.361,0.928,-0.183,2202977
0.0,0.36,0.929,-0.122,2202981
0.0,0.36,0.929,-0.122,2202985
0.004,0.361,0.927,-0.122,2202989
0.004,0.361,0.927,-0.061,2202993
0.004,0.361,0.927,-0.061,2202997
0.005,0.363,0.927,-0.183,2203001
0.005,0.363,0.927,-0.183,2203005
0.005,0.362,0.931,-0.122,2203009
0.005,0.362,0.931,-0.122,2203013
0.005,0.362,0.931,-0.122,2203017
0.005,0.362,0.93,-0.061,2203021
0.005,0.362,0.93,-0.061,2203025
0.007,0.362,0.927,-0.183,2203029
0.007,0.362,0.927,-0.305,2203033
0.007,0.362,0.927,-0.305,2203037
0.006,0.362,0.928,-0.244,2203041
0.006,0.362,0.928,-0.183,2203045
0.005,0.361,0.929,-0.244,2203049
0.005,0.361,0.929,-0.366,2203053
0.005,0.361,0.929,-0.366,2203057
0.005,0.361,0.929,-0.183,2203061
0.005,0.361,0.929,-0.366,2203065
0.004,0.36,0.927,-0.244,2203069
0.004,0.36,0.927,-0.122,2203073
0.004,0.36,0.927,-0.122,2203077
0.003,0.361,0.927,-0.305,2203081
0.003,0.361,0.927,-0.244,2203085
0.001,0.361,0.927,-0.122,2203089
0.001,0.361,0.927,-0.183,2203093
-0.0,0.361,0.927,-0.183,2203097
-0.0,0.361,0.927,-0.183,2203101
-0.0,0.361,0.927,-0.305,2203105
-0.002,0.361,0.926,-0.305,2203109
-0.002,0.361,0.926,-0.305,2203113
-0.004,0.362,0.924,-0.305,2203117
-0.004,0.362,0.924,-0.305,2203121
-0.004,0.362,0.924,-0.244,2203125
-0.007,0.361,0.923,-0.366,2203129
-0.007,0.361,0.923,-0.183,2203132
-0.009,0.36,0.922,-0.061,2203136
-0.009,0.36,0.922,-0.061,2203140
-0.009,0.36,0.922,-0.122,2203144
-0.01,0.36,0.922,-0.244,2203148
-0.01,0.36,0.922,-0.244,2203152
-0.01,0.36,0.924,-0.305,2203156
-0.01,0.36,0.924,-0.305,2203160
-0.01,0.36,0.924,-0.244,2203164
-0.01,0.359,0.924,-0.305,2203168
-0.01,0.359,0.924,-0.183,2203172
-0.009,0.358,0.924,-0.183,2203176
-0.009,0.358,0.924,-0.183,2203180
-0.009,0.358,0.924,-0.061,2203184
-0.008,0.36,0.926,-0.122,2203188
-0.008,0.36,0.926,-0.183,2203192
-0.007,0.359,0.927,-0.183,2203196
-0.007,0.359,0.927,-0.183,2203200
-0.007,0.359,0.927,-0.061,2203204
-0.005,0.358,0.926,-0.183,2203208
-0.005,0.358,0.926,-0.183,2203212
-0.004,0.358,0.925,-0.244,2203216
-0.004,0.358,0.925,-0.244,2203220
-0.004,0.358,0.925,0.0,2203224
-0.001,0.36,0.927,0.0,2203228
-0.001,0.36,0.927,-0.244,2203232
0.003,0.36,0.926,-0.244,2203236
0.003,0.36,0.926,-0.244,2203240
0.003,0.36,0.926,-0.244,2203244
0.003,0.36,0.925,-0.244,2203248
0.003,0.36,0.925,-0.183,2203252
0.003,0.363,0.928,-0.061,2203256
0.003,0.363,0.928,-0.061,2203260
0.003,0.363,0.928,-0.183,2203264
0.004,0.362,0.93,-0.122,2203268
0.004,0.362,0.93,-0.183,2203272
0.005,0.363,0.927,-0.122,2203276
0.005,0.363,0.927,-0.122,2203279
0.005,0.363,0.927,-0.183,2203283
0.005,0.364,0.928,-0.305,2203287
0.005,0.364,0.928,-0.244,2203291
0.005,0.365,0.928,-0.244,2203295
0.005,0.365,0.928,-0.244,2203299
0.005,0.365,0.928,-0.183,2203303
0.006,0.363,0.928,-0.244,2203307
0.006,0.363,0.928,-0.183,2203311
0.005,0.363,0.928,-0.244,2203315
0.005,0.363,0.928,-0.244,2203319
0.005,0.363,0.928,-0.244,2203323
0.003,0.363,0.929,-0.244,2203327
0.003,0.363,0.929,-0.366,2203331
0.002,0.363,0.928,-0.305,2203335
0.002,0.363,0.928,-0.305,2203339
0.002,0.363,0.928,-0.183,2203343
0.001,0.361,0.926,-0.305,2203347
0.001,0.361,0.926,-0.244,2203351
-0.0,0.361,0.925,-0.244,2203355
-0.0,0.361,0.925,-0.244,2203359
-0.0,0.361,0.925,-0.244,2203363
-0.003,0.36,0.926,-0.305,2203367
-0.003,0.36,0.926,-0.305,2203371
-0.003,0.36,0.925,-0.122,2203375
-0.003,0.36,0.925,-0.122,2203379
-0.003,0.36,0.925,-0.305,2203383
-0.007,0.359,0.925,-0.183,2203387
-0.007,0.359,0.925,-0.183,2203391
-0.006,0.358,0.924,-0.366,2203395
-0.006,0.358,0.924,-0.366,2203399
-0.006,0.358,0.924,-0.183,2203403
-0.009,0.357,0.924,-0.061,2203407
-0.009,0.357,0.924,-0.244,2203411
-0.01,0.357,0.924,-0.366,2203415
-0.01,0.357,0.924,-0.366,2203419
-0.01,0.357,0.924,-0.305,2203423
-0.009,0.359,0.923,-0.183,2203427
-0.009,0.359,0.923,-0.183,2203431
-0.009,0.36,0.922,-0.244,2203435
-0.009,0.36,0.922,-0.244,2203439
-0.009,0.36,0.922,-0.244,2203443
-0.009,0.36,0.924,-0.183,2203447
-0.009,0.36,0.924,-0.122,2203450
-0.008,0.358,0.923,-0.061,2203454
-0.008,0.358,0.923,-0.061,2203458
-0.008,0.358,0.923,-0.122,2203462
-0.005,0.359,0.925,-0.061,2203466
-0.005,0.359,0.925,-0.183,2203470
-0.003,0.36,0.926,-0.244,2203474
-0.003,0.36,0.926,-0.244,2203478
-0.003,0.36,0.926,-0.122,2203482
-0.003,0.36,0.927,-0.183,2203486
-0.003,0.36,0.927,0.0,2203490
-0.001,0.363,0.928,0.061,2203494
-0.001,0.363,0.928,0.061,2203498
-0.001,0.363,0.928,-0.061,2203502
0.001,0.363,0.927,0.0,2203506
0.001,0.363,0.927,-0.061,2203510
0.001,0.365,0.927,0.0,2203514
0.001,0.365,0.927,0.0,2203518
0.001,0.365,0.927,-0.122,2203522
0.003,0.364,0.928,-0.305,2203526
0.003,0.364,0.928,-0.183,2203530
0.003,0.364,0.928,-0.183,2203534
0.003,0.364,0.928,-0.183,2203538
0.003,0.364,0.928,-0.244,2203542
0.005,0.364,0.927,-0.183,2203546
0.005,0.364,0.927,-0.244,2203550
0.006,0.363,0.928,-0.183,2203554
0.006,0.363,0.928,-0.183,2203558
0.006,0.363,0.928,-0.122,2203562
0.004,0.362,0.929,-0.183,2203566
0.004,0.362,0.929,-0.366,2203570
0.006,0.362,0.929,-0.183,2203573
0.006,0.362,0.929,-0.183,2203577
0.006,0.362,0.929,-0.061,2203581
0.004,0.361,0.928,-0.244,2203585
0.004,0.361,0.928,-0.305,2203589
0.002,0.361,0.928,-0.183,2203593
0.002,0.361,0.928,-0.183,2203597
0.002,0.361,0.928,-0.183,2203601
0.001,0.36,0.929,-0.183,2203605
0.001,0.36,0.929,-0.244,2203609
-0.002,0.361,0.926,-0.244,2203613
-0.002,0.361,0.926,-0.244,2203617
-0.002,0.361,0.926,-0.305,2203621
-0.001,0.36,0.925,-0.183,2203625
-0.001,0.36,0.925,-0.183,2203629
-0.002,0.358,0.927,-0.244,2203633
-0.002,0.358,0.927,-0.244,2203637
-0.002,0.358,0.927,-0.366,2203641
-0.005,0.36,0.926,-0.244,2203645
-0.005,0.36,0.926,-0.183,2203649
-0.007,0.36,0.926,-0.183,2203653
-0.007,0.36,0.926,-0.183,2203657
-0.007,0.36,0.926,-0.122,2203661
-0.006,0.359,0.925,0.0,2203665
-0.006,0.359,0.925,-0.061,2203669
-0.009,0.359,0.923,-0.244,2203673
-0.009,0.359,0.923,-0.244,2203677
-0.009,0.359,0.923,-0.244,2203681
-0.009,0.359,0.924,-0.244,2203685
-0.009,0.359,0.924,-0.183,2203689
-0.009,0.359,0.925,-0.244,2203693
-0.009,0.359,0.925,-0.244,2203697
-0.009,0.359,0.925,-0.183,2203701
-0.01,0.359,0.924,-0.183,2203705
-0.01,0.359,0.924,-0.183,2203709
-0.006,0.36,0.924,-0.122,2203712
-0.006,0.36,0.924,-0.122,2203716
-0.006,0.36,0.924,-0.244,2203720
-0.004,0.361,0.926,-0.305,2203724
-0.004,0.361,0.926,-0.244,2203728
-0.004,0.361,0.927,-0.122,2203732
-0.004,0.361,0.927,-0.122,2203736
-0.004,0.361,0.927,-0.183,2203740
-0.002,0.36,0.928,-0.183,2203744
-0.002,0.36,0.928,0.061,2203748
0.0,0.36,0.926,-0.183,2203752
0.0,0.36,0.926,-0.183,2203756
0.0,0.36,0.926,-0.244,2203760
0.002,0.361,0.926,-0.122,2203764
0.002,0.361,0.926,-0.122,2203768
0.002,0.362,0.928,-0.183,2203772
0.002,0.362,0.928,-0.183,2203776
0.002,0.362,0.928,-0.122,2203780
0.006,0.362,0.928,-0.122,2203784
0.006,0.362,0.928,-0.183,2203788
0.004,0.363,0.928,-0.122,2203792
0.004,0.363,0.928,-0.122,2203796
0.004,0.363,0.928,-0.183,2203800
0.004,0.361,0.928,-0.244,2203804
0.004,0.361,0.928,-0.305,2203808
0.007,0.362,0.929,-0.183,2203812
0.007,0.362,0.929,-0.183,2203816
0.007,0.362,0.929,-0.183,2203820
0.006,0.363,0.929,-0.305,2203824
0.006,0.363,0.929,-0.305,2203828
0.004,0.364,0.928,-0.244,2203832
0.004,0.364,0.928,-0.244,2203836
0.004,0.364,0.928,-0.183,2203840
0.004,0.363,0.928,-0.244,2203844
0.004,0.363,0.928,-0.305,2203848
0.003,0.363,0.928,-0.183,2203852
0.003,0.363,0.928,-0.244,2203856
0.003,0.363,0.928,-0.244,2203860
-0.001,0.361,0.927,-0.183,2203864
-0.001,0.361,0.927,-0.244,2203868
-0.002,0.363,0.926,-0.305,2203871
-0.002,0.363,0.926,-0.183,2203875
-0.002,0.363,0.926,-0.183,2203879
-0.004,0.361,0.927,-0.244,2203883
-0.004,0.361,0.927,-0.244,2203887
-0.005,0.36,0.924,-0.244,2203891
-0.005,0.36,0.924,-0.305,2203895
-0.005,0.36,0.924,-0.305,2203899
-0.006,0.362,0.924,-0.366,2203903
-0.006,0.362,0.924,-0.244,2203907
-0.006,0.36,0.925,-0.122,2203911
-0.006,0.36,0.925,-0.122,2203915
-0.006,0.36,0.925,-0.122,2203919
-0.007,0.36,0.925,-0.183,2203923
-0.007,0.36,0.925,-0.305,2203927
-0.008,0.36,0.922,-0.366,2203931
-0.008,0.36,0.922,-0.305,2203935
-0.008,0.36,0.922,-0.305,2203939
-0.008,0.359,0.924,-0.183,2203943
-0.008,0.359,0.924,-0.183,2203947
-0.008,0.36,0.925,-0.244,2203951
-0.008,0.36,0.925,-0.122,2203955
-0.008,0.36,0.925,-0.122,2203959
-0.006,0.36,0.925,-0.183,2203963
-0.006,0.36,0.925,-0.061,2203967
-0.007,0.359,0.927,-0.061,2203971
-0.007,0.359,0.927,-0.183,2203975
-0.007,0.359,0.927,-0.183,2203979
-0.005,0.359,0.924,-0.122,2203983
-0.005,0.359,0.924,-0.122,2203987
-0.005,0.36,0.924,-0.122,2203991
-0.005,0.36,0.924,-0.122,2203995
-0.005,0.36,0.924,-0.122,2203999
-0.003,0.36,0.926,-0.061,2204003
-0.003,0.36,0.926,0.0,2204007
-0.001,0.361,0.927,-0.122,2204011
-0.001,0.361,0.927,-0.122,2204015
-0.001,0.361,0.927,-0.122,2204018
0.001,0.362,0.927,-0.183,2204022
0.001,0.362,0.927,-0.122,2204026
0.001,0.362,0.926,-0.183,2204030
0.001,0.362,0.926,-0.305,2204034
0.001,0.362,0.926,-0.305,2204038
0.003,0.362,0.927,-0.183,2204042
0.003,0.362,0.927,-0.183,2204046
0.004,0.363,0.928,-0.122,2204050
0.004,0.363,0.928,-0.244,2204054
0.004,0.363,0.928,-0.244,2204058
0.003,0.363,0.928,-0.366,2204062
0.003,0.363,0.928,-0.183,2204066
0.003,0.363,0.927,-0.183,2204070
0.003,0.363,0.927,-0.244,2204074
0.003,0.363,0.927,-0.244,2204078
0.004,0.363,0.928,-0.183,2204082
0.004,0.363,0.928,-0.305,2204086
0.003,0.363,0.928,-0.366,2204090
0.003,0.363,0.928,-0.183,2204094
0.003,0.363,0.928,-0.183,2204098
0.002,0.362,0.927,-0.183,2204102
0.002,0.362,0.927,-0.305,2204106
0.003,0.361,0.927,-0.305,2204110
0.003,0.361,0.927,-0.244,2204114
0.003,0.361,0.927,-0.244,2204118
0.0,0.362,0.926,-0.305,2204122
0.0,0.362,0.926,-0.305,2204126
0.0,0.361,0.926,-0.244,2204130
0.0,0.361,0.926,-0.183,2204134
0.0,0.361,0.926,-0.183,2204138
-0.002,0.361,0.926,-0.122,2204142
-0.002,0.361,0.926,-0.244,2204146
-0.004,0.36,0.926,-0.183,2204150
-0.004,0.36,0.926,-0.244,2204154
-0.004,0.36,0.926,-0.244,2204158
-0.005,0.36,0.926,-0.183,2204162
-0.005,0.36,0.926,-0.122,2204166
-0.005,0.36,0.924,-0.122,2204170
-0.005,0.36,0.924,-0.244,2204174
-0.005,0.36,0.924,-0.244,2204178
-0.008,0.359,0.926,-0.305,2204182
-0.008,0.359,0.926,-0.305,2204186
-0.007,0.359,0.925,-0.183,2204190
-0.007,0.359,0.925,-0.183,2204194
-0.007,0.359,0.925,-0.183,2204198
-0.007,0.359,0.925,-0.183,2204201
-0.007,0.359,0.925,-0.305,2204205
-0.007,0.36,0.925,-0.183,2204209
-0.007,0.36,0.925,-0.122,2204213
-0.007,0.36,0.925,-0.122,2204217
-0.007,0.359,0.925,-0.122,2204221
-0.007,0.359,0.925,-0.305,2204225
-0.006,0.36,0.925,-0.244,2204229
-0.006,0.36,0.925,-0.061,2204233
-0.006,0.36,0.925,-0.061,2204237
-0.005,0.361,0.926,-0.122,2204241
-0.005,0.361,0.926,-0.183,2204245
-0.002,0.361,0.928,-0.122,2204249
-0.002,0.361,0.928,-0.122,2204253
-0.002,0.361,0.928,-0.122,2204257
-0.001,0.361,0.925,-0.183,2204261
-0.001,0.361,0.925,-0.122,2204265
-0.001,0.361,0.927,-0.244,2204269
-0.001,0.361,0.927,0.0,2204273
-0.001,0.361,0.927,0.0,2204277
-0.0,0.363,0.928,0.0,2204281
-0.0,0.363,0.928,-0.122,2204285
0.001,0.362,0.926,-0.183,2204289
0.001,0.362,0.926,-0.244,2204293
0.001,0.362,0.926,-0.244,2204297
0.002,0.363,0.927,-0.244,2204301
0.002,0.363,0.927,-0.183,2204305
0.004,0.364,0.927,-0.122,2204309
0.004,0.364,0.927,-0.305,2204313
0.004,0.364,0.927,-0.305,2204317
0.003,0.362,0.929,-0.305,2204321
0.003,0.362,0.929,-0.183,2204325
0.003,0.362,0.929,-0.183,2204329
0.003,0.362,0.929,-0.183,2204333
0.003,0.362,0.929,-0.183,2204336
0.003,0.361,0.928,-0.305,2204340
0.003,0.361,0.928,-0.183,2204344
0.003,0.36,0.928,-0.061,2204348
0.003,0.36,0.928,-0.061,2204352
0.003,0.36,0.928,-0.061,2204356
0.003,0.361,0.928,-0.183,2204360
0.003,0.361,0.928,-0.305,2204364
0.002,0.362,0.928,-0.305,2204368
0.002,0.362,0.928,-0.244,2204372
0.002,0.362,0.928,-0.244,2204376
0.001,0.362,0.925,-0.122,2204380
0.001,0.362,0.925,-0.244,2204384
-0.001,0.36,0.925,-0.366,2204388
-0.001,0.36,0.925,-0.244,2204392
-0.001,0.36,0.925,-0.244,2204396
-0.001,0.359,0.927,-0.183,2204400
-0.001,0.359,0.927,-0.366,2204404
-0.003,0.361,0.924,-0.305,2204408
-0.003,0.361,0.924,0.0,2204412
-0.003,0.361,0.924,0.0,2204416
-0.004,0.359,0.927,-0.183,2204420
-0.004,0.359,0.927,-0.305,2204424
-0.007,0.361,0.924,-0.183,2204428
-0.007,0.361,0.924,-0.122,2204432
-0.007,0.361,0.924,-0.122,2204436
-0.007,0.36,0.925,-0.244,2204440
-0.007,0.36,0.925,-0.244,2204444
-0.007,0.358,0.925,-0.244,2204448
-0.007,0.358,0.925,-0.305,2204452
-0.007,0.358,0.925,-0.305,2204456
-0.006,0.36,0.924,-0.183,2204460
-0.006,0.36,0.924,-0.183,2204464
-0.008,0.359,0.926,-0.061,2204468
-0.008,0.359,0.926,-0.183,2204472
-0.008,0.359,0.926,-0.183,2204475
-0.007,0.361,0.923,-0.183,2204479
-0.007,0.361,0.923,-0.122,2204483
-0.004,0.361,0.927,-0.244,2204487
-0.004,0.361,0.927,-0.183,2204491
-0.004,0.361,0.927,-0.183,2204495
-0.004,0.359,0.926,-0.061,2204499
-0.004,0.359,0.926,-0.122,2204503
-0.004,0.36,0.927,-0.061,2204507
-0.004,0.36,0.927,-0.122,2204511
-0.004,0.36,0.927,-0.122,2204515
-0.003,0.361,0.927,-0.122,2204519
-0.003,0.361,0.927,-0.244,2204523
-0.001,0.361,0.926,-0.244,2204527
-0.001,0.361,0.926,-0.061,2204531
-0.001,0.361,0.926,-0.061,2204535
0.002,0.361,0.927,-0.122,2204539
0.002,0.361,0.927,-0.244,2204543
0.002,0.36,0.925,-0.183,2204547
0.002,0.36,0.925,-0.061,2204551
0.002,0.363,0.93,-0.122,2204555
0.002,0.363,0.93,-0.122,2204559
0.002,0.363,0.93,-0.244,2204563
0.002,0.361,0.928,-0.305,2204567
0.002,0.361,0.928,-0.061,2204571
0.002,0.362,0.927,-0.122,2204575
0.002,0.362,0.927,-0.122,2204579
0.002,0.362,0.927,-0.183,2204583
0.004,0.362,0.928,-0.244,2204587
0.004,0.362,0.928,-0.183,2204591
0.004,0.362,0.927,-0.122,2204595
0.004,0.362,0.927,-0.122,2204599
0.004,0.362,0.927,-0.183,2204603
0.003,0.362,0.931,-0.244,2204607
0.003,0.362,0.931,-0.305,2204611
0.002,0.362,0.927,-0.122,2204615
0.002,0.362,0.927,-0.122,2204619
0.002,0.362,0.927,-0.122,2204623
0.001,0.362,0.927,-0.305,2204627
0.001,0.362,0.927,-0.305,2204631
-0.002,0.363,0.927,-0.244,2204635
-0.002,0.363,0.927,-0.244,2204638
-0.002,0.363,0.927,-0.183,2204642
-0.003,0.363,0.925,-0.122,2204646
-0.003,0.363,0.925,-0.305,2204650
-0.001,0.361,0.927,-0.183,2204654
-0.001,0.361,0.927,-0.183,2204658
-0.001,0.361,0.927,-0.244,2204662
-0.004,0.362,0.925,-0.305,2204666
-0.004,0.362,0.925,-0.183,2204670
-0.006,0.36,0.925,-0.244,2204674
-0.006,0.36,0.925,-0.244,2204678
-0.006,0.36,0.925,-0.244,2204682
-0.005,0.359,0.925,-0.061,2204686
-0.005,0.359,0.925,-0.305,2204690
-0.006,0.36,0.924,-0.244,2204694
-0.006,0.36,0.924,-0.244,2204698
-0.006,0.36,0.924,-0.061,2204702
-0.006,0.359,0.924,-0.305,2204706
-0.006,0.359,0.924,-0.244,2204710
-0.007,0.359,0.923,-0.183,2204714
-0.007,0.359,0.923,-0.183,2204718
-0.007,0.359,0.923,-0.366,2204722
-0.005,0.359,0.926,-0.305,2204726
-0.005,0.359,0.926,-0.061,2204730
-0.006,0.361,0.926,-0.122,2204734
-0.006,0.361,0.926,-0.122,2204738
-0.006,0.361,0.926,-0.244,2204742
-0.006,0.36,0.925,-0.122,2204746
-0.006,0.36,0.925,-0.244,2204750
-0.004,0.36,0.925,-0.244,2204754
-0.004,0.36,0.925,-0.244,2204758
-0.004,0.36,0.925,-0.183,2204762
-0.005,0.36,0.927,-0.244,2204766
-0.005,0.36,0.927,-0.366,2204770
-0.001,0.358,0.928,-0.183,2204774
-0.001,0.358,0.928,-0.183,2204778
-0.001,0.358,0.928,-0.122,2204782
-0.001,0.36,0.926,-0.183,2204785
-0.001,0.36,0.926,-0.122,2204789
0.001,0.362,0.927,-0.244,2204793
0.001,0.362,0.927,-0.244,2204797
0.001,0.362,0.927,-0.183,2204801
0.0,0.362,0.928,-0.061,2204805
0.0,0.362,0.928,-0.122,2204809
0.002,0.362,0.928,-0.122,2204813
0.002,0.362,0.928,-0.122,2204817
0.002,0.362,0.928,-0.183,2204821
0.004,0.362,0.929,-0.183,2204825
0.004,0.362,0.929,-0.244,2204829
0.003,0.361,0.928,-0.183,2204833
0.003,0.361,0.928,-0.183,2204837
0.003,0.361,0.928,-0.244,2204841
0.002,0.362,0.928,-0.183,2204845
0.002,0.362,0.928,-0.244,2204849
0.002,0.361,0.927,-0.244,2204853
0.002,0.361,0.927,-0.244,2204857
0.002,0.361,0.927,-0.305,2204861
0.002,0.361,0.928,-0.183,2204865
0.002,0.361,0.928,-0.122,2204869
0.0,0.362,0.929,-0.122,2204873
0.0,0.362,0.929,-0.122,2204877
0.0,0.362,0.929,-0.183,2204881
-0.001,0.363,0.926,-0.183,2204885
-0.001,0.363,0.926,-0.122,2204889
-0.001,0.362,0.927,-0.183,2204893
-0.001,0.362,0.927,-0.183,2204897
-0.001,0.362,0.927,-0.244,2204901
-0.002,0.361,0.926,-0.244,2204905
-0.002,0.361,0.926,-0.183,2204908
-0.004,0.36,0.927,-0.122,2204912
-0.004,0.36,0.927,-0.122,2204916
-0.004,0.36,0.927,-0.122,2204920
-0.005,0.36,0.928,-0.244,2204924
-0.005,0.36,0.928,-0.122,2204928
-0.005,0.36,0.925,-0.183,2204932
-0.005,0.36,0.925,-0.183,2204936
-0.005,0.36,0.925,-0.244,2204940
-0.005,0.359,0.925,-0.244,2204944
-0.005,0.359,0.925,-0.244,2204948
-0.004,0.358,0.924,0.0,2204952
-0.004,0.358,0.924,0.0,2204956
-0.004,0.358,0.924,-0.183,2204960
-0.004,0.36,0.925,-0.244,2204964
-0.004,0.36,0.925,-0.305,2204968
-0.005,0.358,0.927,-0.244,2204972
-0.005,0.358,0.927,-0.244,2204976
-0.005,0.358,0.927,-0.183,2204980
-0.005,0.36,0.923,-0.183,2204984
-0.005,0.36,0.923,-0.183,2204988
-0.006,0.359,0.927,-0.183,2204992
-0.006,0.359,0.927,-0.183,2204996
-0.006,0.359,0.927,-0.183,2205000
-0.004,0.361,0.925,-0.122,2205004
-0.004,0.361,0.925,-0.244,2205008
-0.005,0.361,0.926,-0.183,2205012
-0.005,0.361,0.926,-0.183,2205016
-0.005,0.361,0.926,-0.122,2205020
-0.003,0.36,0.927,-0.183,2205024
-0.003,0.36,0.927,-0.061,2205028
-0.002,0.361,0.924,-0.183,2205032
-0.002,0.361,0.924,-0.183,2205036
-0.002,0.361,0.924,-0.122,2205040
0.0,0.361,0.928,-0.183,2205044
0.0,0.361,0.928,-0.305,2205047
0.0,0.362,0.926,-0.183,2205051
0.0,0.362,0.926,-0.183,2205055
0.0,0.362,0.926,-0.305,2205059
-0.0,0.363,0.928,-0.305,2205063
-0.0,0.363,0.928,-0.122,2205067
0.001,0.36,0.929,-0.183,2205071
0.001,0.36,0.929,-0.183,2205075
0.001,0.36,0.929,-0.183,2205079
0.002,0.364,0.925,-0.183,2205083
0.002,0.364,0.925,-0.122,2205087
0.003,0.361,0.931,-0.183,2205091
0.003,0.361,0.931,-0.183,2205095
0.003,0.361,0.931,-0.183,2205099
0.002,0.362,0.926,-0.244,2205103
0.002,0.362,0.926,-0.061,2205107
0.0,0.363,0.931,-0.183,2205111
0.0,0.363,0.931,-0.183,2205115
0.0,0.363,0.931,-0.183,2205119
0.003,0.36,0.927,-0.061,2205123
0.003,0.36,0.927,-0.244,2205127
0.002,0.362,0.924,-0.244,2205131
0.002,0.362,0.924,-0.244,2205135
0.002,0.362,0.924,-0.183,2205139
0.0,0.362,0.931,-0.366,2205143
0.0,0.362,0.931,-0.244,2205147
-0.001,0.36,0.925,-0.122,2205151
-0.001,0.36,0.925,-0.122,2205155
-0.001,0.36,0.925,-0.244,2205159
-0.001,0.361,0.929,-0.305,2205163
-0.001,0.361,0.929,-0.305,2205167
-0.002,0.358,0.925,-0.122,2205171
-0.002,0.358,0.925,-0.122,2205175
-0.002,0.358,0.925,0.0,2205179
-0.004,0.362,0.927,-0.183,2205182
-0.004,0.362,0.927,-0.305,2205186
-0.005,0.359,0.928,-0.305,2205190
-0.005,0.359,0.928,-0.305,2205194
-0.005,0.359,0.928,-0.183,2205198
-0.006,0.361,0.924,-0.183,2205202
-0.006,0.361,0.924,-0.305,2205206
-0.005,0.36,0.928,-0.183,2205210
-0.005,0.36,0.928,-0.183,2205214
-0.005,0.36,0.928,-0.244,2205218
-0.006,0.361,0.923,-0.122,2205222
-0.006,0.361,0.923,-0.061,2205226
-0.006,0.361,0.925,-0.183,2205230
-0.006,0.361,0.925,-0.183,2205234
-0.006,0.361,0.925,-0.244,2205238
-0.005,0.357,0.926,-0.122,2205242
-0.005,0.357,0.926,-0.183,2205246
-0.005,0.362,0.924,-0.183,2205250
-0.005,0.362,0.924,-0.183,2205254
-0.005,0.362,0.924,-0.183,2205258
-0.006,0.36,0.927,-0.305,2205262
-0.006,0.36,0.927,-0.183,2205266
-0.006,0.361,0.922,-0.122,2205270
-0.006,0.361,0.922,-0.122,2205274
-0.006,0.361,0.922,-0.061,2205278
-0.002,0.362,0.928,-0.122,2205282
-0.002,0.362,0.928,0.0,2205286
-0.002,0.361,0.926,-0.122,2205290
-0.002,0.361,0.926,-0.122,2205294
-0.002,0.361,0.926,-0.183,2205298
-0.0,0.362,0.926,-0.122,2205302
-0.0,0.362,0.926,-0.244,2205306
0.0,0.36,0.929,-0.122,2205310
0.0,0.36,0.929,-0.122,2205313
0.0,0.36,0.929,0.061,2205317
0.001,0.362,0.924,-0.122,2205321
0.001,0.362,0.924,-0.244,2205325
0.002,0.361,0.931,-0.183,2205329
0.002,0.361,0.931,-0.183,2205333
0.002,0.361,0.931,-0.183,2205337
0.001,0.361,0.926,-0.122,2205341
0.001,0.361,0.926,-0.122,2205345
0.003,0.364,0.929,-0.122,2205349
0.003,0.364,0.929,-0.122,2205353
0.003,0.364,0.929,-0.061,2205357
0.002,0.36,0.928,-0.183,2205361
0.002,0.36,0.928,-0.183,2205365
0.002,0.364,0.924,-0.183,2205369
0.002,0.364,0.924,-0.183,2205373
0.002,0.364,0.924,-0.366,2205377
0.004,0.361,0.931,-0.183,2205381
0.004,0.361,0.931,-0.244,2205385
0.002,0.363,0.926,-0.244,2205389
0.002,0.363,0.926,-0.244,2205393
0.002,0.363,0.926,-0.305,2205397
0.001,0.362,0.929,-0.305,2205401
0.001,0.362,0.929,-0.122,2205405
-0.002,0.359,0.925,-0.183,2205409
-0.002,0.359,0.925,-0.183,2205413
-0.002,0.359,0.925,-0.183,2205417
-0.004,0.363,0.924,-0.244,2205421
-0.004,0.363,0.924,-0.244,2205425
-0.003,0.361,0.929,-0.244,2205429
-0.003,0.361,0.929,-0.244,2205433
-0.003,0.361,0.929,-0.122,2205437
-0.003,0.361,0.924,-0.183,2205441
-0.003,0.361,0.924,-0.183,2205445
-0.003,0.36,0.928,-0.244,2205449
-0.003,0.36,0.928,-0.244,2205453
-0.003,0.36,0.928,-0.244,2205456
-0.004,0.36,0.921,-0.183,2205460
-0.004,0.36,0.921,-0.183,2205464
-0.004,0.362,0.925,-0.305,2205468
-0.004,0.362,0.925,-0.305,2205472
-0.004,0.362,0.925,-0.244,2205476
-0.006,0.36,0.927,-0.183,2205480
-0.006,0.36,0.927,-0.305,2205484
-0.005,0.36,0.924,-0.183,2205488
-0.005,0.36,0.924,-0.183,2205492
-0.005,0.36,0.924,-0.122,2205496
-0.004,0.36,0.927,-0.305,2205500
-0.004,0.36,0.927,-0.183,2205504
-0.005,0.36,0.922,-0.244,2205508
-0.005,0.36,0.922,-0.244,2205512
-0.005,0.36,0.922,-0.122,2205516
-0.002,0.36,0.928,-0.061,2205520
-0.002,0.36,0.928,-0.061,2205524
-0.003,0.359,0.928,-0.122,2205528
-0.003,0.359,0.928,-0.122,2205532
-0.003,0.359,0.928,-0.183,2205536
-0.003,0.362,0.925,-0.183,2205540
-0.003,0.362,0.925,-0.183,2205544
-0.002,0.36,0.927,-0.183,2205548
-0.002,0.36,0.927,-0.183,2205552
-0.002,0.36,0.927,-0.061,2205556
-0.0,0.362,0.924,-0.305,2205560
-0.0,0.362,0.924,-0.183,2205564
0.0,0.361,0.93,0.0,2205568
0.0,0.361,0.93,0.0,2205572
0.0,0.361,0.93,-0.061,2205576
0.0,0.36,0.926,-0.122,2205580
0.0,0.36,0.926,-0.183,2205584
0.002,0.363,0.926,-0.183,2205588
0.002,0.363,0.926,-0.183,2205592
0.002,0.363,0.926,-0.183,2205596
0.002,0.361,0.926,-0.122,2205600
0.002,0.361,0.926,-0.122,2205604
0.0,0.363,0.926,-0.183,2205608
0.0,0.363,0.926,-0.183,2205612
0.0,0.363,0.926,-0.244,2205616
0.001,0.361,0.931,-0.244,2205620
0.001,0.361,0.931,-0.244,2205623
0.002,0.363,0.926,-0.244,2205627
0.002,0.363,0.926,-0.122,2205631
0.002,0.363,0.926,-0.122,2205635
0.001,0.363,0.927,-0.244,2205639
0.001,0.363,0.927,-0.122,2205643
-0.0,0.36,0.927,-0.305,2205647
-0.0,0.36,0.927,-0.183,2205651
-0.0,0.36,0.927,-0.183,2205655
0.001,0.361,0.926,-0.305,2205659
0.001,0.361,0.926,-0.305,2205663
-0.001,0.359,0.928,-0.183,2205667
-0.001,0.359,0.928,-0.244,2205671
-0.001,0.359,0.928,-0.244,2205675
-0.001,0.362,0.925,-0.305,2205679
-0.001,0.362,0.925,-0.244,2205683
-0.003,0.361,0.927,-0.183,2205687
-0.003,0.361,0.927,-0.244,2205691
-0.003,0.361,0.927,-0.244,2205695
-0.003,0.36,0.923,-0.183,2205699
-0.003,0.36,0.923,-0.183,2205703
-0.003,0.36,0.927,-0.244,2205707
-0.003,0.36,0.927,-0.061,2205711
-0.003,0.36,0.927,-0.061,2205715
-0.004,0.358,0.927,-0.183,2205719
-0.004,0.358,0.927,-0.244,2205723
-0.006,0.361,0.925,-0.061,2205727
-0.006,0.361,0.925,-0.122,2205731
-0.006,0.361,0.925,-0.122,2205735
-0.005,0.359,0.926,-0.183,2205739
-0.005,0.359,0.926,-0.244,2205743
-0.005,0.359,0.921,-0.122,2205747
-0.005,0.359,0.921,-0.183,2205751
-0.005,0.359,0.921,-0.183,2205755
-0.006,0.359,0.926,-0.061,2205759
-0.006,0.359,0.926,-0.183,2205763
-0.003,0.359,0.927,-0.183,2205767
-0.003,0.359,0.927,-0.122,2205771
-0.003,0.359,0.927,-0.122,2205775
-0.002,0.361,0.926,-0.061,2205779
-0.002,0.361,0.926,-0.122,2205783
-0.004,0.36,0.927,-0.183,2205786
-0.004,0.36,0.927,-0.183,2205790
-0.004,0.36,0.927,-0.183,2205794
-0.004,0.36,0.924,-0.183,2205798
-0.004,0.36,0.924,-0.305,2205802
-0.001,0.361,0.93,-0.244,2205806
-0.001,0.361,0.93,-0.122,2205810
-0.001,0.361,0.93,-0.122,2205814
-0.001,0.361,0.925,-0.122,2205818
-0.001,0.361,0.925,-0.305,2205822
0.0,0.362,0.925,-0.427,2205826
0.0,0.362,0.925,-0.366,2205830
0.0,0.362,0.925,-0.366,2205834
0.001,0.359,0.927,-0.244,2205838
0.001,0.359,0.927,-0.122,2205842
0.001,0.361,0.926,-0.183,2205846
0.001,0.361,0.926,-0.183,2205850
0.001,0.361,0.926,-0.183,2205854
0.001,0.361,0.93,-0.183,2205858
0.001,0.361,0.93,-0.183,2205862
0.002,0.361,0.926,-0.305,2205866
0.002,0.361,0.926,-0.244,2205870
0.002,0.361,0.926,-0.244,2205874
0.0,0.361,0.926,-0.183,2205878
0.0,0.361,0.926,-0.183,2205882
0.001,0.361,0.927,-0.122,2205886
0.001,0.361,0.927,-0.183,2205890
0.001,0.361,0.927,-0.183,2205894
0.001,0.362,0.928,-0.366,2205898
0.001,0.362,0.928,-0.244,2205902
-0.0,0.36,0.929,-0.122,2205906
-0.0,0.36,0.929,-0.122,2205910
-0.0,0.36,0.929,-0.122,2205914
0.0,0.361,0.926,-0.183,2205918
0.0,0.361,0.926,-0.244,2205922
-0.001,0.361,0.928,-0.244,2205926
-0.001,0.361,0.928,-0.305,2205930
-0.001,0.361,0.928,-0.305,2205934
-0.001,0.36,0.924,-0.183,2205938
-0.001,0.36,0.924,-0.122,2205942
-0.003,0.363,0.926,-0.122,2205946
-0.003,0.363,0.926,-0.122,2205950
-0.003,0.363,0.926,-0.122,2205953
-0.005,0.358,0.928,-0.183,2205957
-0.005,0.358,0.928,-0.183,2205961
-0.005,0.36,0.924,-0.244,2205965
-0.005,0.36,0.924,-0.244,2205969
-0.005,0.36,0.924,-0.244,2205973
-0.003,0.359,0.926,-0.122,2205977
-0.003,0.359,0.926,0.061,2205981
-0.004,0.359,0.923,-0.122,2205985
-0.004,0.359,0.923,-0.244,2205989
-0.004,0.359,0.923,-0.244,2205993
-0.006,0.361,0.925,-0.122,2205997
-0.006,0.361,0.925,-0.183,2206001
-0.006,0.36,0.926,-0.183,2206005
-0.006,0.36,0.926,-0.244,2206009
-0.006,0.36,0.926,-0.244,2206013
-0.004,0.361,0.925,-0.244,2206017
-0.004,0.361,0.925,-0.122,2206021
-0.003,0.359,0.924,-0.122,2206025
-0.003,0.359,0.924,-0.183,2206029
-0.003,0.359,0.924,-0.183,2206033
-0.002,0.361,0.924,-0.122,2206037
-0.002,0.361,0.924,-0.061,2206041
-0.002,0.361,0.93,-0.061,2206045
-0.002,0.361,0.93,-0.122,2206049
-0.002,0.361,0.93,-0.122,2206053
-0.002,0.362,0.928,-0.244,2206057
-0.002,0.362,0.928,-0.305,2206061
-0.001,0.362,0.927,-0.244,2206065
-0.001,0.362,0.927,-0.244,2206069
-0.001,0.362,0.927,-0.244,2206073
-0.002,0.362,0.928,-0.183,2206077
-0.002,0.362,0.928,-0.183,2206081
-0.0,0.361,0.925,-0.122,2206085
-0.0,0.361,0.925,-0.122,2206089
-0.0,0.361,0.925,-0.122,2206093
0.0,0.361,0.927,-0.183,2206097
0.0,0.361,0.927,-0.183,2206101
0.001,0.363,0.926,-0.122,2206105
0.001,0.363,0.926,-0.122,2206109
0.001,0.363,0.926,-0.122,2206112
0.003,0.361,0.926,-0.183,2206116
0.003,0.361,0.926,-0.183,2206120
0.003,0.361,0.926,-0.183,2206124
0.003,0.361,0.926,-0.183,2206128
0.001,0.362,0.929,-0.122,2206132
0.001,0.362,0.929,-0.122,2206136
0.001,0.362,0.929,-0.183,2206140
0.001,0.361,0.929,-0.244,2206144
0.001,0.361,0.929,-0.305,2206148
0.001,0.361,0.927,-0.305,2206152
0.001,0.361,0.927,-0.305,2206156
0.001,0.361,0.927,-0.244,2206160
-0.001,0.362,0.927,-0.122,2206164
-0.001,0.362,0.927,-0.183,2206168
0.001,0.362,0.924,-0.305,2206172
0.001,0.362,0.924,-0.305,2206176
0.001,0.362,0.924,-0.061,2206180
-0.002,0.362,0.927,-0.183,2206184
-0.002,0.362,0.927,-0.122,2206188
-0.003,0.359,0.927,-0.244,2206192
-0.003,0.359,0.927,-0.244,2206196
-0.003,0.359,0.927,-0.305,2206200
-0.003,0.361,0.926,-0.183,2206204
-0.003,0.361,0.926,-0.183,2206208
-0.003,0.36,0.925,-0.183,2206212
-0.003,0.36,0.925,-0.183,2206216
-0.003,0.36,0.925,-0.183,2206220
-0.004,0.362,0.923,-0.183,2206224
-0.004,0.362,0.923,-0.183,2206228
-0.004,0.36,0.925,-0.122,2206232
-0.004,0.36,0.925,-0.122,2206236
-0.004,0.36,0.925,-0.366,2206240
-0.005,0.359,0.927,-0.366,2206244
-0.005,0.359,0.927,-0.244,2206248
-0.002,0.36,0.925,-0.183,2206252
-0.002,0.36,0.925,-0.183,2206256
-0.002,0.36,0.925,-0.183,2206260
-0.005,0.36,0.924,-0.183,2206264
-0.005,0.36,0.924,-0.122,2206268
-0.003,0.361,0.925,-0.244,2206272
-0.003,0.361,0.925,-0.244,2206275
-0.003,0.361,0.925,-0.183,2206279
-0.004,0.36,0.928,-0.122,2206283
-0.004,0.36,0.928,-0.122,2206287
-0.004,0.359,0.926,-0.122,2206291
-0.004,0.359,0.926,-0.122,2206295
-0.004,0.359,0.926,-0.244,2206299
-0.003,0.361,0.927,-0.244,2206303
-0.003,0.361,0.927,-0.244,2206307
-0.003,0.361,0.926,-0.244,2206311
-0.003,0.361,0.926,-0.244,2206315
-0.003,0.361,0.926,-0.122,2206319
-0.002,0.361,0.927,-0.061,2206323
-0.002,0.361,0.927,-0.061,2206327
-0.001,0.361,0.927,-0.122,2206331
-0.001,0.361,0.927,-0.122,2206335
-0.001,0.361,0.927,-0.122,2206339
0.001,0.363,0.926,-0.183,2206343
0.001,0.363,0.926,-0.122,2206347
0.001,0.362,0.926,-0.244,2206351
0.001,0.362,0.926,-0.244,2206355
0.001,0.362,0.926,-0.305,2206359
0.001,0.361,0.926,-0.183,2206363
0.001,0.361,0.926,-0.244,2206367
0.0,0.363,0.927,-0.244,2206371
0.0,0.363,0.927,-0.244,2206375
0.0,0.363,0.927,-0.122,2206379
0.0,0.362,0.928,-0.244,2206383
0.0,0.362,0.928,-0.244,2206387
0.0,0.364,0.927,-0.244,2206391
0.0,0.364,0.927,-0.244,2206395
0.0,0.364,0.927,-0.244,2206399
0.0,0.363,0.926,-0.122,2206403
0.0,0.363,0.926,-0.244,2206406
-0.0,0.363,0.926,-0.244,2206410
-0.0,0.363,0.926,-0.244,2206414
-0.0,0.363,0.926,-0.244,2206418
-0.001,0.364,0.928,-0.244,2206422
-0.001,0.364,0.928,-0.305,2206426
-0.001,0.36,0.928,-0.305,2206430
-0.001,0.36,0.928,-0.305,2206434
-0.001,0.36,0.928,-0.305,2206438
-0.002,0.361,0.925,-0.305,2206442
-0.002,0.361,0.925,-0.244,2206446
-0.003,0.36,0.927,-0.183,2206450
-0.003,0.36,0.927,-0.183,2206454
-0.003,0.36,0.927,-0.061,2206458
-0.004,0.36,0.926,-0.183,2206462
-0.004,0.36,0.926,-0.061,2206466
-0.004,0.36,0.927,-0.061,2206470
-0.004,0.36,0.927,-0.061,2206474
-0.004,0.36,0.927,-0.122,2206478
-0.003,0.359,0.925,-0.244,2206482
-0.003,0.359,0.925,-0.244,2206486
-0.004,0.36,0.925,-0.183,2206490
-0.004,0.36,0.925,-0.183,2206494
-0.004,0.36,0.925,-0.305,2206498
-0.003,0.359,0.925,-0.305,2206502
-0.003,0.359,0.925,-0.183,2206506
-0.005,0.359,0.924,-0.366,2206510
-0.005,0.359,0.924,-0.366,2206514
-0.005,0.359,0.924,-0.366,2206518
-0.006,0.36,0.927,-0.122,2206522
-0.006,0.36,0.927,-0.122,2206526
-0.004,0.359,0.925,-0.183,2206530
-0.004,0.359,0.925,-0.183,2206534
-0.004,0.359,0.925,-0.122,2206538
-0.004,0.359,0.927,-0.122,2206542
-0.004,0.359,0.927,-0.122,2206546
-0.002,0.361,0.927,-0.061,2206549
-0.002,0.361,0.927,-0.061,2206553
-0.002,0.361,0.927,-0.122,2206557
-0.002,0.361,0.926,-0.244,2206561
-0.002,0.361,0.926,-0.244,2206565
-0.003,0.36,0.929,-0.122,2206569
-0.003,0.36,0.929,-0.122,2206573
-0.003,0.36,0.929,-0.244,2206577
0.0,0.361,0.928,-0.244,2206581
0.0,0.361,0.928,-0.305,2206585
0.001,0.362,0.926,-0.183,2206589
0.001,0.362,0.926,-0.183,2206593
0.001,0.362,0.926,-0.244,2206597
-0.001,0.361,0.926,-0.183,2206601
-0.001,0.361,0.926,-0.061,2206605
-0.0,0.362,0.926,-0.183,2206609
-0.0,0.362,0.926,-0.183,2206613
-0.0,0.362,0.926,-0.305,2206617
0.001,0.362,0.927,-0.244,2206621
0.001,0.362,0.927,-0.183,2206625
0.001,0.361,0.926,-0.183,2206629
0.001,0.361,0.926,-0.183,2206633
0.001,0.361,0.926,-0.183,2206637
0.001,0.359,0.927,-0.183,2206641
0.001,0.359,0.927,-0.244,2206645
0.0,0.361,0.927,-0.122,2206649
0.0,0.361,0.927,-0.122,2206653
0.0,0.361,0.927,-0.183,2206657
-0.0,0.361,0.929,-0.183,2206661
-0.0,0.361,0.929,-0.244,2206665
-0.002,0.361,0.929,-0.122,2206669
-0.002,0.361,0.929,-0.122,2206673
-0.002,0.361,0.929,-0.244,2206677
-0.002,0.36,0.926,-0.305,2206681
-0.002,0.36,0.926,-0.305,2206685
-0.001,0.361,0.925,-0.183,2206688
-0.001,0.361,0.925,-0.183,2206692
-0.001,0.361,0.925,-0.061,2206696
-0.002,0.359,0.926,-0.122,2206700
-0.002,0.359,0.926,-0.183,2206704
-0.003,0.36,0.927,-0.183,2206708
-0.003,0.36,0.927,-0.183,2206712
-0.003,0.36,0.927,-0.183,2206716
-0.004,0.362,0.927,-0.305,2206720
-0.004,0.362,0.927,-0.183,2206724
-0.005,0.361,0.925,-0.244,2206728
-0.005,0.361,0.925,-0.244,2206732
-0.005,0.361,0.925,-0.305,2206736
-0.006,0.36,0.927,-0.183,2206740
-0.006,0.36,0.927,-0.122,2206744
-0.005,0.36,0.927,-0.244,2206748
-0.005,0.36,0.927,-0.244,2206752
-0.005,0.36,0.927,-0.305,2206756
-0.005,0.36,0.925,-0.305,2206760
-0.005,0.36,0.925,-0.244,2206764
-0.004,0.36,0.926,-0.122,2206768
-0.004,0.36,0.926,-0.122,2206772
-0.004,0.36,0.926,-0.061,2206776
-0.004,0.361,0.923,-0.244,2206780
-0.004,0.361,0.923,-0.244,2206784
-0.004,0.36,0.926,-0.305,2206788
-0.004,0.36,0.926,-0.305,2206792
-0.004,0.36,0.926,-0.305,2206796
-0.003,0.361,0.925,-0.183,2206800
-0.003,0.361,0.925,-0.244,2206804
-0.002,0.36,0.927,-0.061,2206808
-0.002,0.36,0.927,-0.061,2206812
-0.002,0.36,0.927,-0.183,2206816
-0.001,0.361,0.927,-0.244,2206820
-0.001,0.361,0.927,-0.244,2206824
-0.001,0.361,0.927,-0.244,2206827
-0.001,0.361,0.927,-0.244,2206831
-0.001,0.361,0.927,-0.122,2206835
-0.0,0.361,0.929,-0.244,2206839
-0.0,0.361,0.929,0.0,2206843
0.001,0.361,0.928,-0.244,2206847
0.001,0.361,0.928,-0.244,2206851
0.001,0.361,0.928,-0.305,2206855
0.0,0.361,0.927,-0.183,2206859
0.0,0.361,0.927,-0.244,2206863
0.001,0.362,0.927,-0.122,2206867
0.001,0.362,0.927,-0.122,2206871
0.001,0.362,0.927,-0.122,2206875
-0.0,0.361,0.927,-0.061,2206879
-0.0,0.361,0.927,-0.244,2206883
0.002,0.362,0.928,-0.244,2206887
0.002,0.362,0.928,-0.244,2206891
0.002,0.362,0.928,-0.244,2206895
0.002,0.362,0.927,-0.122,2206899
0.002,0.362,0.927,-0.183,2206903
0.001,0.362,0.927,-0.305,2206907
0.001,0.362,0.927,-0.305,2206911
0.001,0.362,0.927,-0.244,2206915
0.0,0.362,0.928,-0.183,2206919
0.0,0.362,0.928,0.0,2206923
0.0,0.363,0.929,-0.244,2206927
0.0,0.363,0.929,-0.244,2206931
0.0,0.363,0.929,-0.244,2206934
0.001,0.363,0.927,-0.183,2206938
0.001,0.363,0.927,-0.122,2206942
-0.001,0.36,0.926,-0.183,2206946
-0.001,0.36,0.926,-0.183,2206950
-0.001,0.36,0.926,-0.305,2206954
-0.001,0.362,0.926,-0.305,2206958
-0.001,0.362,0.926,-0.305,2206962
-0.001,0.361,0.924,-0.366,2206966
-0.001,0.361,0.924,-0.366,2206970
-0.001,0.361,0.924,-0.183,2206974
-0.004,0.361,0.925,-0.122,2206978
-0.004,0.361,0.925,-0.244,2206982
-0.007,0.361,0.926,-0.305,2206986
-0.007,0.361,0.926,-0.305,2206990
-0.007,0.361,0.926,-0.244,2206994
-0.005,0.361,0.925,0.0,2206998
-0.005,0.361,0.925,-0.122,2207002
-0.006,0.36,0.922,-0.183,2207006
-0.006,0.36,0.922,-0.183,2207010
-0.006,0.36,0.922,-0.244,2207014
-0.007,0.358,0.924,-0.366,2207018
-0.007,0.358,0.924,-0.244,2207022
-0.005,0.358,0.926,-0.061,2207026
-0.005,0.358,0.926,-0.061,2207030
-0.005,0.358,0.926,-0.061,2207034
-0.007,0.357,0.926,-0.305,2207038
-0.007,0.357,0.926,-0.244,2207042
-0.006,0.359,0.925,-0.122,2207046
-0.006,0.359,0.925,-0.122,2207050
-0.006,0.359,0.925,-0.122,2207054
-0.005,0.359,0.925,-0.244,2207057
-0.005,0.359,0.925,-0.122,2207061
-0.003,0.359,0.925,-0.061,2207065
-0.003,0.359,0.925,-0.061,2207069
-0.003,0.359,0.925,-0.122,2207073
-0.002,0.36,0.927,-0.122,2207077
-0.002,0.36,0.927,-0.183,2207081
-0.002,0.363,0.928,-0.183,2207085
-0.002,0.363,0.928,-0.183,2207089
-0.002,0.363,0.928,-0.061,2207093
-0.001,0.361,0.928,-0.183,2207097
-0.001,0.361,0.928,-0.122,2207101
0.002,0.362,0.927,-0.122,2207105
0.002,0.362,0.927,-0.122,2207109
0.002,0.362,0.927,-0.244,2207113
0.001,0.364,0.927,-0.244,2207117
0.001,0.364,0.927,-0.244,2207121
0.002,0.363,0.927,-0.183,2207125
0.002,0.363,0.927,-0.183,2207129
0.002,0.363,0.927,-0.244,2207133
0.003,0.363,0.928,-0.061,2207137
0.003,0.363,0.928,-0.122,2207141
0.004,0.363,0.927,-0.244,2207145
0.004,0.363,0.927,-0.244,2207149
0.004,0.363,0.927,-0.122,2207153
0.005,0.363,0.928,-0.122,2207157
0.005,0.363,0.928,-0.122,2207161
0.004,0.363,0.927,-0.183,2207165
0.004,0.363,0.927,-0.183,2207169
0.004,0.363,0.927,-0.183,2207173
0.002,0.362,0.927,-0.183,2207177
0.002,0.362,0.927,-0.244,2207181
0.003,0.362,0.926,-0.305,2207185
0.003,0.362,0.926,-0.305,2207189
0.003,0.362,0.926,-0.122,2207193
0.003,0.361,0.927,-0.122,2207197
0.003,0.361,0.927,-0.122,2207201
0.0,0.36,0.927,-0.244,2207205
0.0,0.36,0.927,-0.244,2207209
0.0,0.36,0.927,-0.366,2207213
-0.001,0.36,0.926,-0.122,2207217
-0.001,0.36,0.926,-0.122,2207221
-0.003,0.358,0.926,-0.366,2207225
-0.003,0.358,0.926,-0.366,2207229
-0.003,0.358,0.926,-0.366,2207233
-0.006,0.358,0.924,-0.305,2207237
-0.006,0.358,0.924,-0.183,2207241
-0.008,0.358,0.925,-0.183,2207245
-0.008,0.358,0.925,-0.183,2207248
-0.008,0.358,0.925,-0.183,2207252
-0.009,0.359,0.923,-0.183,2207256
-0.009,0.359,0.923,-0.244,2207260
-0.01,0.358,0.923,-0.244,2207264
-0.01,0.358,0.923,-0.183,2207268
-0.01,0.358,0.923,-0.183,2207272
-0.008,0.358,0.925,-0.122,2207276
-0.008,0.358,0.925,-0.122,2207280
-0.008,0.358,0.925,-0.244,2207284
-0.008,0.358,0.925,-0.366,2207288
-0.008,0.358,0.925,-0.366,2207292
-0.011,0.36,0.925,-0.244,2207296
-0.011,0.36,0.925,-0.122,2207300
-0.005,0.36,0.924,-0.122,2207304
-0.005,0.36,0.924,-0.244,2207308
-0.005,0.36,0.924,-0.244,2207312
-0.005,0.361,0.926,-0.061,2207316
-0.005,0.361,0.926,-0.183,2207320
-0.004,0.361,0.926,-0.244,2207324
-0.004,0.361,0.926,-0.061,2207328
-0.004,0.361,0.926,-0.061,2207332
-0.001,0.363,0.926,-0.061,2207336
-0.001,0.363,0.926,-0.122,2207340
0.0,0.362,0.925,-0.122,2207344
0.0,0.362,0.925,-0.122,2207348
0.0,0.362,0.925,-0.122,2207352
0.001,0.363,0.926,-0.244,2207356
0.001,0.363,0.926,-0.122,2207360
0.004,0.362,0.927,-0.122,2207364
0.004,0.362,0.927,-0.122,2207368
0.004,0.362,0.927,-0.122,2207372
0.006,0.363,0.926,-0.122,2207376
0.006,0.363,0.926,-0.244,2207380
0.005,0.362,0.927,-0.366,2207384
0.005,0.362,0.927,-0.183,2207388
0.005,0.362,0.927,-0.183,2207392
0.005,0.362,0.929,-0.183,2207396
0.005,0.362,0.929,-0.305,2207400
0.006,0.362,0.93,-0.244,2207404
0.006,0.362,0.93,-0.122,2207408
0.006,0.362,0.93,-0.122,2207412
0.006,0.36,0.929,-0.183,2207416
0.006,0.36,0.929,-0.183,2207420
0.004,0.361,0.93,-0.122,2207424
0.004,0.361,0.93,-0.183,2207427
0.004,0.361,0.93,-0.183,2207431
0.003,0.362,0.927,-0.244,2207435
0.003,0.362,0.927,-0.244,2207439
0.003,0.36,0.927,-0.244,2207443
0.003,0.36,0.927,-0.183,2207447
0.003,0.36,0.927,-0.183,2207451
0.0,0.359,0.927,-0.305,2207455
0.0,0.359,0.927,-0.305,2207459
-0.002,0.361,0.925,-0.427,2207463
-0.002,0.361,0.925,-0.305,2207467
-0.002,0.361,0.925,-0.305,2207471
-0.005,0.36,0.927,-0.305,2207475
-0.005,0.36,0.927,-0.244,2207479
-0.007,0.359,0.925,-0.305,2207483
-0.007,0.359,0.925,-0.244,2207487
-0.007,0.359,0.925,-0.244,2207491
-0.008,0.359,0.923,-0.244,2207495
-0.008,0.359,0.923,-0.305,2207499
-0.009,0.358,0.925,-0.305,2207503
-0.009,0.358,0.925,-0.305,2207507
-0.009,0.358,0.925,-0.305,2207511
-0.011,0.36,0.923,-0.305,2207515
-0.011,0.36,0.923,-0.244,2207519
-0.013,0.361,0.924,-0.183,2207523
-0.013,0.361,0.924,-0.305,2207527
-0.013,0.361,0.924,-0.305,2207531
-0.011,0.359,0.925,-0.366,2207535
-0.011,0.359,0.925,-0.183,2207539
-0.01,0.36,0.924,-0.122,2207543
-0.01,0.36,0.924,-0.183,2207547
-0.01,0.36,0.924,-0.183,2207551
-0.007,0.36,0.924,-0.122,2207555
-0.007,0.36,0.924,-0.244,2207559
-0.005,0.361,0.925,-0.183,2207563
-0.005,0.361,0.925,-0.122,2207567
-0.005,0.361,0.925,-0.122,2207571
-0.005,0.362,0.924,-0.122,2207575
-0.005,0.362,0.924,-0.183,2207579
-0.001,0.361,0.927,0.0,2207583
-0.001,0.361,0.927,-0.061,2207587
-0.001,0.361,0.927,-0.061,2207591
0.001,0.361,0.927,-0.061,2207595
0.001,0.361,0.927,-0.244,2207599
0.001,0.361,0.928,-0.183,2207602
0.001,0.361,0.928,-0.061,2207606
0.001,0.361,0.928,-0.061,2207610
0.004,0.362,0.928,-0.061,2207614
0.004,0.362,0.928,-0.061,2207618
0.007,0.362,0.93,-0.183,2207622
0.007,0.362,0.93,-0.244,2207626
0.007,0.362,0.93,-0.244,2207630
0.008,0.362,0.93,-0.244,2207634
0.008,0.362,0.93,-0.061,2207638
0.008,0.362,0.927,-0.183,2207642
0.008,0.362,0.927,-0.183,2207646
0.008,0.362,0.927,-0.183,2207650
0.008,0.362,0.927,-0.183,2207654
0.008,0.362,0.927,-0.305,2207658
0.007,0.362,0.928,-0.305,2207662
0.007,0.362,0.928,-0.366,2207666
0.006,0.363,0.928,-0.305,2207670
0.006,0.363,0.928,-0.305,2207674
0.006,0.363,0.928,-0.244,2207678
0.004,0.362,0.928,-0.122,2207682
0.004,0.362,0.928,-0.244,2207686
0.004,0.361,0.928,-0.244,2207690
0.004,0.361,0.928,-0.244,2207694
0.004,0.361,0.928,-0.305,2207698
-0.001,0.362,0.928,-0.244,2207702
-0.001,0.362,0.928,-0.244,2207706
-0.004,0.363,0.927,-0.244,2207710
-0.004,0.363,0.927,-0.244,2207714
-0.004,0.363,0.927,-0.183,2207718
-0.004,0.36,0.926,-0.183,2207722
-0.004,0.36,0.926,-0.183,2207726
-0.006,0.36,0.925,-0.183,2207730
-0.006,0.36,0.925,-0.183,2207734
-0.006,0.36,0.925,-0.366,2207738
-0.01,0.36,0.924,-0.244,2207742
-0.01,0.36,0.924,-0.244,2207746
-0.011,0.36,0.923,-0.244,2207750
-0.011,0.36,0.923,-0.244,2207754
-0.011,0.36,0.923,-0.305,2207758
-0.013,0.358,0.924,-0.244,2207762
-0.013,0.358,0.924,-0.305,2207766
-0.011,0.357,0.92,-0.183,2207770
-0.011,0.357,0.92,-0.183,2207774
-0.011,0.357,0.92,-0.183,2207778
-0.013,0.358,0.921,-0.183,2207782
-0.013,0.358,0.921,-0.183,2207786
-0.011,0.356,0.923,-0.122,2207790
-0.011,0.356,0.923,-0.122,2207794
-0.011,0.356,0.923,0.0,2207797
-0.009,0.356,0.922,0.061,2207801
-0.009,0.356,0.922,-0.061,2207805
-0.008,0.357,0.923,-0.122,2207809
-0.008,0.357,0.923,-0.122,2207813
-0.008,0.357,0.923,0.0,2207817
-0.009,0.358,0.925,-0.061,2207821
-0.009,0.358,0.925,-0.122,2207825
-0.005,0.361,0.93,-0.244,2207829
-0.005,0.361,0.93,-0.244,2207833
-0.005,0.361,0.93,-0.122,2207837
0.0,0.362,0.931,0.0,2207841
0.0,0.362,0.931,-0.061,2207845
0.004,0.362,0.929,-0.061,2207849
0.004,0.362,0.929,-0.061,2207853
0.004,0.362,0.929,-0.122,2207857
0.006,0.363,0.927,-0.122,2207861
0.006,0.363,0.927,-0.122,2207865
0.008,0.365,0.929,-0.061,2207869
0.008,0.365,0.929,-0.061,2207873
0.008,0.365,0.929,-0.122,2207877
0.009,0.366,0.931,-0.122,2207881
0.009,0.366,0.931,-0.244,2207885
0.01,0.365,0.929,-0.183,2207889
0.01,0.365,0.929,-0.183,2207893
0.01,0.365,0.929,-0.305,2207897
0.011,0.365,0.925,-0.427,2207901
0.011,0.365,0.925,-0.183,2207905
0.01,0.365,0.929,-0.305,2207909
0.01,0.365,0.929,-0.305,2207913
0.01,0.365,0.929,-0.183,2207917
0.01,0.366,0.929,-0.183,2207921
0.01,0.366,0.929,-0.244,2207925
0.007,0.365,0.93,-0.122,2207929
0.007,0.365,0.93,-0.122,2207933
0.007,0.365,0.93,-0.183,2207937
0.004,0.363,0.93,-0.244,2207941
0.004,0.363,0.93,-0.244,2207945
0.002,0.362,0.925,-0.305,2207949
0.002,0.362,0.925,-0.305,2207953
0.002,0.362,0.925,-0.244,2207957
-0.0,0.359,0.925,-0.305,2207960
-0.0,0.359,0.925,-0.244,2207964
-0.001,0.358,0.925,-0.244,2207968
-0.001,0.358,0.925,-0.244,2207972
-0.001,0.358,0.925,-0.366,2207976
-0.005,0.358,0.927,-0.427,2207980
-0.005,0.358,0.927,-0.183,2207984
-0.007,0.359,0.925,-0.244,2207988
-0.007,0.359,0.925,-0.244,2207992
-0.007,0.359,0.925,-0.427,2207996
-0.009,0.357,0.924,-0.305,2208000
-0.009,0.357,0.924,-0.244,2208004
-0.01,0.357,0.925,-0.305,2208008
-0.01,0.357,0.925,-0.305,2208012
-0.01,0.357,0.925,-0.244,2208016
-0.012,0.357,0.924,-0.244,2208020
-0.012,0.357,0.924,-0.122,2208024
-0.014,0.356,0.923,-0.183,2208028
-0.014,0.356,0.923,-0.183,2208032
-0.014,0.356,0.923,-0.183,2208036
-0.017,0.355,0.921,-0.183,2208040
-0.017,0.355,0.921,-0.183,2208044
-0.017,0.357,0.922,-0.183,2208048
-0.017,0.357,0.922,-0.183,2208052
-0.017,0.357,0.922,-0.122,2208056
-0.012,0.359,0.923,-0.122,2208060
-0.012,0.359,0.923,-0.122,2208064
-0.01,0.359,0.926,-0.122,2208068
-0.01,0.359,0.926,-0.122,2208072
-0.01,0.359,0.926,-0.122,2208076
-0.007,0.359,0.926,-0.183,2208080
-0.007,0.359,0.926,-0.061,2208084
-0.005,0.36,0.923,-0.061,2208088
-0.005,0.36,0.923,-0.061,2208092
-0.005,0.36,0.923,-0.122,2208096
-0.001,0.362,0.926,-0.122,2208100
-0.001,0.362,0.926,-0.122,2208104
0.002,0.362,0.927,-0.122,2208108
0.002,0.362,0.927,-0.122,2208112
0.002,0.362,0.927,-0.183,2208116
0.005,0.362,0.927,-0.122,2208120
0.005,0.362,0.927,-0.122,2208124
0.007,0.364,0.929,-0.183,2208128
0.007,0.364,0.929,-0.061,2208131
0.007,0.364,0.929,-0.061,2208135
0.01,0.364,0.929,-0.061,2208139
0.01,0.364,0.929,-0.122,2208143
0.01,0.365,0.929,-0.183,2208147
0.01,0.365,0.929,-0.122,2208151
0.01,0.365,0.929,-0.122,2208155
0.01,0.367,0.93,-0.183,2208159
0.01,0.367,0.93,-0.183,2208163
0.009,0.365,0.93,-0.305,2208167
0.009,0.365,0.93,-0.122,2208171
0.009,0.365,0.93,-0.122,2208175
0.01,0.364,0.931,-0.244,2208179
0.01,0.364,0.931,-0.122,2208183
0.009,0.361,0.927,-0.244,2208187
0.009,0.361,0.927,-0.366,2208191
0.009,0.361,0.927,-0.366,2208195
0.008,0.362,0.93,-0.305,2208199
0.008,0.362,0.93,-0.305,2208203
0.005,0.362,0.93,-0.244,2208207
0.005,0.362,0.93,-0.244,2208211
0.005,0.362,0.93,-0.244,2208215
0.003,0.361,0.928,-0.183,2208219
0.003,0.361,0.928,-0.366,2208223
-0.0,0.36,0.928,-0.305,2208227
-0.0,0.36,0.928,-0.183,2208231
-0.0,0.36,0.928,-0.183,2208235
-0.002,0.359,0.925,-0.305,2208239
-0.002,0.359,0.925,-0.244,2208243
-0.007,0.359,0.928,-0.244,2208247
-0.007,0.359,0.928,-0.244,2208251
-0.007,0.359,0.928,-0.244,2208255
-0.01,0.36,0.923,-0.366,2208259
-0.01,0.36,0.923,-0.244,2208263
-0.013,0.358,0.921,-0.122,2208267
-0.013,0.358,0.921,-0.305,2208271
-0.013,0.358,0.921,-0.305,2208275
-0.014,0.359,0.922,-0.183,2208279
-0.014,0.359,0.922,-0.244,2208283
-0.016,0.362,0.924,-0.244,2208287
-0.016,0.362,0.924,-0.183,2208291
-0.016,0.362,0.924,-0.183,2208295
-0.013,0.359,0.922,-0.183,2208299
-0.013,0.359,0.922,-0.122,2208303
-0.013,0.359,0.922,-0.183,2208307
-0.013,0.359,0.922,-0.183,2208311
-0.013,0.359,0.922,-0.183,2208314
-0.012,0.357,0.924,-0.122,2208318
-0.012,0.357,0.924,-0.122,2208322
-0.01,0.359,0.924,-0.244,2208326
-0.01,0.359,0.924,-0.122,2208330
-0.01,0.359,0.924,-0.122,2208334
-0.006,0.359,0.924,0.0,2208338
-0.006,0.359,0.924,0.0,2208342
-0.004,0.359,0.924,-0.122,2208346
-0.004,0.359,0.924,-0.061,2208350
-0.004,0.359,0.924,-0.061,2208354
0.0,0.361,0.927,0.122,2208358
0.0,0.361,0.927,-0.122,2208362
0.002,0.361,0.929,-0.183,2208366
0.002,0.361,0.929,-0.122,2208370
0.002,0.361,0.929,-0.122,2208374
0.003,0.361,0.926,-0.061,2208378
0.003,0.361,0.926,-0.061,2208382
0.005,0.362,0.927,-0.122,2208386
0.005,0.362,0.927,-0.122,2208390
0.005,0.362,0.927,-0.122,2208394
0.006,0.363,0.928,-0.122,2208398
0.006,0.363,0.928,-0.183,2208402
0.006,0.363,0.929,-0.183,2208406
0.006,0.363,0.929,-0.244,2208410
0.006,0.363,0.929,-0.244,2208414
0.008,0.363,0.928,-0.183,2208418
0.008,0.363,0.928,-0.183,2208422
0.009,0.363,0.929,-0.183,2208426
0.009,0.363,0.929,-0.183,2208430
0.009,0.363,0.929,-0.183,2208434
0.008,0.364,0.93,-0.305,2208438
0.008,0.364,0.93,-0.305,2208442
0.007,0.361,0.928,-0.183,2208446
0.007,0.361,0.928,-0.244,2208450
0.007,0.361,0.928,-0.244,2208453
0.004,0.364,0.93,-0.305,2208457
0.004,0.364,0.93,-0.183,2208461
0.005,0.364,0.927,-0.244,2208465
0.005,0.364,0.927,-0.122,2208469
0.005,0.364,0.927,-0.122,2208473
0.001,0.363,0.926,-0.305,2208477
0.001,0.363,0.926,-0.366,2208481
-0.002,0.362,0.926,-0.244,2208485
-0.002,0.362,0.926,-0.244,2208489
-0.002,0.362,0.926,-0.244,2208493
-0.004,0.362,0.925,-0.122,2208497
-0.004,0.362,0.925,-0.244,2208501
-0.005,0.361,0.924,-0.183,2208505
-0.005,0.361,0.924,-0.183,2208509
-0.005,0.361,0.924,-0.183,2208513
-0.008,0.36,0.925,-0.183,2208517
-0.008,0.36,0.925,-0.244,2208521
-0.008,0.358,0.924,-0.305,2208525
-0.008,0.358,0.924,-0.305,2208529
-0.008,0.358,0.924,-0.305,2208533
-0.01,0.359,0.925,-0.244,2208537
-0.01,0.359,0.925,-0.183,2208541
-0.011,0.359,0.924,-0.244,2208545
-0.011,0.359,0.924,-0.183,2208549
-0.011,0.359,0.924,-0.183,2208553
-0.01,0.359,0.925,-0.122,2208557
-0.01,0.359,0.925,-0.183,2208561
-0.009,0.357,0.923,-0.244,2208565
-0.009,0.357,0.923,-0.183,2208569
-0.009,0.357,0.923,-0.183,2208573
-0.01,0.356,0.923,0.0,2208577
-0.01,0.356,0.923,-0.061,2208581
-0.007,0.359,0.925,-0.183,2208585
-0.007,0.359,0.925,-0.122,2208589
-0.007,0.359,0.925,-0.122,2208593
-0.006,0.359,0.925,-0.183,2208597
-0.006,0.359,0.925,-0.183,2208601
-0.005,0.359,0.927,-0.183,2208605
-0.005,0.359,0.927,-0.061,2208609
-0.005,0.359,0.927,-0.061,2208613
-0.002,0.36,0.927,-0.122,2208617
-0.002,0.36,0.927,-0.183,2208620
-0.001,0.361,0.927,-0.244,2208624
-0.001,0.361,0.927,-0.122,2208628
-0.001,0.361,0.927,-0.122,2208632
0.001,0.361,0.928,-0.122,2208636
0.001,0.361,0.928,-0.183,2208640
0.004,0.363,0.927,-0.244,2208644
0.004,0.363,0.927,-0.122,2208648
0.004,0.363,0.927,-0.122,2208652
0.003,0.364,0.928,0.0,2208656
0.003,0.364,0.928,-0.122,2208660
0.004,0.364,0.928,-0.305,2208664
0.004,0.364,0.928,-0.183,2208668
0.004,0.364,0.928,-0.183,2208672
0.006,0.363,0.928,-0.122,2208676
0.006,0.363,0.928,-0.305,2208680
0.009,0.364,0.928,-0.122,2208684
0.009,0.364,0.928,-0.244,2208688
0.007,0.363,0.929,-0.244,2208692
0.007,0.363,0.929,-0.244,2208696
0.007,0.363,0.929,-0.244,2208700
0.006,0.363,0.929,-0.244,2208704
0.006,0.363,0.929,-0.183,2208708
0.005,0.364,0.929,-0.244,2208712
0.005,0.364,0.929,-0.244,2208716
0.005,0.364,0.929,-0.061,2208720
0.003,0.362,0.927,-0.122,2208724
0.003,0.362,0.927,-0.244,2208728
0.0,0.362,0.927,-0.244,2208732
0.0,0.362,0.927,-0.244,2208736
0.0,0.362,0.927,-0.183,2208740
-0.001,0.361,0.927,-0.244,2208744
-0.001,0.361,0.927,-0.427,2208748
-0.002,0.359,0.926,-0.305,2208752
-0.002,0.359,0.926,-0.305,2208756
-0.002,0.359,0.926,-0.183,2208760
-0.004,0.36,0.925,-0.183,2208764
-0.004,0.36,0.925,-0.244,2208767
-0.004,0.359,0.924,-0.122,2208771
-0.004,0.359,0.924,-0.122,2208775
-0.004,0.359,0.924,-0.122,2208779
-0.007,0.358,0.924,-0.183,2208783
-0.007,0.358,0.924,-0.244,2208787
-0.006,0.357,0.925,-0.183,2208791
-0.006,0.357,0.925,-0.183,2208795
-0.006,0.357,0.925,-0.122,2208799
-0.009,0.358,0.921,-0.305,2208803
-0.009,0.358,0.921,-0.183,2208807
-0.009,0.359,0.924,-0.183,2208811
-0.009,0.359,0.924,-0.183,2208815
-0.009,0.359,0.924,-0.061,2208819
-0.01,0.358,0.923,-0.183,2208823
-0.01,0.358,0.923,-0.305,2208827
-0.009,0.359,0.924,-0.305,2208831
-0.009,0.359,0.924,-0.305,2208835
-0.009,0.359,0.924,-0.061,2208839
-0.009,0.359,0.924,-0.122,2208843
-0.009,0.359,0.924,-0.061,2208847
-0.007,0.361,0.925,-0.122,2208851
-0.007,0.361,0.925,-0.122,2208855
-0.007,0.361,0.925,-0.061,2208859
-0.006,0.36,0.926,-0.061,2208863
-0.006,0.36,0.926,-0.122,2208867
-0.003,0.361,0.925,-0.122,2208871
-0.003,0.361,0.925,-0.122,2208875
-0.003,0.361,0.925,-0.183,2208879
-0.004,0.362,0.927,-0.122,2208883
-0.004,0.362,0.927,-0.122,2208887
0.002,0.363,0.927,-0.183,2208891
0.002,0.363,0.927,-0.183,2208895
0.002,0.363,0.927,-0.061,2208899
0.003,0.365,0.927,-0.122,2208903
0.003,0.365,0.927,-0.122,2208907
0.003,0.363,0.929,-0.183,2208911
0.003,0.363,0.929,-0.183,2208915
0.003,0.363,0.929,-0.122,2208919
0.005,0.362,0.929,-0.244,2208923
0.005,0.362,0.929,-0.244,2208927
0.005,0.361,0.928,-0.244,2208930
0.005,0.361,0.928,-0.244,2208934
0.005,0.361,0.928,-0.366,2208938
0.007,0.362,0.928,-0.305,2208942
0.007,0.362,0.928,0.061,2208946
0.007,0.362,0.93,-0.183,2208950
0.007,0.362,0.93,-0.183,2208954
0.007,0.362,0.93,-0.305,2208958
0.007,0.362,0.932,-0.305,2208962
0.007,0.362,0.932,-0.244,2208966
0.005,0.363,0.928,-0.305,2208970
0.005,0.363,0.928,-0.305,2208974
0.005,0.363,0.928,-0.244,2208978
0.004,0.362,0.929,-0.183,2208982
0.004,0.362,0.929,-0.183,2208986
0.005,0.362,0.927,-0.244,2208990
0.005,0.362,0.927,-0.244,2208994
0.005,0.362,0.927,-0.244,2208998
0.004,0.362,0.927,-0.183,2209002
0.004,0.362,0.927,-0.122,2209006
0.0,0.363,0.927,-0.122,2209010
0.0,0.363,0.927,-0.122,2209014
0.0,0.363,0.927,-0.305,2209018
0.0,0.362,0.925,-0.244,2209022
0.0,0.362,0.925,-0.183,2209026
-0.004,0.36,0.925,-0.244,2209030
-0.004,0.36,0.925,-0.244,2209034
-0.004,0.36,0.925,-0.183,2209038
-0.006,0.361,0.924,-0.122,2209042
-0.006,0.361,0.924,-0.366,2209046
-0.004,0.36,0.927,-0.305,2209050
-0.004,0.36,0.927,-0.305,2209054
-0.004,0.36,0.927,-0.183,2209058
-0.007,0.36,0.925,-0.366,2209062
-0.007,0.36,0.925,-0.305,2209066
-0.01,0.36,0.922,-0.366,2209070
-0.01,0.36,0.922,-0.366,2209074
-0.01,0.36,0.922,-0.305,2209078
-0.011,0.359,0.923,-0.244,2209082
-0.011,0.359,0.923,-0.244,2209086
-0.01,0.361,0.924,-0.183,2209090
-0.01,0.361,0.924,-0.183,2209094
-0.01,0.361,0.924,-0.061,2209097
-0.01,0.358,0.926,-0.122,2209101
-0.01,0.358,0.926,-0.122,2209105
-0.009,0.359,0.926,-0.183,2209109
-0.009,0.359,0.926,-0.183,2209113
-0.009,0.359,0.926,-0.122,2209117
-0.008,0.359,0.923,-0.061,2209121
-0.008,0.359,0.923,-0.061,2209125
-0.007,0.36,0.926,-0.244,2209129
-0.007,0.36,0.926,-0.244,2209133
-0.007,0.36,0.926,-0.244,2209137
-0.004,0.359,0.925,-0.183,2209141
-0.004,0.359,0.925,0.0,2209145
-0.004,0.359,0.926,-0.122,2209149
-0.004,0.359,0.926,-0.122,2209153
-0.004,0.359,0.926,-0.183,2209157
-0.001,0.36,0.927,-0.183,2209161
-0.001,0.36,0.927,-0.122,2209165
-0.001,0.361,0.928,-0.122,2209169
-0.001,0.361,0.928,-0.122,2209173
-0.001,0.361,0.928,-0.061,2209177
0.002,0.362,0.928,-0.061,2209181
0.002,0.362,0.928,-0.305,2209185
0.002,0.362,0.927,-0.183,2209189
0.002,0.362,0.927,-0.183,2209193
0.002,0.362,0.927,-0.122,2209197
0.004,0.363,0.929,-0.183,2209201
0.004,0.363,0.929,-0.183,2209205
0.005,0.363,0.928,-0.183,2209209
0.005,0.363,0.928,-0.183,2209213
0.005,0.363,0.928,-0.183,2209217
0.006,0.363,0.928,-0.122,2209221
0.006,0.363,0.928,-0.183,2209225
0.006,0.363,0.93,-0.305,2209229
0.006,0.363,0.93,-0.305,2209233
0.006,0.363,0.93,-0.244,2209237
0.006,0.362,0.928,-0.244,2209241
0.006,0.362,0.928,-0.244,2209245
0.004,0.364,0.929,-0.122,2209249
0.004,0.364,0.929,-0.122,2209253
0.004,0.364,0.929,-0.122,2209256
0.003,0.363,0.927,-0.183,2209260
0.003,0.363,0.927,-0.305,2209264
0.002,0.362,0.926,-0.305,2209268
0.002,0.362,0.926,-0.244,2209272
0.002,0.362,0.926,-0.244,2209276
0.002,0.361,0.927,-0.366,2209280
0.002,0.361,0.927,-0.244,2209284
-0.001,0.361,0.926,-0.183,2209288
-0.001,0.361,0.926,-0.305,2209292
-0.001,0.361,0.926,-0.305,2209296
-0.003,0.36,0.924,-0.244,2209300
-0.003,0.36,0.924,-0.183,2209304
-0.006,0.361,0.923,-0.244,2209308
-0.006,0.361,0.923,-0.122,2209312
-0.006,0.361,0.923,-0.122,2209316
-0.006,0.359,0.924,-0.183,2209320
-0.006,0.359,0.924,-0.366,2209324
-0.007,0.359,0.924,-0.244,2209328
-0.007,0.359,0.924,-0.305,2209332
-0.007,0.359,0.924,-0.305,2209336
-0.007,0.357,0.925,-0.305,2209340
-0.007,0.357,0.925,-0.244,2209344
-0.009,0.358,0.925,-0.244,2209348
-0.009,0.358,0.925,-0.183,2209352
-0.009,0.358,0.925,-0.183,2209356
-0.009,0.359,0.925,-0.183,2209360
-0.009,0.359,0.925,-0.183,2209364
-0.009,0.359,0.924,-0.244,2209368
-0.009,0.359,0.924,-0.244,2209372
-0.009,0.359,0.924,-0.244,2209376
-0.008,0.358,0.925,-0.122,2209380
-0.008,0.358,0.925,-0.183,2209384
-0.006,0.359,0.925,-0.122,2209388
-0.006,0.359,0.925,-0.122,2209392
-0.006,0.359,0.925,-0.122,2209396
-0.006,0.361,0.925,-0.122,2209400
-0.006,0.361,0.925,-0.061,2209404
-0.005,0.361,0.927,-0.122,2209408
-0.005,0.361,0.927,-0.061,2209412
-0.005,0.361,0.927,-0.061,2209416
-0.003,0.361,0.927,-0.061,2209420
-0.003,0.361,0.927,-0.061,2209424
-0.001,0.362,0.926,-0.061,2209427
-0.001,0.362,0.926,-0.061,2209431
-0.001,0.362,0.926,-0.061,2209435
0.0,0.364,0.928,-0.244,2209439
0.0,0.364,0.928,-0.183,2209443
0.002,0.364,0.928,-0.305,2209447
0.002,0.364,0.928,-0.061,2209451
0.002,0.364,0.928,-0.061,2209455
0.005,0.362,0.929,-0.122,2209459
0.005,0.362,0.929,-0.183,2209463
0.005,0.361,0.929,-0.122,2209467
0.005,0.361,0.929,-0.122,2209471
0.005,0.361,0.929,-0.122,2209475
0.006,0.362,0.928,0.0,2209479
0.006,0.362,0.928,-0.183,2209483
0.006,0.362,0.929,-0.244,2209487
0.006,0.362,0.929,-0.122,2209491
0.006,0.362,0.929,-0.122,2209495
0.004,0.362,0.927,-0.183,2209499
0.004,0.362,0.927,-0.183,2209503
0.004,0.361,0.927,-0.244,2209507
0.004,0.361,0.927,-0.183,2209511
0.004,0.361,0.927,-0.183,2209515
0.003,0.361,0.929,-0.122,2209519
0.003,0.361,0.929,-0.244,2209523
0.001,0.362,0.929,-0.305,2209527
0.001,0.362,0.929,-0.305,2209531
0.001,0.362,0.929,-0.305,2209535
0.0,0.361,0.927,-0.183,2209539
0.0,0.361,0.927,-0.427,2209543
-0.002,0.359,0.926,-0.305,2209547
-0.002,0.359,0.926,-0.366,2209551
-0.002,0.359,0.926,-0.366,2209555
-0.003,0.359,0.927,-0.305,2209559
-0.003,0.359,0.927,-0.183,2209563
-0.005,0.359,0.925,-0.244,2209567
-0.005,0.359,0.925,-0.305,2209571
-0.005,0.359,0.925,-0.305,2209575
-0.006,0.358,0.924,-0.244,2209579
-0.006,0.358,0.924,-0.244,2209583
-0.008,0.358,0.925,-0.183,2209587
-0.008,0.358,0.925,-0.122,2209590
-0.008,0.358,0.925,-0.122,2209594
-0.008,0.358,0.923,-0.183,2209598
-0.008,0.358,0.923,-0.244,2209602
-0.009,0.359,0.923,-0.244,2209606
-0.009,0.359,0.923,-0.183,2209610
-0.009,0.359,0.923,-0.183,2209614
-0.009,0.361,0.924,-0.244,2209618
-0.009,0.361,0.924,-0.183,2209622
-0.01,0.359,0.923,-0.244,2209626
-0.01,0.359,0.923,-0.061,2209630
-0.01,0.359,0.923,-0.061,2209634
-0.008,0.359,0.924,-0.183,2209638
-0.008,0.359,0.924,-0.305,2209642
-0.005,0.359,0.923,-0.122,2209646
-0.005,0.359,0.923,-0.122,2209650
-0.005,0.359,0.923,-0.122,2209654
-0.004,0.36,0.925,-0.244,2209658
-0.004,0.36,0.925,-0.183,2209662
-0.005,0.36,0.926,-0.122,2209666
-0.005,0.36,0.926,-0.305,2209670
-0.005,0.36,0.926,-0.305,2209674
-0.004,0.361,0.927,-0.183,2209678
-0.004,0.361,0.927,-0.061,2209682
-0.0,0.362,0.927,-0.122,2209686
-0.0,0.362,0.927,-0.122,2209690
-0.0,0.362,0.927,-0.122,2209694
-0.001,0.361,0.927,-0.122,2209698
-0.001,0.361,0.927,-0.061,2209702
0.002,0.361,0.927,-0.061,2209706
0.002,0.361,0.927,-0.061,2209710
0.002,0.361,0.927,-0.061,2209714
0.004,0.363,0.929,-0.183,2209718
0.004,0.363,0.929,-0.122,2209722
0.005,0.361,0.928,-0.244,2209726
0.005,0.361,0.928,-0.305,2209730
0.005,0.361,0.928,-0.305,2209734
0.004,0.361,0.927,-0.183,2209738
0.004,0.361,0.927,-0.305,2209742
0.005,0.363,0.928,-0.305,2209746
0.005,0.363,0.928,-0.305,2209750
0.005,0.361,0.928,-0.183,2209754
0.005,0.361,0.928,-0.183,2209758
0.005,0.361,0.928,-0.122,2209762
0.004,0.362,0.929,-0.183,2209766
0.004,0.362,0.929,-0.183,2209770
0.002,0.363,0.927,-0.244,2209773
0.002,0.363,0.927,-0.244,2209777
0.002,0.363,0.927,-0.183,2209781
0.001,0.363,0.927,-0.305,2209785
0.001,0.363,0.927,-0.244,2209789
0.001,0.362,0.928,-0.244,2209793
0.001,0.362,0.928,-0.244,2209797
0.001,0.362,0.928,-0.366,2209801
-0.001,0.361,0.927,-0.183,2209805
-0.001,0.361,0.927,-0.061,2209809
-0.002,0.362,0.927,-0.305,2209813
-0.002,0.362,0.927,-0.305,2209817
-0.002,0.362,0.927,-0.305,2209821
-0.005,0.362,0.925,-0.427,2209825
-0.005,0.362,0.925,-0.305,2209829
-0.006,0.36,0.925,-0.183,2209833
-0.006,0.36,0.925,-0.183,2209837
-0.006,0.36,0.925,-0.122,2209841
-0.004,0.361,0.924,-0.244,2209845
-0.004,0.361,0.924,-0.122,2209849
-0.008,0.36,0.925,-0.305,2209853
-0.008,0.36,0.925,-0.305,2209857
-0.008,0.36,0.925,-0.183,2209861
-0.009,0.359,0.926,-0.244,2209865
-0.009,0.359,0.926,-0.183,2209869
-0.009,0.359,0.926,-0.183,2209873
-0.009,0.359,0.926,-0.183,2209877
-0.009,0.359,0.926,-0.183,2209881
-0.009,0.359,0.925,-0.183,2209885
-0.009,0.359,0.925,-0.183,2209889
-0.008,0.358,0.924,-0.244,2209893
-0.008,0.358,0.924,-0.244,2209897
-0.008,0.358,0.924,-0.183,2209901
-0.008,0.36,0.926,-0.244,2209905
-0.008,0.36,0.926,0.0,2209909
-0.004,0.359,0.927,-0.183,2209913
-0.004,0.359,0.927,-0.183,2209917
-0.004,0.359,0.927,-0.122,2209921
-0.004,0.357,0.925,-0.122,2209924
-0.004,0.357,0.925,-0.244,2209928
-0.003,0.36,0.925,-0.244,2209932
-0.003,0.36,0.925,-0.244,2209936
-0.003,0.36,0.925,-0.122,2209940
-0.0,0.361,0.927,-0.061,2209944
-0.0,0.361,0.927,-0.183,2209948
0.002,0.361,0.927,-0.122,2209952
0.002,0.361,0.927,-0.122,2209956
0.002,0.361,0.927,-0.183,2209960
0.001,0.36,0.927,-0.122,2209964
0.001,0.36,0.927,-0.183,2209968
0.001,0.362,0.928,-0.305,2209972
0.001,0.362,0.928,-0.305,2209976
0.001,0.362,0.928,-0.122,2209980
0.003,0.363,0.929,-0.061,2209984
0.003,0.363,0.929,-0.183,2209988
0.002,0.364,0.929,-0.061,2209992
0.002,0.364,0.929,-0.061,2209996
0.002,0.364,0.929,-0.122,2210000
0.004,0.364,0.928,-0.183,2210004
0.004,0.364,0.928,-0.183,2210008
0.003,0.362,0.928,-0.244,2210012
0.003,0.362,0.928,-0.244,2210016
0.003,0.362,0.928,-0.061,2210020
0.003,0.363,0.928,-0.183,2210024
0.003,0.363,0.928,-0.244,2210028
0.002,0.363,0.927,-0.183,2210032
0.002,0.363,0.927,-0.183,2210036
0.002,0.363,0.927,-0.244,2210040
0.004,0.362,0.927,-0.244,2210044
0.004,0.362,0.927,-0.244,2210048
0.0,0.362,0.928,-0.183,2210052
0.0,0.362,0.928,-0.183,2210056
0.0,0.362,0.928,0.0,2210060
0.0,0.362,0.927,-0.244,2210064
0.0,0.362,0.927,-0.366,2210068
-0.002,0.361,0.927,-0.305,2210072
-0.002,0.361,0.927,-0.305,2210076
-0.002,0.361,0.927,-0.244,2210080
-0.003,0.36,0.926,-0.366,2210084
-0.003,0.36,0.926,-0.244,2210088
-0.005,0.36,0.925,-0.122,2210092
-0.005,0.36,0.925,-0.122,2210096
-0.005,0.36,0.925,-0.305,2210099
-0.004,0.361,0.925,-0.305,2210103
-0.004,0.361,0.925,-0.244,2210107
-0.006,0.358,0.924,-0.183,2210111
-0.006,0.358,0.924,-0.183,2210115
-0.006,0.358,0.924,-0.183,2210119
-0.005,0.36,0.925,-0.183,2210123
-0.005,0.36,0.925,-0.122,2210127
-0.007,0.359,0.926,-0.061,2210131
-0.007,0.359,0.926,-0.061,2210135
-0.007,0.359,0.926,-0.122,2210139
-0.008,0.359,0.927,-0.183,2210143
-0.008,0.359,0.927,-0.061,2210147
-0.008,0.359,0.925,-0.122,2210151
-0.008,0.359,0.925,-0.122,2210155
-0.008,0.359,0.925,-0.183,2210159
-0.007,0.359,0.925,-0.061,2210163
-0.007,0.359,0.925,-0.122,2210167
-0.005,0.36,0.923,-0.244,2210171
-0.005,0.36,0.923,-0.244,2210175
-0.005,0.36,0.923,-0.183,2210179
-0.004,0.361,0.924,-0.122,2210183
-0.004,0.361,0.924,-0.183,2210187
-0.001,0.36,0.926,-0.183,2210191
-0.001,0.36,0.926,-0.183,2210195
-0.001,0.36,0.926,-0.183,2210199
-0.001,0.36,0.925,0.0,2210203
-0.001,0.36,0.925,-0.122,2210207
-0.003,0.363,0.928,-0.122,2210211
-0.003,0.363,0.928,-0.122,2210215
-0.003,0.363,0.928,-0.183,2210219
0.0,0.362,0.926,-0.244,2210223
0.0,0.362,0.926,-0.183,2210227
0.0,0.362,0.927,-0.122,2210231
0.0,0.362,0.927,-0.122,2210235
0.0,0.362,0.927,-0.183,2210238
0.001,0.361,0.927,-0.122,2210242
0.001,0.361,0.927,-0.122,2210246
0.002,0.361,0.926,-0.244,2210250
0.002,0.361,0.926,-0.244,2210254
0.002,0.361,0.926,-0.305,2210258
0.005,0.362,0.928,-0.061,2210262
0.005,0.362,0.928,-0.183,2210266
0.003,0.363,0.928,-0.244,2210270
0.003,0.363,0.928,-0.244,2210274
0.003,0.363,0.928,-0.244,2210278
0.002,0.361,0.928,-0.183,2210282
0.002,0.361,0.928,-0.183,2210286
0.004,0.363,0.926,-0.183,2210290
0.004,0.363,0.926,-0.183,2210294
0.004,0.363,0.926,-0.183,2210298
0.002,0.361,0.926,-0.244,2210302
0.002,0.361,0.926,-0.244,2210306
0.0,0.362,0.925,-0.183,2210310
0.0,0.362,0.925,-0.366,2210314
0.0,0.362,0.925,-0.366,2210318
0.0,0.361,0.926,-0.122,2210322
0.0,0.361,0.926,-0.244,2210326
-0.002,0.362,0.927,-0.244,2210330
-0.002,0.362,0.927,-0.122,2210334
-0.002,0.362,0.927,-0.122,2210338
-0.003,0.361,0.927,-0.061,2210342
-0.003,0.361,0.927,-0.122,2210346
-0.004,0.36,0.926,-0.122,2210350
-0.004,0.36,0.926,-0.183,2210354
-0.004,0.36,0.926,-0.183,2210358
-0.004,0.36,0.924,-0.244,2210362
-0.004,0.36,0.924,-0.244,2210366
-0.006,0.361,0.926,-0.122,2210370
-0.006,0.361,0.926,-0.122,2210374
-0.006,0.361,0.926,-0.122,2210378
-0.005,0.36,0.925,-0.183,2210382
-0.005,0.36,0.925,-0.366,2210386
-0.007,0.36,0.925,-0.244,2210390
-0.007,0.36,0.925,0.0,2210393
-0.007,0.36,0.925,0.0,2210397
-0.006,0.36,0.924,-0.122,2210401
-0.006,0.36,0.924,-0.183,2210405
-0.005,0.361,0.925,-0.061,2210409
-0.005,0.361,0.925,-0.061,2210413
-0.005,0.361,0.925,-0.122,2210417
-0.004,0.364,0.926,-0.183,2210421
-0.004,0.364,0.926,-0.244,2210425
-0.004,0.359,0.927,-0.305,2210429
-0.004,0.359,0.927,-0.366,2210433
-0.004,0.359,0.927,-0.366,2210437
-0.004,0.36,0.926,-0.244,2210441
-0.004,0.36,0.926,-0.183,2210445
-0.002,0.36,0.927,-0.122,2210449
-0.002,0.36,0.927,-0.183,2210453
-0.002,0.36,0.927,-0.183,2210457
-0.001,0.361,0.926,-0.183,2210461
-0.001,0.361,0.926,-0.122,2210465
-0.001,0.36,0.926,-0.061,2210469
-0.001,0.36,0.926,-0.122,2210473
-0.001,0.36,0.926,-0.122,2210477
-0.0,0.36,0.928,-0.305,2210481
-0.0,0.36,0.928,-0.305,2210485
0.0,0.359,0.928,0.0,2210489
0.0,0.359,0.928,-0.244,2210493
0.0,0.359,0.928,-0.244,2210497
0.001,0.36,0.927,-0.305,2210501
0.001,0.36,0.927,-0.061,2210505
0.002,0.362,0.927,0.0,2210509
0.002,0.362,0.927,-0.244,2210513
0.002,0.362,0.927,-0.244,2210517
0.001,0.361,0.928,-0.244,2210520
0.001,0.361,0.928,-0.244,2210524
0.001,0.361,0.929,-0.183,2210528
0.001,0.361,0.929,-0.122,2210532
0.001,0.361,0.929,-0.122,2210536
0.0,0.36,0.926,-0.244,2210540
0.0,0.36,0.926,-0.244,2210544
0.0,0.362,0.926,-0.244,2210548
0.0,0.362,0.926,-0.244,2210552
0.0,0.362,0.926,-0.244,2210556
-0.0,0.362,0.927,-0.183,2210560
-0.0,0.362,0.927,-0.183,2210564
-0.001,0.362,0.924,-0.061,2210568
-0.001,0.362,0.924,-0.183,2210572
-0.001,0.362,0.924,-0.183,2210576
-0.004,0.361,0.925,-0.305,2210580
-0.004,0.361,0.925,-0.183,2210584
-0.002,0.361,0.926,-0.183,2210588
-0.002,0.361,0.926,-0.305,2210592
-0.002,0.361,0.926,-0.305,2210596
-0.002,0.36,0.927,-0.183,2210600
-0.002,0.36,0.927,-0.183,2210604
-0.004,0.361,0.925,-0.122,2210608
-0.004,0.361,0.925,-0.244,2210612
-0.004,0.361,0.925,-0.244,2210616
-0.005,0.362,0.925,-0.305,2210620
-0.005,0.362,0.925,-0.366,2210624
-0.003,0.362,0.927,-0.183,2210628
-0.003,0.362,0.927,-0.122,2210632
-0.003,0.362,0.927,-0.122,2210636
-0.004,0.36,0.926,-0.183,2210640
-0.004,0.36,0.926,-0.244,2210644
-0.004,0.359,0.923,-0.183,2210648
-0.004,0.359,0.923,-0.183,2210652
-0.004,0.359,0.923,-0.183,2210656
-0.003,0.357,0.925,-0.122,2210660
-0.003,0.357,0.925,-0.122,2210664
-0.002,0.358,0.926,-0.061,2210668
-0.002,0.358,0.926,-0.305,2210672
-0.002,0.358,0.926,-0.305,2210676
-0.006,0.359,0.925,-0.305,2210680
-0.006,0.359,0.925,-0.061,2210684
-0.004,0.357,0.923,0.0,2210687
-0.004,0.357,0.923,-0.122,2210691
-0.004,0.357,0.923,-0.122,2210695
-0.004,0.358,0.927,-0.183,2210699
-0.004,0.358,0.927,-0.305,2210703
-0.004,0.361,0.928,-0.244,2210707
-0.004,0.361,0.928,-0.122,2210711
-0.004,0.361,0.928,-0.122,2210715
-0.003,0.359,0.926,-0.183,2210719
-0.003,0.359,0.926,-0.183,2210723
-0.002,0.36,0.925,-0.183,2210727
-0.002,0.36,0.925,-0.061,2210731
-0.002,0.36,0.925,-0.061,2210735
-0.003,0.36,0.924,0.0,2210739
-0.003,0.36,0.924,-0.183,2210743
-0.004,0.36,0.925,-0.244,2210747
-0.004,0.36,0.925,-0.061,2210751
-0.004,0.36,0.925,-0.061,2210755
-0.002,0.361,0.926,-0.122,2210759
-0.002,0.361,0.926,0.0,2210763
-0.001,0.362,0.93,-0.183,2210767
-0.001,0.362,0.93,-0.122,2210771
-0.001,0.362,0.93,-0.122,2210775
0.001,0.364,0.931,-0.244,2210779
0.001,0.364,0.931,-0.122,2210783
0.004,0.365,0.929,-0.122,2210787
0.004,0.365,0.929,-0.183,2210791
0.004,0.365,0.929,-0.183,2210795
0.003,0.364,0.93,-0.122,2210799
0.003,0.364,0.93,-0.183,2210803
0.006,0.365,0.931,-0.244,2210807
0.006,0.365,0.931,-0.122,2210811
0.006,0.365,0.931,-0.122,2210815
0.006,0.362,0.926,-0.244,2210819
0.006,0.362,0.926,-0.244,2210823
0.005,0.363,0.925,-0.122,2210827
0.005,0.363,0.925,-0.427,2210830
0.005,0.363,0.925,-0.427,2210834
0.004,0.362,0.924,-0.244,2210838
0.004,0.362,0.924,-0.183,2210842
0.003,0.36,0.926,-0.244,2210846
0.003,0.36,0.926,-0.305,2210850
0.003,0.36,0.926,-0.305,2210854
0.003,0.36,0.928,-0.366,2210858
0.003,0.36,0.928,-0.305,2210862
-0.0,0.359,0.927,-0.122,2210866
-0.0,0.359,0.927,-0.122,2210870
-0.0,0.359,0.927,-0.122,2210874
-0.002,0.359,0.927,-0.183,2210878
-0.002,0.359,0.927,-0.244,2210882
-0.005,0.358,0.926,-0.183,2210886
-0.005,0.358,0.926,-0.244,2210890
-0.005,0.358,0.926,-0.244,2210894
-0.008,0.358,0.924,-0.244,2210898
-0.008,0.358,0.924,-0.305,2210902
-0.006,0.36,0.925,-0.183,2210906
-0.006,0.36,0.925,-0.122,2210910
-0.006,0.36,0.925,-0.122,2210914
-0.008,0.36,0.924,-0.366,2210918
-0.008,0.36,0.924,-0.305,2210922
-0.009,0.359,0.925,-0.122,2210926
-0.009,0.359,0.925,-0.183,2210930
-0.009,0.359,0.925,-0.183,2210934
-0.01,0.359,0.923,-0.305,2210938
-0.01,0.359,0.923,-0.183,2210942
-0.01,0.36,0.922,-0.183,2210946
-0.01,0.36,0.922,-0.183,2210950
-0.01,0.36,0.922,-0.183,2210954
-0.01,0.358,0.924,-0.061,2210958
-0.01,0.358,0.924,0.0,2210962
-0.009,0.359,0.922,-0.061,2210966
-0.009,0.359,0.922,-0.061,2210970
-0.009,0.359,0.922,-0.061,2210973
-0.008,0.36,0.923,-0.122,2210977
-0.008,0.36,0.923,-0.183,2210981
-0.007,0.36,0.924,-0.183,2210985
-0.007,0.36,0.924,-0.061,2210989
-0.007,0.36,0.924,-0.061,2210993
-0.004,0.362,0.926,-0.061,2210997
-0.004,0.362,0.926,-0.183,2211001
-0.003,0.362,0.927,0.0,2211005
-0.003,0.362,0.927,-0.061,2211009
-0.003,0.362,0.927,-0.061,2211013
0.0,0.36,0.928,-0.183,2211017
0.0,0.36,0.928,0.0,2211021
0.004,0.363,0.928,0.0,2211025
0.004,0.363,0.928,-0.122,2211029
0.004,0.363,0.928,-0.122,2211033
0.006,0.362,0.928,-0.183,2211037
0.006,0.362,0.928,-0.122,2211041
0.007,0.362,0.93,-0.061,2211045
0.007,0.362,0.93,-0.122,2211049
0.007,0.362,0.93,-0.122,2211053
0.006,0.362,0.929,-0.061,2211057
0.006,0.362,0.929,-0.244,2211061
0.007,0.362,0.927,-0.244,2211065
0.007,0.362,0.927,-0.305,2211069
0.007,0.362,0.927,-0.305,2211073
0.01,0.362,0.929,-0.244,2211077
0.01,0.362,0.929,-0.244,2211081
0.008,0.363,0.93,-0.366,2211085
0.008,0.363,0.93,-0.244,2211089
0.008,0.363,0.93,-0.244,2211093
0.006,0.363,0.929,-0.244,2211097
0.006,0.363,0.929,-0.183,2211101
0.003,0.363,0.928,-0.244,2211105
0.003,0.363,0.928,-0.305,2211108
0.003,0.363,0.928,-0.305,2211112
0.0,0.361,0.927,-0.305,2211116
0.0,0.361,0.927,-0.305,2211120
-0.0,0.361,0.925,-0.305,2211124
-0.0,0.361,0.925,-0.244,2211128
-0.0,0.361,0.925,-0.244,2211132
-0.001,0.359,0.925,-0.366,2211136
-0.001,0.359,0.925,-0.305,2211140
-0.004,0.361,0.925,-0.244,2211144
-0.004,0.361,0.925,-0.305,2211148
-0.004,0.361,0.925,-0.305,2211152
-0.007,0.36,0.924,-0.305,2211156
-0.007,0.36,0.924,-0.244,2211160
-0.009,0.359,0.925,-0.244,2211164
-0.009,0.359,0.925,-0.244,2211168
-0.009,0.359,0.925,-0.244,2211172
-0.011,0.359,0.924,-0.305,2211176
-0.011,0.359,0.924,-0.305,2211180
-0.011,0.358,0.924,-0.244,2211184
-0.011,0.358,0.924,-0.183,2211188
-0.011,0.358,0.924,-0.183,2211192
-0.01,0.359,0.924,-0.244,2211196
-0.01,0.359,0.924,-0.122,2211200
-0.011,0.361,0.922,-0.061,2211204
-0.011,0.361,0.922,-0.244,2211208
-0.011,0.361,0.922,-0.244,2211212
-0.011,0.359,0.921,-0.183,2211216
-0.011,0.359,0.921,-0.122,2211220
-0.01,0.358,0.923,-0.244,2211224
-0.01,0.358,0.923,-0.122,2211228
-0.01,0.358,0.923,-0.122,2211232
-0.007,0.359,0.925,-0.183,2211236
-0.007,0.359,0.925,-0.122,2211240
-0.007,0.36,0.924,-0.244,2211244
-0.007,0.36,0.924,-0.061,2211248
-0.004,0.357,0.925,-0.183,2211252
-0.004,0.357,0.925,-0.183,2211256
-0.004,0.357,0.925,-0.122,2211260
-0.003,0.357,0.927,-0.427,2211264
-0.003,0.357,0.927,-0.244,2211268
0.0,0.36,0.929,-0.122,2211271
0.0,0.36,0.929,-0.122,2211275
0.0,0.36,0.929,-0.122,2211279
0.003,0.362,0.932,-0.122,2211283
0.003,0.362,0.932,-0.244,2211287
0.003,0.362,0.932,-0.244,2211291
0.004,0.362,0.93,-0.183,2211295
0.004,0.362,0.93,-0.122,2211299
0.006,0.362,0.93,-0.061,2211303
0.006,0.362,0.93,-0.061,2211307
0.007,0.364,0.927,-0.122,2211311
0.007,0.364,0.927,-0.122,2211315
0.007,0.364,0.927,-0.122,2211319
0.006,0.364,0.929,-0.244,2211323
0.006,0.364,0.929,-0.122,2211327
0.005,0.364,0.926,-0.183,2211331
0.005,0.364,0.926,-0.183,2211335
0.005,0.364,0.926,-0.122,2211339
0.006,0.364,0.925,-0.122,2211343
0.006,0.364,0.925,-0.305,2211347
0.005,0.364,0.927,-0.305,2211351
0.005,0.364,0.927,-0.305,2211355
0.005,0.364,0.927,-0.183,2211359
0.004,0.364,0.932,-0.244,2211363
0.004,0.364,0.932,-0.122,2211367
0.004,0.365,0.929,-0.183,2211371
0.004,0.365,0.929,-0.183,2211375
0.004,0.365,0.929,-0.305,2211379
0.001,0.362,0.928,-0.244,2211383
0.001,0.362,0.928,-0.305,2211387
0.0,0.361,0.924,-0.244,2211391
0.0,0.361,0.924,-0.244,2211395
0.0,0.361,0.924,-0.244,2211399
-0.004,0.36,0.924,-0.244,2211402
-0.004,0.36,0.924,-0.305,2211406
-0.006,0.36,0.924,-0.244,2211410
-0.006,0.36,0.924,-0.244,2211414
-0.006,0.36,0.924,-0.183,2211418
-0.006,0.359,0.923,-0.183,2211422
-0.006,0.359,0.923,-0.366,2211426
-0.005,0.359,0.925,-0.305,2211430
-0.005,0.359,0.925,-0.305,2211434
-0.005,0.359,0.925,-0.244,2211438
-0.007,0.361,0.925,-0.183,2211442
-0.007,0.361,0.925,-0.183,2211446
-0.008,0.357,0.927,-0.244,2211450
-0.008,0.357,0.927,-0.244,2211454
-0.008,0.357,0.927,-0.183,2211458
-0.008,0.356,0.926,-0.244,2211462
-0.008,0.356,0.926,-0.305,2211466
-0.009,0.357,0.925,-0.183,2211470
-0.009,0.357,0.925,-0.183,2211474
-0.009,0.357,0.925,-0.183,2211478
-0.009,0.359,0.925,-0.061,2211482
-0.009,0.359,0.925,-0.122,2211486
-0.008,0.36,0.924,-0.183,2211490
-0.008,0.36,0.924,-0.183,2211494
-0.008,0.36,0.924,-0.183,2211498
-0.006,0.359,0.925,-0.122,2211502
-0.006,0.359,0.925,0.0,2211506
-0.004,0.361,0.926,0.0,2211510
-0.004,0.361,0.926,0.0,2211514
-0.004,0.361,0.926,-0.061,2211518
-0.002,0.362,0.927,-0.122,2211521
-0.002,0.362,0.927,-0.183,2211525
-0.0,0.36,0.926,-0.244,2211529
-0.0,0.36,0.926,-0.244,2211533
-0.0,0.36,0.926,-0.244,2211537
0.001,0.362,0.925,-0.183,2211541
0.001,0.362,0.925,-0.183,2211545
0.004,0.363,0.927,-0.183,2211549
0.004,0.363,0.927,-0.183,2211553
0.004,0.363,0.927,-0.061,2211557
0.004,0.363,0.929,-0.122,2211561
0.004,0.363,0.929,-0.122,2211565
0.007,0.364,0.929,-0.122,2211569
0.007,0.364,0.929,-0.122,2211573
0.007,0.364,0.929,-0.122,2211577
0.007,0.363,0.93,-0.122,2211581
0.007,0.363,0.93,-0.183,2211585
0.003,0.365,0.929,-0.183,2211589
0.003,0.365,0.929,-0.183,2211593
0.003,0.365,0.929,-0.183,2211597
0.004,0.365,0.928,-0.183,2211601
0.004,0.365,0.928,-0.122,2211605
0.006,0.364,0.927,-0.305,2211609
0.006,0.364,0.927,-0.305,2211613
0.006,0.364,0.927,-0.305,2211617
0.004,0.361,0.926,-0.061,2211621
0.004,0.361,0.926,-0.244,2211625
0.004,0.359,0.927,-0.305,2211629
0.004,0.359,0.927,-0.305,2211633
0.004,0.359,0.927,-0.305,2211637
0.001,0.359,0.928,-0.366,2211641
0.001,0.359,0.928,-0.427,2211645
0.001,0.358,0.928,-0.183,2211649
0.001,0.358,0.928,-0.183,2211653
0.001,0.358,0.928,-0.244,2211657
-0.001,0.359,0.928,-0.244,2211661
-0.001,0.359,0.928,-0.244,2211665
-0.004,0.358,0.926,-0.244,2211669
-0.004,0.358,0.926,-0.244,2211673
-0.004,0.358,0.926,-0.305,2211677
-0.003,0.358,0.925,-0.305,2211681
-0.003,0.358,0.925,-0.244,2211685
-0.009,0.36,0.924,-0.122,2211689
-0.009,0.36,0.924,-0.122,2211693
-0.009,0.36,0.924,-0.122,2211697
-0.01,0.36,0.922,-0.183,2211700
-0.01,0.36,0.922,-0.244,2211704
-0.01,0.357,0.922,-0.244,2211708
-0.01,0.357,0.922,-0.244,2211712
-0.01,0.357,0.922,-0.244,2211716
-0.008,0.359,0.924,-0.061,2211720
-0.008,0.359,0.924,0.0,2211724
-0.009,0.36,0.924,-0.061,2211728
-0.009,0.36,0.924,-0.061,2211732
-0.009,0.36,0.924,-0.244,2211736
-0.009,0.359,0.924,-0.183,2211740
-0.009,0.359,0.924,0.0,2211744
-0.008,0.359,0.924,-0.122,2211748
-0.008,0.359,0.924,-0.122,2211752
-0.008,0.359,0.924,-0.244,2211756
-0.007,0.361,0.924,-0.061,2211760
-0.007,0.361,0.924,0.0,2211764
-0.006,0.359,0.927,-0.061,2211768
-0.006,0.359,0.927,-0.061,2211772
-0.006,0.359,0.927,-0.183,2211776
-0.002,0.36,0.925,-0.244,2211780
-0.002,0.36,0.925,-0.305,2211784
-0.0,0.362,0.927,-0.244,2211788
-0.0,0.362,0.927,-0.244,2211792
-0.0,0.362,0.927,-0.061,2211796
-0.0,0.362,0.928,0.061,2211800
-0.0,0.362,0.928,-0.122,2211804
0.003,0.363,0.928,-0.183,2211808
0.003,0.363,0.928,-0.183,2211812
0.003,0.363,0.928,-0.244,2211816
0.003,0.363,0.928,-0.244,2211820
0.003,0.363,0.928,-0.244,2211824
0.005,0.363,0.927,-0.244,2211828
0.005,0.363,0.927,-0.244,2211832
0.005,0.363,0.927,-0.305,2211836
0.006,0.361,0.93,-0.244,2211839
0.006,0.361,0.93,-0.122,2211843
0.007,0.361,0.93,-0.305,2211847
0.007,0.361,0.93,-0.305,2211851
0.007,0.361,0.93,-0.427,2211855
0.007,0.362,0.93,-0.244,2211859
0.007,0.362,0.93,-0.183,2211863
0.004,0.361,0.93,-0.244,2211867
0.004,0.361,0.93,-0.244,2211871
0.004,0.361,0.93,-0.122,2211875
0.004,0.362,0.927,-0.122,2211879
0.004,0.362,0.927,-0.244,2211883
0.004,0.363,0.928,-0.183,2211887
0.004,0.363,0.928,-0.183,2211891
0.004,0.363,0.928,-0.122,2211895
0.001,0.362,0.928,-0.183,2211899
0.001,0.362,0.928,-0.183,2211903
-0.0,0.363,0.926,-0.244,2211907
-0.0,0.363,0.926,-0.244,2211911
-0.0,0.363,0.926,-0.183,2211915
-0.005,0.362,0.925,-0.305,2211919
-0.005,0.362,0.925,-0.244,2211923
-0.005,0.361,0.926,-0.183,2211927
-0.005,0.361,0.926,-0.183,2211931
-0.005,0.361,0.926,-0.183,2211935
-0.005,0.361,0.924,-0.122,2211939
-0.005,0.361,0.924,-0.122,2211943
-0.006,0.359,0.923,-0.183,2211947
-0.006,0.359,0.923,-0.183,2211951
-0.006,0.359,0.923,-0.183,2211955
-0.007,0.359,0.925,-0.122,2211959
-0.007,0.359,0.925,-0.122,2211963
-0.008,0.357,0.925,-0.244,2211967
-0.008,0.357,0.925,-0.244,2211971
-0.008,0.357,0.925,-0.244,2211975
-0.007,0.358,0.925,-0.122,2211979
-0.007,0.358,0.925,-0.122,2211983
-0.008,0.357,0.925,-0.244,2211987
-0.008,0.357,0.925,-0.244,2211991
-0.008,0.357,0.925,-0.183,2211995
-0.008,0.361,0.925,-0.061,2211999
-0.008,0.361,0.925,-0.122,2212003
-0.006,0.359,0.926,-0.244,2212007
-0.006,0.359,0.926,-0.122,2212011
-0.006,0.359,0.926,-0.122,2212015
-0.003,0.359,0.926,-0.122,2212019
-0.003,0.359,0.926,-0.183,2212022
-0.003,0.359,0.925,-0.122,2212026
-0.003,0.359,0.925,0.0,2212030
-0.003,0.359,0.925,0.0,2212034
-0.003,0.359,0.927,-0.183,2212038
-0.003,0.359,0.927,-0.244,2212042
-0.001,0.361,0.927,-0.244,2212046
-0.001,0.361,0.927,-0.061,2212050
-0.001,0.361,0.927,-0.061,2212054
-0.001,0.36,0.927,-0.183,2212058
-0.001,0.36,0.927,-0.122,2212062
0.003,0.362,0.927,-0.183,2212066
0.003,0.362,0.927,-0.122,2212070
0.003,0.362,0.927,-0.122,2212074
0.004,0.364,0.928,-0.183,2212078
0.004,0.364,0.928,-0.183,2212082
0.002,0.362,0.929,-0.061,2212086
0.002,0.362,0.929,-0.122,2212090
0.002,0.362,0.929,-0.122,2212094
0.005,0.361,0.927,-0.244,2212098
0.005,0.361,0.927,-0.183,2212102
0.006,0.363,0.926,-0.122,2212106
0.006,0.363,0.926,-0.183,2212110
0.006,0.363,0.926,-0.183,2212114
0.005,0.364,0.927,-0.183,2212118
0.005,0.364,0.927,-0.244,2212122
0.003,0.364,0.927,-0.305,2212126
0.003,0.364,0.927,-0.244,2212130
0.003,0.364,0.927,-0.244,2212134
0.005,0.363,0.927,-0.183,2212138
0.005,0.363,0.927,-0.183,2212142
0.004,0.362,0.929,-0.305,2212146
0.004,0.362,0.929,-0.244,2212150
0.004,0.362,0.929,-0.244,2212154
0.001,0.363,0.926,-0.244,2212158
0.001,0.363,0.926,-0.244,2212162
-0.002,0.361,0.926,-0.244,2212166
-0.002,0.361,0.926,-0.305,2212170
-0.002,0.361,0.926,-0.305,2212174
-0.002,0.361,0.927,-0.244,2212178
-0.002,0.361,0.927,-0.244,2212182
-0.003,0.361,0.926,-0.305,2212186
-0.003,0.361,0.926,-0.244,2212189
-0.003,0.361,0.926,-0.244,2212193
-0.005,0.36,0.925,-0.244,2212197
-0.005,0.36,0.925,-0.244,2212201
-0.007,0.359,0.925,-0.244,2212205
-0.007,0.359,0.925,-0.244,2212209
-0.007,0.359,0.925,-0.244,2212213
-0.007,0.359,0.927,-0.122,2212217
-0.007,0.359,0.927,-0.122,2212221
-0.006,0.358,0.925,-0.244,2212225
-0.006,0.358,0.925,-0.183,2212229
-0.006,0.358,0.925,-0.183,2212233
-0.009,0.358,0.924,-0.244,2212237
-0.009,0.358,0.924,-0.183,2212241
-0.009,0.357,0.925,-0.244,2212245
-0.009,0.357,0.925,-0.183,2212249
-0.009,0.357,0.925,-0.183,2212253
-0.008,0.358,0.924,-0.183,2212257
-0.008,0.358,0.924,-0.244,2212261
-0.006,0.358,0.925,-0.183,2212265
-0.006,0.358,0.925,-0.122,2212269
-0.006,0.358,0.925,-0.122,2212273
-0.006,0.358,0.927,-0.183,2212277
-0.006,0.358,0.927,-0.244,2212281
-0.006,0.359,0.926,-0.244,2212285
-0.006,0.359,0.926,-0.183,2212289
-0.006,0.359,0.926,-0.183,2212293
-0.003,0.361,0.927,-0.183,2212297
-0.003,0.361,0.927,-0.122,2212301
-0.002,0.363,0.927,-0.183,2212305
-0.002,0.363,0.927,-0.122,2212309
-0.002,0.363,0.927,-0.122,2212313
0.0,0.362,0.926,-0.122,2212317
0.0,0.362,0.926,-0.122,2212321
0.002,0.363,0.927,-0.183,2212325
0.002,0.363,0.927,-0.183,2212329
0.002,0.363,0.927,-0.183,2212333
0.003,0.363,0.928,-0.122,2212337
0.003,0.363,0.928,-0.122,2212341
0.003,0.362,0.927,-0.183,2212345
0.003,0.362,0.927,-0.122,2212348
0.003,0.362,0.927,-0.122,2212352
0.006,0.363,0.927,-0.183,2212356
0.006,0.363,0.927,-0.183,2212360
0.003,0.362,0.928,-0.122,2212364
0.003,0.362,0.928,-0.183,2212368
0.003,0.362,0.928,-0.183,2212372
0.004,0.362,0.928,-0.183,2212376
0.004,0.362,0.928,-0.244,2212380
0.002,0.363,0.927,-0.122,2212384
0.002,0.363,0.927,-0.305,2212388
0.002,0.363,0.927,-0.305,2212392
0.003,0.362,0.927,-0.305,2212396
0.003,0.362,0.927,-0.244,2212400
0.001,0.361,0.927,-0.244,2212404
0.001,0.361,0.927,-0.244,2212408
0.001,0.361,0.927,-0.244,2212412
0.002,0.36,0.926,-0.244,2212416
0.002,0.36,0.926,-0.244,2212420
0.001,0.361,0.926,-0.244,2212424
0.001,0.361,0.926,-0.183,2212428
0.001,0.361,0.926,-0.183,2212432
-0.002,0.361,0.926,-0.366,2212436
-0.002,0.361,0.926,-0.183,2212440
-0.004,0.358,0.926,-0.183,2212444
-0.004,0.358,0.926,-0.244,2212448
-0.004,0.358,0.926,-0.244,2212452
-0.006,0.359,0.926,-0.183,2212456
-0.006,0.359,0.926,-0.305,2212460
-0.005,0.36,0.924,-0.244,2212464
-0.005,0.36,0.924,-0.244,2212468
-0.005,0.36,0.924,-0.244,2212472
-0.008,0.36,0.923,-0.183,2212476
-0.008,0.36,0.923,-0.244,2212480
-0.007,0.358,0.924,-0.244,2212484
-0.007,0.358,0.924,-0.122,2212488
-0.007,0.358,0.924,-0.122,2212492
-0.007,0.358,0.924,-0.183,2212496
-0.007,0.358,0.924,-0.244,2212500
-0.007,0.359,0.925,-0.061,2212504
-0.007,0.359,0.925,-0.183,2212508
-0.007,0.36,0.925,-0.305,2212512
-0.007,0.36,0.925,-0.305,2212516
-0.007,0.36,0.925,-0.061,2212520
-0.006,0.361,0.924,-0.183,2212523
-0.006,0.361,0.924,-0.244,2212527
-0.004,0.36,0.926,-0.244,2212531
-0.004,0.36,0.926,-0.244,2212535
-0.004,0.36,0.926,-0.122,2212539
-0.004,0.36,0.924,-0.061,2212543
-0.004,0.36,0.924,-0.183,2212547
-0.002,0.36,0.925,-0.244,2212551
-0.002,0.36,0.925,-0.244,2212555
-0.002,0.36,0.925,-0.061,2212559
0.0,0.362,0.927,0.0,2212563
0.0,0.362,0.927,-0.122,2212567
0.0,0.36,0.927,-0.061,2212571
0.0,0.36,0.927,-0.061,2212575
0.0,0.36,0.927,-0.183,2212579
0.001,0.361,0.926,-0.305,2212583
0.001,0.361,0.926,-0.183,2212587
0.003,0.362,0.928,-0.122,2212591
0.003,0.362,0.928,-0.122,2212595
0.003,0.362,0.928,0.0,2212599
0.004,0.362,0.927,-0.244,2212603
0.004,0.362,0.927,-0.122,2212607
0.004,0.362,0.927,-0.122,2212611
0.001,0.362,0.926,-0.183,2212615
0.001,0.362,0.926,-0.244,2212619
0.005,0.363,0.928,-0.183,2212623
0.005,0.363,0.928,-0.122,2212627
0.006,0.363,0.93,-0.183,2212631
0.006,0.363,0.93,-0.183,2212635
0.006,0.363,0.93,-0.305,2212639
0.003,0.362,0.929,-0.244,2212643
0.003,0.362,0.929,-0.183,2212647
0.003,0.361,0.929,-0.183,2212651
0.003,0.361,0.929,-0.183,2212655
0.003,0.361,0.929,-0.183,2212659
0.001,0.363,0.928,-0.305,2212662
0.001,0.363,0.928,-0.366,2212666
-0.001,0.363,0.928,-0.244,2212670
-0.001,0.363,0.928,-0.244,2212674
-0.001,0.363,0.928,-0.366,2212678
-0.0,0.362,0.929,-0.366,2212682
-0.0,0.362,0.929,-0.183,2212686
-0.001,0.36,0.927,-0.122,2212690
-0.001,0.36,0.927,-0.122,2212694
-0.001,0.36,0.927,-0.183,2212698
-0.005,0.361,0.926,-0.244,2212702
-0.005,0.361,0.926,-0.244,2212706
-0.005,0.362,0.927,-0.183,2212710
-0.005,0.362,0.927,-0.183,2212714
-0.005,0.362,0.927,-0.183,2212718
-0.005,0.362,0.927,-0.183,2212722
-0.005,0.362,0.927,-0.244,2212726
-0.006,0.36,0.927,-0.244,2212730
-0.006,0.36,0.927,-0.244,2212734
-0.006,0.36,0.927,-0.305,2212738
-0.007,0.358,0.926,-0.244,2212742
-0.007,0.358,0.926,-0.183,2212746
-0.006,0.359,0.925,-0.305,2212750
-0.006,0.359,0.925,-0.305,2212754
-0.006,0.359,0.925,-0.244,2212758
-0.006,0.358,0.925,-0.244,2212762
-0.006,0.358,0.925,-0.244,2212766
-0.006,0.358,0.926,-0.183,2212770
-0.006,0.358,0.926,-0.183,2212774
-0.006,0.358,0.926,-0.183,2212778
-0.004,0.361,0.924,-0.061,2212782
-0.004,0.361,0.924,-0.183,2212786
-0.004,0.36,0.927,-0.183,2212790
-0.004,0.36,0.927,-0.183,2212794
-0.004,0.36,0.927,-0.122,2212798
-0.003,0.36,0.927,0.061,2212801
-0.003,0.36,0.927,-0.122,2212805
-0.003,0.36,0.926,-0.183,2212809
-0.003,0.36,0.926,-0.183,2212813
-0.003,0.36,0.926,-0.244,2212817
-0.001,0.361,0.927,-0.183,2212821
-0.001,0.361,0.927,-0.061,2212825
-0.002,0.363,0.926,-0.122,2212829
-0.002,0.363,0.926,-0.122,2212833
-0.002,0.363,0.926,-0.061,2212837
0.001,0.361,0.927,-0.122,2212841
0.001,0.361,0.927,-0.183,2212845
0.003,0.362,0.927,-0.183,2212849
0.003,0.362,0.927,-0.183,2212853
0.003,0.362,0.927,-0.366,2212857
0.001,0.362,0.927,-0.183,2212861
0.001,0.362,0.927,-0.122,2212865
0.001,0.362,0.928,-0.061,2212869
0.001,0.362,0.928,-0.061,2212873
0.001,0.362,0.928,-0.183,2212877
0.003,0.363,0.928,-0.183,2212881
0.003,0.363,0.928,-0.183,2212885
0.002,0.364,0.927,-0.244,2212889
0.002,0.364,0.927,-0.244,2212893
0.002,0.364,0.927,-0.244,2212897
0.003,0.36,0.928,-0.183,2212901
0.003,0.36,0.928,-0.183,2212905
0.003,0.362,0.925,-0.122,2212909
0.003,0.362,0.925,-0.122,2212913
0.003,0.362,0.925,-0.183,2212917
0.002,0.363,0.927,-0.244,2212921
0.002,0.363,0.927,-0.061,2212925
0.001,0.363,0.926,-0.305,2212929
0.001,0.363,0.926,-0.305,2212933
0.001,0.363,0.926,-0.366,2212937
-0.002,0.362,0.926,-0.122,2212941
-0.002,0.362,0.926,-0.122,2212945
-0.003,0.361,0.925,-0.183,2212949
-0.003,0.361,0.925,-0.183,2212953
-0.003,0.361,0.925,-0.183,2212957
-0.002,0.361,0.927,-0.122,2212960
-0.002,0.361,0.927,-0.122,2212964
-0.003,0.359,0.926,-0.183,2212968
-0.003,0.359,0.926,-0.183,2212972
-0.003,0.359,0.926,-0.183,2212976
-0.006,0.36,0.926,-0.244,2212980
-0.006,0.36,0.926,-0.244,2212984
-0.006,0.36,0.927,-0.122,2212988
-0.006,0.36,0.927,-0.122,2212992
-0.006,0.36,0.927,-0.305,2212996
-0.006,0.359,0.926,-0.244,2213000
-0.006,0.359,0.926,-0.122,2213004
-0.006,0.359,0.925,-0.305,2213008
-0.006,0.359,0.925,-0.305,2213012
-0.006,0.359,0.925,-0.305,2213016
-0.004,0.359,0.926,-0.244,2213020
-0.004,0.359,0.926,-0.183,2213024
-0.005,0.36,0.926,-0.122,2213028
-0.005,0.36,0.926,-0.122,2213032
-0.005,0.36,0.926,-0.122,2213036
-0.005,0.361,0.925,-0.122,2213040
-0.005,0.361,0.925,-0.122,2213044
-0.003,0.36,0.925,-0.122,2213048
-0.003,0.36,0.925,-0.122,2213052
-0.003,0.36,0.925,-0.244,2213056
-0.003,0.361,0.924,-0.183,2213060
-0.003,0.361,0.924,-0.183,2213064
-0.001,0.361,0.925,-0.305,2213068
-0.001,0.361,0.925,-0.305,2213072
-0.001,0.361,0.925,-0.061,2213076
0.0,0.361,0.927,-0.122,2213080
0.0,0.361,0.927,-0.183,2213084
0.001,0.362,0.927,-0.061,2213088
0.001,0.362,0.927,-0.061,2213092
0.001,0.362,0.927,-0.244,2213096
-0.0,0.36,0.927,-0.305,2213100
-0.0,0.36,0.927,-0.122,2213103
0.0,0.362,0.927,-0.122,2213107
0.0,0.362,0.927,-0.122,2213111
0.0,0.362,0.927,-0.122,2213115
0.002,0.361,0.928,-0.183,2213119
0.002,0.361,0.928,-0.183,2213123
0.002,0.363,0.928,-0.183,2213127
0.002,0.363,0.928,-0.183,2213131
0.002,0.363,0.928,-0.183,2213135
0.002,0.362,0.928,-0.122,2213139
0.002,0.362,0.928,-0.183,2213143
0.002,0.362,0.927,-0.244,2213147
0.002,0.362,0.927,-0.244,2213151
0.002,0.362,0.927,-0.122,2213155
0.002,0.363,0.927,-0.183,2213159
0.002,0.363,0.927,-0.305,2213163
0.001,0.362,0.928,-0.305,2213167
0.001,0.362,0.928,-0.305,2213171
0.001,0.362,0.928,-0.244,2213175
0.0,0.361,0.928,-0.183,2213179
0.0,0.361,0.928,-0.122,2213183
0.001,0.361,0.927,-0.183,2213187
0.001,0.361,0.927,-0.183,2213191
0.001,0.361,0.927,-0.122,2213195
-0.001,0.361,0.926,-0.244,2213199
-0.001,0.361,0.926,-0.305,2213203
-0.002,0.362,0.927,-0.244,2213207
-0.002,0.362,0.927,-0.244,2213211
-0.002,0.362,0.927,-0.183,2213215
-0.003,0.359,0.926,-0.183,2213219
-0.003,0.359,0.926,-0.244,2213223
-0.005,0.358,0.926,-0.244,2213227
-0.005,0.358,0.926,-0.244,2213231
-0.005,0.358,0.926,-0.244,2213235
-0.006,0.359,0.926,-0.183,2213239
-0.006,0.359,0.926,-0.061,2213243
-0.006,0.359,0.925,-0.244,2213247
-0.006,0.359,0.925,-0.183,2213251
-0.006,0.359,0.925,-0.183,2213255
-0.006,0.36,0.926,-0.122,2213259
-0.006,0.36,0.926,-0.183,2213263
-0.005,0.361,0.926,-0.061,2213267
-0.005,0.361,0.926,-0.122,2213271
-0.005,0.361,0.926,-0.122,2213275
-0.006,0.359,0.926,-0.183,2213278
-0.006,0.359,0.926,-0.244,2213282
-0.006,0.361,0.924,-0.244,2213286
-0.006,0.361,0.924,-0.305,2213290
-0.006,0.361,0.924,-0.305,2213294
-0.006,0.361,0.926,-0.122,2213298
-0.006,0.361,0.926,-0.183,2213302
-0.006,0.363,0.926,-0.122,2213306
-0.006,0.363,0.926,-0.122,2213310
-0.006,0.363,0.926,-0.122,2213314
-0.001,0.361,0.927,-0.122,2213318
-0.001,0.361,0.927,-0.183,2213322
-0.001,0.362,0.927,-0.122,2213326
-0.001,0.362,0.927,-0.122,2213330
-0.001,0.362,0.927,-0.122,2213334
-0.001,0.362,0.926,-0.183,2213338
-0.001,0.362,0.926,-0.244,2213342
0.0,0.363,0.926,-0.183,2213346
0.0,0.363,0.926,-0.122,2213350
0.0,0.363,0.926,-0.122,2213354
0.002,0.362,0.929,-0.244,2213358
0.002,0.362,0.929,-0.122,2213362
0.004,0.361,0.929,-0.122,2213366
0.004,0.361,0.929,-0.183,2213370
0.004,0.361,0.929,-0.183,2213374
0.005,0.362,0.928,-0.183,2213378
0.005,0.362,0.928,-0.183,2213382
0.006,0.363,0.93,-0.122,2213386
0.006,0.363,0.93,-0.183,2213390
0.006,0.363,0.93,-0.183,2213394
0.003,0.363,0.929,-0.183,2213398
0.003,0.363,0.929,-0.183,2213402
0.002,0.362,0.928,-0.183,2213406
0.002,0.362,0.928,-0.305,2213410
0.002,0.362,0.928,-0.305,2213414
0.001,0.36,0.928,-0.366,2213418
0.001,0.36,0.928,-0.366,2213422
0.002,0.36,0.929,-0.183,2213426
0.002,0.36,0.929,-0.061,2213430
0.002,0.36,0.929,-0.061,2213434
0.0,0.361,0.927,-0.061,2213438
0.0,0.361,0.927,-0.244,2213442
-0.002,0.361,0.925,-0.366,2213446
-0.002,0.361,0.925,-0.244,2213449
-0.002,0.361,0.925,-0.244,2213453
-0.002,0.362,0.926,-0.305,2213457
-0.002,0.362,0.926,-0.122,2213461
-0.004,0.361,0.925,-0.244,2213465
-0.004,0.361,0.925,-0.305,2213469
-0.004,0.361,0.925,-0.305,2213473
-0.006,0.36,0.923,-0.183,2213477
-0.006,0.36,0.923,-0.244,2213481
-0.005,0.359,0.926,-0.244,2213485
-0.005,0.359,0.926,-0.305,2213489
-0.005,0.359,0.926,-0.305,2213493
-0.008,0.36,0.925,-0.244,2213497
-0.008,0.36,0.925,-0.183,2213501
-0.01,0.36,0.924,-0.244,2213505
-0.01,0.36,0.924,-0.183,2213509
-0.01,0.36,0.924,-0.183,2213513
-0.01,0.359,0.923,-0.244,2213517
-0.01,0.359,0.923,-0.061,2213521
-0.01,0.358,0.922,-0.061,2213525
-0.01,0.358,0.922,-0.183,2213529
-0.01,0.358,0.922,-0.183,2213533
-0.01,0.359,0.923,-0.305,2213537
-0.01,0.359,0.923,-0.183,2213541
-0.009,0.359,0.926,-0.244,2213545
-0.009,0.359,0.926,-0.183,2213549
-0.009,0.359,0.926,-0.183,2213553
-0.007,0.358,0.927,-0.122,2213557
-0.007,0.358,0.927,-0.122,2213561
-0.005,0.361,0.926,-0.122,2213565
-0.005,0.361,0.926,-0.183,2213569
-0.005,0.361,0.926,-0.183,2213573
-0.003,0.36,0.924,-0.122,2213577
-0.003,0.36,0.924,0.0,2213581
-0.003,0.361,0.926,0.0,2213585
-0.003,0.361,0.926,-0.183,2213588
-0.003,0.361,0.926,-0.183,2213592
-0.001,0.362,0.929,-0.183,2213596
-0.001,0.362,0.929,-0.244,2213600
0.002,0.364,0.931,-0.061,2213604
0.002,0.364,0.931,-0.183,2213608
0.002,0.364,0.931,-0.183,2213612
0.006,0.363,0.926,-0.183,2213616
0.006,0.363,0.926,-0.244,2213620
0.007,0.363,0.928,-0.305,2213624
0.007,0.363,0.928,-0.061,2213628
0.007,0.363,0.928,-0.061,2213632
0.007,0.364,0.929,-0.183,2213636
0.007,0.364,0.929,-0.122,2213640
0.006,0.365,0.93,-0.122,2213644
0.006,0.365,0.93,-0.061,2213648
0.006,0.365,0.93,-0.061,2213652
0.009,0.363,0.929,-0.183,2213656
0.009,0.363,0.929,-0.305,2213660
0.007,0.364,0.927,-0.183,2213664
0.007,0.364,0.927,-0.183,2213668
0.007,0.364,0.927,-0.183,2213672
0.006,0.362,0.927,-0.183,2213676
0.006,0.362,0.927,-0.183,2213680
0.004,0.363,0.927,-0.244,2213684
0.004,0.363,0.927,-0.122,2213688
0.004,0.363,0.927,-0.122,2213692
0.003,0.362,0.927,-0.305,2213696
0.003,0.362,0.927,-0.305,2213700
0.001,0.362,0.928,-0.305,2213704
0.001,0.362,0.928,-0.305,2213708
0.001,0.362,0.928,-0.305,2213712
-0.001,0.361,0.928,-0.305,2213716
-0.001,0.361,0.928,-0.305,2213720
-0.003,0.359,0.926,-0.305,2213724
-0.003,0.359,0.926,-0.244,2213728
-0.003,0.359,0.926,-0.244,2213732
-0.005,0.359,0.923,-0.183,2213736
-0.005,0.359,0.923,-0.305,2213740
-0.009,0.358,0.924,-0.244,2213744
-0.009,0.358,0.924,-0.183,2213748
-0.009,0.358,0.924,-0.183,2213752
-0.009,0.358,0.924,-0.305,2213756
-0.009,0.358,0.924,-0.366,2213760
-0.011,0.358,0.922,-0.305,2213764
-0.011,0.358,0.922,-0.183,2213768
-0.012,0.359,0.924,-0.244,2213772
-0.012,0.359,0.924,-0.244,2213775
-0.012,0.359,0.924,-0.244,2213779
-0.013,0.359,0.922,-0.183,2213783
-0.013,0.359,0.922,-0.244,2213787
-0.012,0.358,0.923,-0.427,2213791
-0.012,0.358,0.923,-0.427,2213795
-0.012,0.358,0.923,-0.122,2213799
-0.012,0.358,0.924,-0.183,2213803
-0.012,0.358,0.924,-0.122,2213807
-0.01,0.359,0.923,-0.183,2213811
-0.01,0.359,0.923,-0.183,2213815
-0.01,0.359,0.923,-0.183,2213819
-0.006,0.36,0.924,-0.183,2213823
-0.006,0.36,0.924,-0.122,2213827
-0.005,0.36,0.926,-0.183,2213831
-0.005,0.36,0.926,-0.183,2213835
-0.005,0.36,0.926,-0.183,2213839
-0.001,0.36,0.928,-0.183,2213843
-0.001,0.36,0.928,-0.183,2213847
0.001,0.363,0.927,-0.122,2213851
0.001,0.363,0.927,-0.122,2213855
0.001,0.363,0.927,-0.244,2213859
0.004,0.363,0.927,-0.061,2213863
0.004,0.363,0.927,-0.061,2213867
0.006,0.363,0.929,-0.183,2213871
0.006,0.363,0.929,-0.183,2213875
0.006,0.363,0.929,-0.061,2213879
0.007,0.364,0.929,-0.183,2213883
0.007,0.364,0.929,-0.244,2213887
0.007,0.363,0.926,-0.244,2213891
0.007,0.363,0.926,-0.244,2213895
0.007,0.363,0.926,-0.122,2213899
0.009,0.364,0.928,-0.183,2213903
0.009,0.364,0.928,-0.183,2213907
0.008,0.365,0.929,-0.122,2213911
0.008,0.365,0.929,-0.122,2213915
0.008,0.365,0.929,-0.183,2213919
0.007,0.363,0.93,-0.183,2213923
0.007,0.363,0.93,-0.244,2213927
0.007,0.363,0.929,-0.244,2213931
0.007,0.363,0.929,-0.244,2213935
0.007,0.363,0.929,-0.305,2213939
0.005,0.362,0.93,-0.183,2213943
0.005,0.362,0.93,-0.244,2213947
0.003,0.362,0.929,-0.244,2213951
0.003,0.362,0.929,-0.244,2213955
0.003,0.362,0.929,-0.244,2213959
0.002,0.361,0.929,-0.366,2213963
0.002,0.361,0.929,-0.122,2213966
-0.002,0.361,0.927,-0.122,2213970
-0.002,0.361,0.927,-0.122,2213974
-0.002,0.361,0.927,-0.305,2213978
-0.003,0.36,0.925,-0.305,2213982
-0.003,0.36,0.925,-0.305,2213986
-0.007,0.359,0.926,-0.244,2213990
-0.007,0.359,0.926,-0.244,2213994
-0.007,0.359,0.926,-0.305,2213998
-0.01,0.359,0.924,-0.366,2214002
-0.01,0.359,0.924,-0.366,2214006
-0.009,0.36,0.923,-0.183,2214010
-0.009,0.36,0.923,-0.183,2214014
-0.009,0.36,0.923,-0.305,2214018
-0.011,0.359,0.923,-0.244,2214022
-0.011,0.359,0.923,-0.183,2214026
-0.012,0.358,0.922,-0.183,2214030
-0.012,0.358,0.922,-0.183,2214034
-0.012,0.358,0.922,-0.183,2214038
-0.013,0.357,0.922,0.0,2214042
-0.013,0.357,0.922,-0.183,2214046
-0.013,0.358,0.924,-0.244,2214050
-0.013,0.358,0.924,-0.244,2214054
-0.013,0.358,0.924,-0.183,2214058
-0.011,0.359,0.923,-0.183,2214062
-0.011,0.359,0.923,-0.244,2214066
-0.01,0.359,0.923,0.0,2214070
-0.01,0.359,0.923,0.0,2214074
-0.01,0.359,0.923,-0.183,2214078
-0.008,0.36,0.927,-0.183,2214082
-0.008,0.36,0.927,0.0,2214086
-0.003,0.36,0.926,-0.183,2214089
-0.003,0.36,0.926,-0.183,2214093
-0.003,0.36,0.926,-0.183,2214097
-0.003,0.36,0.926,-0.122,2214101
-0.003,0.36,0.926,-0.122,2214105
-0.0,0.361,0.928,-0.122,2214109
-0.0,0.361,0.928,-0.122,2214113
-0.0,0.361,0.928,-0.061,2214117
0.003,0.36,0.928,-0.183,2214121
0.003,0.36,0.928,-0.244,2214125
0.006,0.362,0.928,-0.183,2214129
0.006,0.362,0.928,-0.183,2214133
0.006,0.362,0.928,-0.122,2214137
0.007,0.363,0.929,-0.122,2214141
0.007,0.363,0.929,0.0,2214145
0.008,0.364,0.929,0.0,2214149
0.008,0.364,0.929,0.0,2214153
0.008,0.364,0.929,0.0,2214157
0.008,0.364,0.929,-0.183,2214161
0.008,0.364,0.929,-0.183,2214165
0.007,0.363,0.931,-0.122,2214169
0.007,0.363,0.931,-0.122,2214173
0.007,0.363,0.931,-0.122,2214177
0.008,0.362,0.93,-0.183,2214181
0.008,0.362,0.93,-0.183,2214185
0.007,0.363,0.929,-0.183,2214189
0.007,0.363,0.929,-0.183,2214193
0.007,0.363,0.929,-0.061,2214197
0.006,0.363,0.927,-0.183,2214201
0.006,0.363,0.927,-0.427,2214205
0.002,0.362,0.927,-0.244,2214209
0.002,0.362,0.927,-0.244,2214212
0.002,0.362,0.927,-0.305,2214216
0.0,0.363,0.928,-0.366,2214220
0.0,0.363,0.928,-0.366,2214224
-0.001,0.361,0.926,-0.183,2214228
-0.001,0.361,0.926,-0.183,2214232
-0.001,0.361,0.926,-0.183,2214236
-0.003,0.36,0.927,-0.427,2214240
-0.003,0.36,0.927,-0.305,2214244
-0.005,0.362,0.926,-0.183,2214248
-0.005,0.362,0.926,-0.183,2214252
-0.005,0.362,0.926,-0.305,2214256
-0.008,0.36,0.924,-0.183,2214260
-0.008,0.36,0.924,-0.183,2214264
-0.008,0.358,0.924,-0.183,2214268
-0.008,0.358,0.924,-0.183,2214272
-0.008,0.358,0.924,-0.244,2214276
-0.009,0.358,0.924,-0.244,2214280
-0.009,0.358,0.924,-0.183,2214284
-0.011,0.359,0.924,-0.244,2214288
-0.011,0.359,0.924,-0.244,2214292
-0.011,0.359,0.924,-0.183,2214296
-0.012,0.358,0.923,-0.183,2214300
-0.012,0.358,0.923,-0.122,2214304
-0.011,0.358,0.923,-0.305,2214308
-0.011,0.358,0.923,-0.305,2214312
-0.011,0.358,0.923,-0.183,2214316
-0.01,0.358,0.926,-0.061,2214320
-0.01,0.358,0.926,-0.183,2214324
-0.008,0.358,0.923,-0.183,2214328
-0.008,0.358,0.923,-0.183,2214332
-0.008,0.358,0.923,-0.061,2214336
-0.007,0.36,0.927,-0.244,2214340
-0.007,0.36,0.927,-0.183,2214344
-0.003,0.36,0.927,-0.183,2214348
-0.003,0.36,0.927,-0.183,2214352
-0.003,0.36,0.927,-0.122,2214356
-0.001,0.36,0.925,-0.061,2214360
-0.001,0.36,0.925,-0.061,2214363
0.0,0.361,0.929,-0.061,2214367
0.0,0.361,0.929,-0.061,2214371
0.0,0.361,0.929,-0.244,2214375
0.002,0.363,0.928,-0.122,2214379
0.002,0.363,0.928,0.0,2214383
0.003,0.363,0.927,0.0,2214387
0.003,0.363,0.927,0.0,2214391
0.003,0.363,0.927,-0.122,2214395
0.006,0.363,0.93,-0.061,2214399
0.006,0.363,0.93,0.061,2214403
0.007,0.364,0.93,-0.305,2214407
0.007,0.364,0.93,-0.305,2214411
0.007,0.364,0.93,-0.305,2214415
0.006,0.363,0.928,-0.244,2214419
0.006,0.363,0.928,-0.244,2214423
0.008,0.363,0.93,-0.305,2214427
0.008,0.363,0.93,-0.305,2214431
0.008,0.363,0.93,-0.244,2214435
0.008,0.364,0.931,-0.122,2214439
0.008,0.364,0.931,-0.183,2214443
0.007,0.364,0.928,-0.122,2214447
0.007,0.364,0.928,-0.122,2214451
0.007,0.364,0.928,-0.183,2214455
0.005,0.362,0.928,-0.122,2214459
0.005,0.362,0.928,-0.183,2214463
0.004,0.362,0.929,-0.183,2214467
0.004,0.362,0.929,-0.183,2214471
0.004,0.362,0.929,-0.427,2214475
0.002,0.363,0.926,-0.244,2214479
0.002,0.363,0.926,-0.488,2214483
-0.001,0.36,0.927,-0.305,2214487
-0.001,0.36,0.927,-0.305,2214491
-0.001,0.36,0.927,-0.244,2214495
-0.002,0.362,0.926,-0.244,2214499
-0.002,0.362,0.926,-0.244,2214503
-0.006,0.361,0.927,-0.183,2214507
-0.006,0.361,0.927,-0.183,2214510
-0.006,0.361,0.927,-0.122,2214514
-0.008,0.36,0.924,-0.122,2214518
-0.008,0.36,0.924,-0.183,2214522
-0.007,0.357,0.924,-0.183,2214526
-0.007,0.357,0.924,-0.183,2214530
-0.007,0.357,0.924,-0.305,2214534
-0.009,0.357,0.924,-0.244,2214538
-0.009,0.357,0.924,-0.305,2214542
-0.01,0.358,0.924,-0.183,2214546
-0.01,0.358,0.924,-0.183,2214550
-0.01,0.358,0.924,-0.122,2214554
-0.012,0.359,0.923,-0.122,2214558
-0.012,0.359,0.923,-0.183,2214562
-0.011,0.359,0.925,-0.122,2214566
-0.011,0.359,0.925,-0.122,2214570
-0.011,0.359,0.925,-0.061,2214574
-0.011,0.358,0.925,-0.244,2214578
-0.011,0.358,0.925,-0.061,2214582
-0.009,0.36,0.924,-0.183,2214586
-0.009,0.36,0.924,-0.183,2214590
-0.009,0.36,0.924,-0.244,2214594
-0.007,0.36,0.924,-0.122,2214598
-0.007,0.36,0.924,-0.244,2214602
-0.006,0.36,0.924,-0.122,2214606
-0.006,0.36,0.924,-0.183,2214610
-0.006,0.36,0.924,-0.183,2214614
-0.004,0.361,0.924,-0.122,2214618
-0.004,0.361,0.924,-0.122,2214622
0.001,0.361,0.926,-0.122,2214626
0.001,0.361,0.926,-0.122,2214630
0.001,0.361,0.926,-0.122,2214634
0.001,0.362,0.928,-0.244,2214638
0.001,0.362,0.928,-0.122,2214642
0.004,0.362,0.925,-0.122,2214646
0.004,0.362,0.925,-0.366,2214650
0.004,0.362,0.925,-0.366,2214654
0.004,0.364,0.929,0.0,2214658
0.004,0.364,0.929,-0.122,2214662
0.004,0.364,0.931,-0.244,2214666
0.004,0.364,0.931,-0.366,2214669
0.004,0.364,0.931,-0.366,2214673
0.006,0.364,0.928,-0.305,2214677
0.006,0.364,0.928,-0.183,2214681
0.006,0.363,0.929,-0.244,2214685
0.006,0.363,0.929,-0.244,2214689
0.006,0.363,0.929,-0.244,2214693
0.008,0.361,0.928,-0.244,2214697
0.008,0.361,0.928,-0.244,2214701
0.007,0.363,0.93,-0.183,2214705
0.007,0.363,0.93,-0.305,2214709
0.007,0.363,0.93,-0.305,2214713
0.005,0.364,0.93,-0.244,2214717
0.005,0.364,0.93,-0.183,2214721
0.004,0.361,0.927,-0.244,2214725
0.004,0.361,0.927,-0.305,2214729
0.004,0.361,0.927,-0.305,2214733
0.001,0.361,0.926,-0.305,2214737
0.001,0.361,0.926,-0.305,2214741
0.0,0.361,0.927,-0.244,2214745
0.0,0.361,0.927,-0.305,2214749
0.0,0.361,0.927,-0.305,2214753
-0.002,0.36,0.926,-0.122,2214757
-0.002,0.36,0.926,-0.244,2214761
-0.003,0.36,0.926,-0.244,2214765
-0.003,0.36,0.926,-0.061,2214769
-0.003,0.36,0.926,-0.061,2214773
-0.006,0.36,0.926,-0.244,2214777
-0.006,0.36,0.926,-0.305,2214781
-0.009,0.36,0.926,-0.244,2214785
-0.009,0.36,0.926,-0.122,2214789
-0.009,0.36,0.926,-0.122,2214793
-0.009,0.359,0.925,-0.122,2214797
-0.009,0.359,0.925,-0.122,2214801
-0.008,0.358,0.924,-0.122,2214805
-0.008,0.358,0.924,-0.183,2214809
-0.008,0.358,0.924,-0.183,2214813
-0.01,0.359,0.924,-0.183,2214817
-0.01,0.359,0.924,-0.366,2214820
-0.009,0.36,0.924,-0.183,2214824
-0.009,0.36,0.924,-0.183,2214828
-0.009,0.36,0.924,-0.183,2214832
-0.008,0.36,0.924,-0.122,2214836
-0.008,0.36,0.924,-0.183,2214840
-0.008,0.359,0.924,-0.183,2214844
-0.008,0.359,0.924,-0.183,2214848
-0.008,0.359,0.924,-0.183,2214852
-0.006,0.358,0.925,-0.244,2214856
-0.006,0.358,0.925,-0.183,2214860
-0.005,0.36,0.925,-0.183,2214864
-0.005,0.36,0.925,-0.122,2214868
-0.005,0.36,0.925,-0.122,2214872
-0.003,0.359,0.926,-0.183,2214876
-0.003,0.359,0.926,-0.122,2214880
-0.0,0.36,0.926,-0.244,2214884
-0.0,0.36,0.926,-0.183,2214888
-0.0,0.36,0.926,-0.183,2214892
0.0,0.361,0.929,-0.305,2214896
0.0,0.361,0.929,-0.183,2214900
0.001,0.36,0.927,-0.122,2214904
0.001,0.36,0.927,-0.183,2214908
0.001,0.36,0.927,-0.183,2214912
0.004,0.361,0.928,-0.305,2214916
0.004,0.361,0.928,-0.244,2214920
0.004,0.362,0.931,-0.244,2214924
0.004,0.362,0.931,-0.244,2214928
0.004,0.362,0.931,-0.244,2214932
0.004,0.363,0.927,-0.244,2214936
0.004,0.363,0.927,-0.183,2214940
0.004,0.363,0.929,-0.305,2214944
0.004,0.363,0.929,-0.244,2214948
0.004,0.363,0.929,-0.244,2214952
0.005,0.362,0.928,-0.183,2214956
0.005,0.362,0.928,-0.183,2214960
0.005,0.362,0.926,-0.122,2214964
0.005,0.362,0.926,-0.122,2214968
0.005,0.362,0.926,-0.122,2214972
0.003,0.362,0.928,-0.244,2214976
0.003,0.362,0.928,-0.305,2214980
0.002,0.36,0.927,-0.305,2214984
0.002,0.36,0.927,-0.183,2214988
0.002,0.36,0.927,-0.183,2214992
0.001,0.362,0.929,-0.244,2214996
0.001,0.362,0.929,-0.305,2215000
-0.0,0.362,0.927,-0.244,2215004
-0.0,0.362,0.927,-0.305,2215007
-0.0,0.362,0.927,-0.305,2215011
-0.001,0.36,0.925,-0.366,2215015
-0.001,0.36,0.925,-0.366,2215019
-0.005,0.36,0.925,-0.305,2215023
-0.005,0.36,0.925,-0.366,2215027
-0.005,0.36,0.925,-0.366,2215031
-0.004,0.359,0.925,-0.122,2215035
-0.004,0.359,0.925,-0.061,2215039
-0.006,0.359,0.924,-0.305,2215043
-0.006,0.359,0.924,-0.244,2215047
-0.006,0.359,0.924,-0.244,2215051
-0.006,0.359,0.922,-0.183,2215055
-0.006,0.359,0.922,-0.244,2215059
-0.008,0.358,0.924,-0.122,2215063
-0.008,0.358,0.924,-0.122,2215067
-0.008,0.358,0.924,-0.122,2215071
-0.007,0.359,0.924,-0.122,2215075
-0.007,0.359,0.924,-0.183,2215079
-0.008,0.359,0.925,-0.122,2215083
-0.008,0.359,0.925,-0.305,2215087
-0.008,0.359,0.925,-0.305,2215091
-0.007,0.358,0.925,-0.122,2215095
-0.007,0.358,0.925,-0.122,2215099
-0.006,0.36,0.926,-0.183,2215103
-0.006,0.36,0.926,-0.122,2215107
-0.006,0.36,0.926,-0.122,2215111
-0.006,0.36,0.925,-0.122,2215115
-0.006,0.36,0.925,-0.061,2215119
-0.004,0.361,0.927,-0.122,2215123
-0.004,0.361,0.927,-0.244,2215127
-0.001,0.359,0.927,-0.061,2215131
-0.001,0.359,0.927,-0.061,2215135
-0.001,0.359,0.927,-0.122,2215139
-0.0,0.361,0.926,-0.122,2215143
-0.0,0.361,0.926,-0.183,2215147
-0.0,0.363,0.928,-0.183,2215151
-0.0,0.363,0.928,-0.183,2215155
-0.0,0.363,0.928,-0.244,2215159
0.002,0.363,0.928,-0.122,2215163
0.002,0.363,0.928,-0.122,2215166
0.003,0.361,0.927,-0.122,2215170
0.003,0.361,0.927,-0.122,2215174
0.003,0.361,0.927,-0.122,2215178
0.003,0.361,0.928,-0.305,2215182
0.003,0.361,0.928,-0.122,2215186
0.004,0.364,0.929,-0.061,2215190
0.004,0.364,0.929,-0.061,2215194
0.004,0.364,0.929,-0.183,2215198
0.002,0.363,0.927,-0.305,2215202
0.002,0.363,0.927,-0.305,2215206
0.003,0.363,0.928,-0.183,2215210
0.003,0.363,0.928,-0.183,2215214
0.003,0.363,0.928,-0.122,2215218
0.001,0.363,0.929,-0.183,2215222
0.001,0.363,0.929,-0.244,2215226
0.002,0.361,0.927,-0.244,2215230
0.002,0.361,0.927,-0.244,2215234
0.002,0.361,0.927,-0.183,2215238
0.001,0.362,0.928,-0.183,2215242
0.001,0.362,0.928,-0.305,2215246
-0.001,0.36,0.929,-0.366,2215250
-0.001,0.36,0.929,-0.366,2215254
-0.001,0.36,0.929,-0.244,2215258
-0.001,0.36,0.927,-0.122,2215262
-0.001,0.36,0.927,-0.244,2215266
-0.002,0.361,0.926,-0.183,2215270
-0.002,0.361,0.926,-0.183,2215274
-0.002,0.361,0.926,-0.366,2215278
-0.004,0.359,0.927,-0.244,2215282
-0.004,0.359,0.927,-0.305,2215286
-0.006,0.359,0.926,-0.183,2215290
-0.006,0.359,0.926,-0.183,2215294
-0.006,0.359,0.926,-0.122,2215298
-0.007,0.359,0.924,-0.244,2215302
-0.007,0.359,0.924,-0.244,2215306
-0.007,0.359,0.922,-0.183,2215310
-0.007,0.359,0.922,-0.183,2215314
-0.007,0.359,0.922,-0.244,2215318
-0.006,0.36,0.924,-0.244,2215322
-0.006,0.36,0.924,-0.305,2215325
-0.008,0.359,0.924,-0.244,2215329
-0.008,0.359,0.924,-0.244,2215333
-0.008,0.359,0.924,-0.183,2215337
-0.007,0.359,0.925,-0.061,2215341
-0.007,0.359,0.925,0.0,2215345
-0.007,0.361,0.925,0.0,2215349
-0.007,0.361,0.925,0.0,2215353
-0.007,0.361,0.925,-0.122,2215357
-0.005,0.361,0.927,-0.183,2215361
-0.005,0.361,0.927,-0.122,2215365
-0.006,0.36,0.927,-0.061,2215369
-0.006,0.36,0.927,-0.061,2215373
-0.006,0.36,0.927,0.0,2215377
-0.004,0.361,0.926,-0.061,2215381
-0.004,0.361,0.926,-0.061,2215385
