Acc_X,Acc_Y,Acc_Z,Rot_Z,Millis
-0.404,0.587,0.903,74.036,2381090
-0.382,0.371,0.975,91.797,2381094
-0.382,0.371,0.975,111.084,2381098
-0.391,0.098,1.014,129.456,2381102
-0.391,0.098,1.014,141.724,2381106
-0.391,0.098,1.014,141.724,2381110
-0.422,-0.196,1.003,146.912,2381114
-0.422,-0.196,1.003,148.193,2381118
-0.368,-0.488,0.971,148.254,2381123
-0.368,-0.488,0.971,145.935,2381127
-0.368,-0.488,0.971,145.935,2381131
-0.276,-0.787,0.909,139.832,2381135
-0.276,-0.787,0.909,129.761,2381139
-0.206,-1.066,0.88,114.929,2381143
-0.206,-1.066,0.88,95.52,2381147
-0.206,-1.066,0.88,95.52,2381151
-0.147,-1.305,0.877,72.937,2381155
-0.147,-1.305,0.877,48.645,2381159
-0.062,-1.417,0.86,23.804,2381163
-0.062,-1.417,0.86,-0.61,2381167
0.002,-1.404,0.768,-23.376,2381171
0.002,-1.404,0.768,-23.376,2381175
0.002,-1.404,0.768,-43.518,2381179
0.038,-1.352,0.702,-60.791,2381183
0.038,-1.352,0.702,-76.05,2381187
0.031,-1.272,0.681,-90.515,2381191
0.031,-1.272,0.681,-90.515,2381195
0.031,-1.272,0.681,-105.286,2381199
0.006,-1.183,0.661,-119.812,2381203
0.006,-1.183,0.661,-132.629,2381207
0.016,-1.068,0.689,-143.494,2381211
0.016,-1.068,0.689,-143.494,2381215
0.016,-1.068,0.689,-152.161,2381219
0.042,-0.957,0.682,-158.997,2381223
0.042,-0.957,0.682,-164.795,2381227
0.027,-0.795,0.662,-170.776,2381231
0.027,-0.795,0.662,-170.776,2381235
0.027,-0.795,0.662,-174.561,2381239
-0.052,-0.522,0.72,-171.692,2381243
-0.052,-0.522,0.72,-161.743,2381247
-0.223,-0.21,0.794,-147.705,2381251
-0.223,-0.21,0.794,-131.531,2381255
-0.223,-0.21,0.794,-131.531,2381259
-0.419,0.167,1.002,-114.197,2381263
-0.419,0.167,1.002,-94.482,2381267
-0.497,0.509,1.143,-72.693,2381271
-0.497,0.509,1.143,-50.354,2381275
-0.497,0.509,1.143,-50.354,2381279
-0.502,0.742,1.119,-30.029,2381283
-0.502,0.742,1.119,-15.686,2381287
-0.482,0.777,1.039,-4.028,2381291
-0.482,0.777,1.039,9.521,2381295
-0.482,0.777,1.039,9.521,2381299
-0.455,0.54,1.06,26.733,2381303
-0.455,0.54,1.06,43.701,2381307
-0.424,0.104,1.165,57.129,2381311
-0.424,0.104,1.165,67.505,2381315
-0.424,0.104,1.165,67.505,2381319
-0.397,-0.217,1.146,74.585,2381323
-0.397,-0.217,1.146,78.186,2381327
-0.37,-0.418,1.064,79.529,2381331
-0.37,-0.418,1.064,80.688,2381335
-0.37,-0.418,1.064,80.688,2381339
-0.278,-0.654,1.01,81.177,2381343
-0.278,-0.654,1.01,79.712,2381347
-0.153,-0.901,0.906,77.454,2381351
-0.153,-0.901,0.906,72.571,2381355
-0.073,-1.104,0.766,62.927,2381359
-0.073,-1.104,0.766,62.927,2381363
-0.073,-1.104,0.766,49.011,2381367
-0.006,-1.245,0.652,32.654,2381371
-0.006,-1.245,0.652,16.357,2381375
0.069,-1.333,0.627,1.831,2381379
0.069,-1.333,0.627,1.831,2381383
0.069,-1.333,0.627,-9.949,2381387
0.136,-1.389,0.611,-18.738,2381391
0.136,-1.389,0.611,-25.696,2381395
0.195,-1.422,0.542,-31.677,2381399
0.195,-1.422,0.542,-31.677,2381403
0.195,-1.422,0.542,-39.124,2381407
0.215,-1.364,0.458,-50.964,2381411
0.215,-1.364,0.458,-67.261,2381415
0.2,-1.249,0.405,-82.642,2381419
0.2,-1.249,0.405,-82.642,2381423
0.2,-1.249,0.405,-94.482,2381427
0.148,-1.071,0.374,-107.361,2381431
0.148,-1.071,0.374,-124.695,2381435
0.011,-0.743,0.45,-142.822,2381439
0.011,-0.743,0.45,-142.822,2381443
0.011,-0.743,0.45,-157.532,2381447
-0.163,-0.342,0.656,-164.856,2381451
-0.163,-0.342,0.656,-163.452,2381456
-0.311,0.037,0.897,-153.931,2381460
-0.311,0.037,0.897,-135.742,2381464
-0.311,0.037,0.897,-135.742,2381468
-0.396,0.389,1.151,-109.741,2381472
-0.396,0.389,1.151,-78.857,2381476
-0.347,0.697,1.257,-43.152,2381480
-0.347,0.697,1.257,-3.357,2381484
-0.347,0.697,1.257,-3.357,2381488
-0.285,0.839,1.099,36.804,2381492
-0.285,0.839,1.099,74.402,2381496
-0.404,0.668,0.988,102.966,2381500
-0.404,0.668,0.988,115.479,2381504
-0.404,0.668,0.988,115.479,2381508
-0.511,0.125,1.037,123.413,2381512
-0.511,0.125,1.037,130.859,2381516
-0.509,-0.378,1.057,132.324,2381520
-0.509,-0.378,1.057,128.113,2381524
-0.509,-0.378,1.057,128.113,2381528
-0.474,-0.562,0.977,120.789,2381532
-0.474,-0.562,0.977,113.892,2381536
-0.338,-0.683,0.872,110.229,2381540
-0.338,-0.683,0.872,110.84,2381544
-0.191,-0.907,0.78,113.892,2381548
-0.191,-0.907,0.78,113.892,2381552
-0.191,-0.907,0.78,114.868,2381556
-0.085,-1.157,0.724,112.122,2381560
-0.085,-1.157,0.724,104.248,2381564
-0.006,-1.385,0.641,90.759,2381568
-0.006,-1.385,0.641,90.759,2381572
-0.006,-1.385,0.641,73.425,2381576
0.07,-1.576,0.521,56.03,2381580
0.07,-1.576,0.521,40.405,2381584
0.128,-1.736,0.479,25.94,2381588
0.128,-1.736,0.479,25.94,2381592
0.128,-1.736,0.479,9.827,2381596
0.141,-1.743,0.41,-11.169,2381600
0.141,-1.743,0.41,-36.194,2381604
0.141,-1.618,0.36,-59.753,2381608
0.141,-1.618,0.36,-59.753,2381612
0.141,-1.618,0.36,-78.369,2381616
0.163,-1.498,0.329,-93.75,2381620
0.163,-1.498,0.329,-109.741,2381624
0.116,-1.296,0.279,-129.7,2381628
0.116,-1.296,0.279,-154.114,2381632
0.116,-1.296,0.279,-154.114,2381636
-0.019,-0.922,0.315,-181.58,2381640
-0.019,-0.922,0.315,-206.36,2381644
-0.211,-0.495,0.523,-224.182,2381648
-0.211,-0.495,0.523,-233.643,2381652
-0.211,-0.495,0.523,-233.643,2381656
-0.383,-0.07,0.839,-232.971,2381660
-0.383,-0.07,0.839,-221.924,2381664
-0.462,0.331,1.119,-201.66,2381668
-0.462,0.331,1.119,-173.767,2381672
-0.462,0.331,1.119,-173.767,2381676
-0.459,0.656,1.269,-136.597,2381680
-0.459,0.656,1.269,-90.698,2381684
-0.461,0.791,1.357,-38.879,2381688
-0.461,0.791,1.357,13.306,2381692
-0.542,0.617,1.382,58.167,2381696
-0.542,0.617,1.382,58.167,2381700
-0.542,0.617,1.382,87.341,2381704
-0.574,0.17,1.31,104.309,2381708
-0.574,0.17,1.31,118.347,2381713
-0.476,-0.233,1.171,128.54,2381717
-0.476,-0.233,1.171,128.54,2381721
-0.476,-0.233,1.171,133.789,2381725
-0.406,-0.479,1.052,134.949,2381729
-0.406,-0.479,1.052,132.019,2381733
-0.321,-0.717,0.939,126.587,2381737
-0.321,-0.717,0.939,126.587,2381741
-0.321,-0.717,0.939,120.422,2381745
-0.215,-0.917,0.811,114.441,2381749
-0.215,-0.917,0.811,108.337,2381753
-0.087,-1.139,0.749,99.854,2381757
-0.087,-1.139,0.749,99.854,2381761
-0.087,-1.139,0.749,85.083,2381765
0.032,-1.39,0.601,66.223,2381769
0.032,-1.39,0.601,46.326,2381773
0.124,-1.58,0.437,26.489,2381777
0.124,-1.58,0.437,26.489,2381781
0.124,-1.58,0.437,6.592,2381785
0.158,-1.685,0.398,-14.709,2381789
0.158,-1.685,0.398,-36.804,2381793
0.165,-1.615,0.28,-58.411,2381797
0.165,-1.615,0.28,-77.209,2381801
0.165,-1.615,0.28,-77.209,2381805
0.262,-1.43,0.203,-90.21,2381809
0.262,-1.43,0.203,-97.534,2381813
0.322,-1.291,0.178,-101.318,2381817
0.322,-1.291,0.178,-103.699,2381821
0.322,-1.291,0.178,-103.699,2381825
0.267,-1.145,0.225,-108.521,2381829
0.267,-1.145,0.225,-116.821,2381833
0.135,-0.88,0.325,-127.563,2381837
0.135,-0.88,0.325,-138.306,2381841
0.135,-0.88,0.325,-138.306,2381845
-0.059,-0.536,0.46,-146.729,2381849
-0.059,-0.536,0.46,-149.17,2381853
-0.23,-0.175,0.726,-147.034,2381857
-0.23,-0.175,0.726,-141.724,2381861
-0.381,0.203,1.04,-132.263,2381865
-0.381,0.203,1.04,-132.263,2381869
-0.381,0.203,1.04,-119.263,2381873
-0.479,0.56,1.276,-105.591,2381877
-0.479,0.56,1.276,-92.346,2381881
-0.455,0.746,1.306,-74.707,2381885
-0.455,0.746,1.306,-74.707,2381889
-0.455,0.746,1.306,-46.814,2381893
-0.356,0.56,1.223,-8.484,2381897
-0.356,0.56,1.223,34.912,2381901
-0.325,0.122,1.174,74.829,2381905
-0.325,0.122,1.174,74.829,2381909
-0.325,0.122,1.174,101.135,2381913
-0.415,-0.261,1.055,110.84,2381917
-0.415,-0.261,1.055,112.366,2381921
-0.408,-0.491,0.947,110.107,2381925
-0.408,-0.491,0.947,110.107,2381929
-0.408,-0.491,0.947,108.276,2381933
-0.295,-0.733,0.884,110.657,2381937
-0.295,-0.733,0.884,114.99,2381941
-0.187,-0.983,0.809,117.188,2381945
-0.187,-0.983,0.809,117.188,2381949
-0.187,-0.983,0.809,115.479,2381953
-0.097,-1.142,0.701,110.291,2381957
-0.097,-1.142,0.701,104.065,2381961
0.045,-1.277,0.585,97.778,2381965
0.045,-1.277,0.585,91.187,2381969
0.045,-1.277,0.585,91.187,2381973
0.191,-1.477,0.461,83.618,2381977
0.191,-1.477,0.461,74.402,2381981
0.24,-1.69,0.352,62.683,2381985
0.24,-1.69,0.352,41.382,2381989
0.24,-1.69,0.352,41.382,2381993
0.155,-1.779,0.245,4.639,2381997
0.155,-1.779,0.245,-38.94,2382001
0.208,-1.739,0.202,-73.669,2382005
0.208,-1.739,0.202,-96.985,2382009
0.208,-1.739,0.202,-96.985,2382013
0.241,-1.642,0.323,-114.807,2382018
0.241,-1.642,0.323,-127.563,2382022
0.193,-1.503,0.425,-137.39,2382026
0.193,-1.503,0.425,-146.851,2382030
0.193,-1.503,0.425,-146.851,2382034
0.105,-1.271,0.436,-156.738,2382038
0.105,-1.271,0.436,-166.138,2382042
0.019,-0.98,0.498,-174.194,2382046
0.019,-0.98,0.498,-180.542,2382050
-0.097,-0.588,0.556,-186.035,2382054
-0.097,-0.588,0.556,-186.035,2382058
-0.097,-0.588,0.556,-190.918,2382062
-0.264,-0.101,0.671,-192.81,2382066
-0.264,-0.101,0.671,-187.744,2382070
-0.497,0.33,0.989,-169.861,2382074
-0.497,0.33,0.989,-169.861,2382078
-0.497,0.33,0.989,-134.705,2382082
-0.617,0.578,1.4,-86.975,2382086
-0.617,0.578,1.4,-34.18,2382090
-0.637,0.594,1.503,18.188,2382094
-0.637,0.594,1.503,18.188,2382098
-0.637,0.594,1.503,62.744,2382102
-0.693,0.294,1.309,92.773,2382106
-0.693,0.294,1.309,105.957,2382110
-0.719,-0.176,1.14,111.633,2382114
-0.719,-0.176,1.14,111.633,2382118
-0.719,-0.176,1.14,110.474,2382122
-0.718,-0.552,1.093,99.67,2382126
-0.718,-0.552,1.093,82.092,2382130
-0.655,-0.785,0.995,62.073,2382134
-0.655,-0.785,0.995,42.48,2382138
-0.655,-0.785,0.995,42.48,2382142
-0.519,-0.827,0.896,25.33,2382146
-0.519,-0.827,0.896,11.902,2382150
-0.372,-0.73,0.808,3.967,2382154
-0.372,-0.73,0.808,3.723,2382158
-0.372,-0.73,0.808,3.723,2382162
-0.226,-0.657,0.736,10.437,2382166
-0.226,-0.657,0.736,20.569,2382170
-0.119,-0.623,0.653,28.87,2382174
-0.119,-0.623,0.653,30.334,2382178
-0.119,-0.623,0.653,30.334,2382182
-0.016,-0.581,0.551,23.376,2382186
-0.016,-0.581,0.551,9.583,2382190
0.028,-0.54,0.495,-10.376,2382194
0.028,-0.54,0.495,-37.231,2382198
0.028,-0.54,0.495,-37.231,2382202
0.081,-0.496,0.444,-62.378,2382206
0.081,-0.496,0.444,-79.407,2382210
0.104,-0.495,0.424,-87.524,2382214
0.104,-0.495,0.424,-90.759,2382218
0.104,-0.495,0.424,-90.759,2382222
0.074,-0.503,0.45,-90.759,2382226
0.074,-0.503,0.45,-85.999,2382230
0.052,-0.671,0.496,-76.599,2382234
0.052,-0.671,0.496,-64.697,2382238
0.052,-0.671,0.496,-64.697,2382242
0.007,-0.912,0.511,-53.65,2382246
0.007,-0.912,0.511,-44.861,2382250
-0.032,-1.124,0.522,-37.537,2382254
-0.032,-1.124,0.522,-33.569,2382258
-0.034,-1.288,0.47,-34.851,2382262
-0.034,-1.288,0.47,-34.851,2382266
-0.034,-1.288,0.47,-40.344,2382270
-0.011,-1.316,0.379,-50.11,2382274
-0.011,-1.316,0.379,-65.796,2382278
0.006,-1.228,0.328,-82.52,2382282
0.006,-1.228,0.328,-82.52,2382286
0.006,-1.228,0.328,-93.018,2382290
0.009,-1.133,0.341,-94.666,2382294
0.009,-1.133,0.341,-88.074,2382298
-0.048,-1.005,0.482,-79.468,2382302
-0.048,-1.005,0.482,-79.468,2382306
-0.048,-1.005,0.482,-70.312,2382310
-0.031,-0.904,0.512,-61.584,2382314
-0.031,-0.904,0.512,-53.345,2382318
0.033,-0.744,0.346,-46.204,2382322
0.033,-0.744,0.346,-46.204,2382326
0.033,-0.744,0.346,-42.48,2382330
0.069,-0.585,0.269,-41.138,2382334
0.069,-0.585,0.269,-37.476,2382338
0.055,-0.529,0.242,-29.175,2382342
0.055,-0.529,0.242,-17.883,2382346
0.055,-0.529,0.242,-17.883,2382350
0.042,-0.475,0.155,-7.874,2382354
0.042,-0.475,0.155,0.0,2382358
0.041,-0.487,0.045,9.155,2382362
0.041,-0.487,0.045,23.376,2382366
0.041,-0.487,0.045,23.376,2382370
0.041,-0.595,-0.05,40.955,2382374
0.041,-0.595,-0.05,53.345,2382378
0.08,-0.775,-0.228,56.213,2382382
0.08,-0.775,-0.228,50.598,2382386
0.08,-0.775,-0.228,50.598,2382390
0.153,-0.922,-0.455,37.842,2382394
0.153,-0.922,-0.455,17.09,2382398
0.197,-0.968,-0.668,-7.935,2382402
0.197,-0.968,-0.668,-30.884,2382406
0.197,-0.968,-0.668,-30.884,2382410
0.248,-1.022,-0.702,-46.875,2382414
0.248,-1.022,-0.702,-56.335,2382418
0.221,-1.009,-0.664,-62.622,2382422
0.221,-1.009,-0.664,-67.871,2382426
0.221,-1.009,-0.664,-67.871,2382430
0.163,-0.915,-0.623,-70.19,2382434
0.163,-0.915,-0.623,-64.27,2382438
0.079,-0.827,-0.582,-51.758,2382442
0.079,-0.827,-0.582,-34.668,2382446
0.079,-0.827,-0.582,-34.668,2382450
0.027,-0.69,-0.554,-17.212,2382454
0.027,-0.69,-0.554,-0.061,2382458
0.082,-0.53,-0.549,15.93,2382462
0.082,-0.53,-0.549,30.945,2382466
0.177,-0.396,-0.553,41.687,2382470
0.177,-0.396,-0.553,41.687,2382474
0.177,-0.396,-0.553,50.476,2382478
0.245,-0.329,-0.546,63.232,2382482
0.245,-0.329,-0.546,80.994,2382486
0.207,-0.347,-0.618,100.586,2382490
0.207,-0.347,-0.618,100.586,2382494
0.207,-0.347,-0.618,116.943,2382498
0.187,-0.448,-0.766,124.878,2382502
0.187,-0.448,-0.766,120.728,2382506
0.268,-0.639,-0.952,103.76,2382510
0.268,-0.639,-0.952,103.76,2382514
0.268,-0.639,-0.952,73.73,2382518
0.419,-0.806,-1.191,30.029,2382522
0.419,-0.806,-1.191,-15.259,2382526
0.487,-0.891,-1.34,-56.213,2382531
0.487,-0.891,-1.34,-56.213,2382535
0.487,-0.891,-1.34,-86.121,2382539
0.477,-0.834,-1.363,-102.905,2382543
0.477,-0.834,-1.363,-110.535,2382547
0.454,-0.705,-1.308,-113.098,2382551
0.454,-0.705,-1.308,-113.403,2382555
0.454,-0.705,-1.308,-113.403,2382559
0.381,-0.615,-1.201,-109.253,2382563
0.381,-0.615,-1.201,-93.811,2382567
0.153,-0.57,-1.116,-66.04,2382571
0.153,-0.57,-1.116,-29.907,2382575
0.153,-0.57,-1.116,-29.907,2382579
0.01,-0.437,-1.065,8.24,2382583
0.01,-0.437,-1.065,43.884,2382587
0.155,-0.362,-1.035,74.463,2382591
0.155,-0.362,-1.035,95.52,2382595
0.155,-0.362,-1.035,95.52,2382599
0.356,-0.396,-0.984,103.271,2382603
0.356,-0.396,-0.984,99.243,2382607
0.45,-0.406,-0.958,91.064,2382611
0.45,-0.406,-0.958,80.994,2382615
0.45,-0.406,-0.958,80.994,2382619
0.502,-0.376,-0.978,69.885,2382623
0.502,-0.376,-0.978,59.509,2382627
0.535,-0.374,-0.991,52.124,2382631
0.535,-0.374,-0.991,47.913,2382635
0.535,-0.374,-0.991,47.913,2382639
0.576,-0.412,-1.033,46.875,2382643
0.576,-0.412,-1.033,48.279,2382647
0.585,-0.497,-1.107,52.124,2382651
0.585,-0.497,-1.107,57.8,2382655
0.597,-0.596,-1.151,64.331,2382659
0.597,-0.596,-1.151,64.331,2382663
0.597,-0.596,-1.151,70.801,2382667
0.625,-0.708,-1.23,77.209,2382671
0.625,-0.708,-1.23,85.388,2382675
0.598,-0.695,-1.332,99.731,2382679
0.598,-0.695,-1.332,99.731,2382683
0.598,-0.695,-1.332,122.437,2382687
0.497,-0.678,-1.348,151.306,2382691
0.497,-0.678,-1.348,181.091,2382695
0.38,-0.639,-1.283,206.97,2382699
0.38,-0.639,-1.283,206.97,2382703
0.38,-0.639,-1.283,226.562,2382707
0.291,-0.546,-1.14,240.173,2382711
0.291,-0.546,-1.14,248.779,2382715
0.281,-0.48,-1.019,254.028,2382719
0.281,-0.48,-1.019,254.028,2382723
0.281,-0.48,-1.019,259.644,2382727
0.309,-0.441,-0.931,267.456,2382731
0.309,-0.441,-0.931,275.94,2382735
0.297,-0.411,-0.86,283.569,2382739
0.297,-0.411,-0.86,288.452,2382743
0.297,-0.411,-0.86,288.452,2382747
0.244,-0.391,-0.793,285.889,2382751
0.244,-0.391,-0.793,274.597,2382755
0.182,-0.389,-0.715,257.874,2382760
0.182,-0.389,-0.715,237.732,2382764
0.182,-0.389,-0.715,237.732,2382768
0.12,-0.402,-0.646,216.187,2382772
0.12,-0.402,-0.646,196.533,2382776
0.096,-0.446,-0.631,181.763,2382780
0.096,-0.446,-0.631,172.058,2382784
0.096,-0.446,-0.631,172.058,2382788
0.07,-0.492,-0.648,166.931,2382792
0.07,-0.492,-0.648,167.114,2382796
-0.035,-0.458,-0.647,171.204,2382800
-0.035,-0.458,-0.647,178.955,2382804
-0.195,-0.389,-0.616,191.528,2382808
-0.195,-0.389,-0.616,191.528,2382812
-0.195,-0.389,-0.616,208.069,2382816
-0.316,-0.399,-0.521,226.929,2382820
-0.316,-0.399,-0.521,248.047,2382824
-0.538,-0.408,-0.435,266.296,2382828
-0.538,-0.408,-0.435,266.296,2382832
-0.538,-0.408,-0.435,276.917,2382836
-0.902,-0.437,-0.287,284.607,2382840
-0.902,-0.437,-0.287,295.837,2382844
-1.088,-0.541,-0.1,310.12,2382848
-1.088,-0.541,-0.1,310.12,2382852
-1.088,-0.541,-0.1,321.228,2382856
-1.084,-0.547,0.013,326.172,2382860
-1.084,-0.547,0.013,324.829,2382864
-0.991,-0.453,0.062,317.993,2382868
-0.991,-0.453,0.062,309.204,2382872
-0.991,-0.453,0.062,309.204,2382876
-0.888,-0.354,0.108,299.744,2382880
-0.888,-0.354,0.108,286.865,2382884
-0.845,-0.271,0.178,268.494,2382888
-0.845,-0.271,0.178,241.882,2382892
-0.845,-0.271,0.178,241.882,2382896
-0.847,-0.185,0.236,206.665,2382901
-0.847,-0.185,0.236,168.091,2382905
-0.876,-0.192,0.231,131.958,2382909
-0.876,-0.192,0.231,102.234,2382913
-0.876,-0.192,0.231,102.234,2382917
-0.944,-0.28,0.199,80.688,2382921
-0.944,-0.28,0.199,66.101,2382925
-1.021,-0.341,0.17,54.993,2382929
-1.021,-0.341,0.17,46.082,2382933
-1.043,-0.406,0.151,38.452,2382937
-1.043,-0.406,0.151,38.452,2382941
-1.043,-0.406,0.151,31.555,2382945
-1.028,-0.467,0.126,27.039,2382949
-1.028,-0.467,0.126,25.208,2382953
-1.022,-0.533,0.107,25.818,2382957
-1.022,-0.533,0.107,25.818,2382961
-1.022,-0.533,0.107,28.87,2382965
-0.957,-0.592,0.083,34.119,2382969
-0.957,-0.592,0.083,39.734,2382973
-0.869,-0.597,0.07,42.664,2382977
-0.869,-0.597,0.07,42.664,2382981
-0.869,-0.597,0.07,41.87,2382985
-0.821,-0.574,0.09,39.368,2382989
-0.821,-0.574,0.09,37.659,2382993
-0.796,-0.572,0.083,35.583,2382997
-0.796,-0.572,0.083,35.583,2383001
-0.796,-0.572,0.083,32.043,2383005
-0.852,-0.603,0.074,25.635,2383009
-0.852,-0.603,0.074,14.648,2383013
-0.915,-0.654,0.056,-0.671,2383017
-0.915,-0.654,0.056,-0.671,2383021
-0.915,-0.654,0.056,-16.785,2383025
-0.907,-0.712,0.016,-31.555,2383029
-0.907,-0.712,0.016,-43.03,2383033
-0.86,-0.754,-0.011,-50.049,2383037
-0.86,-0.754,-0.011,-52.612,2383041
-0.86,-0.754,-0.011,-52.612,2383045
-0.81,-0.755,-0.015,-50.354,2383049
-0.81,-0.755,-0.015,-44.434,2383053
-0.764,-0.749,-0.007,-37.109,2383057
-0.764,-0.749,-0.007,-32.227,2383061
-0.764,-0.749,-0.007,-32.227,2383065
-0.72,-0.758,-0.005,-30.945,2383069
-0.72,-0.758,-0.005,-32.166,2383073
-0.729,-0.767,-0.01,-34.729,2383077
-0.729,-0.767,-0.01,-35.889,2383081
-0.729,-0.767,-0.01,-35.889,2383085
-0.789,-0.799,0.002,-32.654,2383089
-0.789,-0.799,0.002,-23.987,2383093
-0.841,-0.838,0.008,-11.475,2383097
-0.841,-0.838,0.008,-1.709,2383101
-0.841,-0.838,0.008,-1.709,2383105
-0.866,-0.836,0.017,-1.038,2383109
-0.866,-0.836,0.017,-8.545,2383113
-0.845,-0.818,0.052,-20.447,2383117
-0.845,-0.818,0.052,-35.339,2383121
-0.774,-0.742,0.064,-51.758,2383125
-0.774,-0.742,0.064,-51.758,2383129
-0.774,-0.742,0.064,-67.2,2383133
-0.724,-0.689,0.072,-78.43,2383137
-0.724,-0.689,0.072,-88.013,2383141
-0.746,-0.658,0.105,-97.412,2383145
-0.746,-0.658,0.105,-97.412,2383149
-0.746,-0.658,0.105,-107.056,2383153
-0.788,-0.645,0.124,-116.516,2383157
-0.788,-0.645,0.124,-122.864,2383161
-0.791,-0.669,0.113,-125.488,2383165
-0.791,-0.669,0.113,-125.488,2383169
-0.791,-0.669,0.113,-124.573,2383174
-0.763,-0.693,0.091,-120.667,2383178
-0.763,-0.693,0.091,-115.845,2383182
-0.703,-0.661,0.084,-113.525,2383186
-0.703,-0.661,0.084,-119.08,2383190
-0.703,-0.661,0.084,-119.08,2383194
-0.604,-0.615,0.067,-131.592,2383198
-0.604,-0.615,0.067,-143.494,2383202
-0.542,-0.658,0.024,-151.489,2383206
-0.542,-0.658,0.024,-157.532,2383210
-0.542,-0.658,0.024,-157.532,2383214
-0.56,-0.665,-0.003,-161.133,2383218
-0.56,-0.665,-0.003,-161.377,2383222
-0.587,-0.652,-0.004,-159.119,2383226
-0.587,-0.652,-0.004,-154.419,2383230
-0.587,-0.652,-0.004,-154.419,2383234
-0.586,-0.638,-0.005,-148.804,2383238
-0.586,-0.638,-0.005,-144.531,2383242
-0.564,-0.644,-0.0,-142.761,2383246
-0.564,-0.644,-0.0,-139.709,2383250
-0.504,-0.697,-0.043,-133.667,2383254
-0.504,-0.697,-0.043,-133.667,2383258
-0.504,-0.697,-0.043,-126.099,2383262
-0.477,-0.744,-0.072,-117.737,2383266
-0.477,-0.744,-0.072,-109.619,2383270
-0.466,-0.738,-0.084,-104.553,2383274
-0.466,-0.738,-0.084,-104.553,2383278
-0.466,-0.738,-0.084,-106.445,2383283
-0.395,-0.737,-0.112,-114.929,2383287
-0.395,-0.737,-0.112,-124.512,2383291
-0.296,-0.776,-0.148,-132.935,2383295
-0.296,-0.776,-0.148,-138.428,2383299
-0.296,-0.776,-0.148,-138.428,2383303
-0.288,-0.741,-0.158,-140.503,2383307
-0.288,-0.741,-0.158,-136.963,2383311
-0.324,-0.717,-0.156,-126.526,2383315
-0.324,-0.717,-0.156,-110.291,2383319
-0.324,-0.717,-0.156,-110.291,2383323
-0.356,-0.756,-0.145,-91.797,2383327
-0.356,-0.756,-0.145,-73.547,2383331
-0.365,-0.795,-0.171,-59.509,2383335
-0.365,-0.795,-0.171,-54.565,2383339
-0.365,-0.795,-0.171,-54.565,2383343
-0.341,-0.891,-0.227,-58.289,2383347
-0.341,-0.891,-0.227,-64.453,2383351
-0.305,-1.006,-0.301,-66.956,2383355
-0.305,-1.006,-0.301,-66.101,2383359
-0.329,-1.076,-0.336,-62.988,2383363
-0.329,-1.076,-0.336,-62.988,2383367
-0.329,-1.076,-0.336,-56.458,2383371
-0.341,-1.081,-0.353,-49.622,2383375
-0.341,-1.081,-0.353,-46.936,2383379
-0.257,-1.071,-0.401,-44.8,2383383
-0.257,-1.071,-0.401,-44.8,2383387
-0.257,-1.071,-0.401,-41.382,2383391
-0.208,-1.075,-0.43,-38.696,2383396
-0.208,-1.075,-0.43,-37.292,2383400
-0.232,-1.065,-0.397,-36.926,2383404
-0.232,-1.065,-0.397,-36.926,2383408
-0.232,-1.065,-0.397,-38.33,2383412
-0.257,-1.075,-0.36,-42.786,2383416
-0.257,-1.075,-0.36,-48.279,2383420
-0.255,-1.072,-0.359,-51.88,2383424
-0.255,-1.072,-0.359,-54.199,2383428
-0.255,-1.072,-0.359,-54.199,2383432
-0.237,-1.058,-0.346,-55.359,2383436
-0.237,-1.058,-0.346,-53.955,2383440
-0.24,-1.018,-0.31,-53.101,2383444
-0.24,-1.018,-0.31,-54.504,2383448
-0.24,-1.018,-0.31,-54.504,2383452
-0.261,-1.004,-0.3,-57.983,2383456
-0.261,-1.004,-0.3,-64.087,2383460
-0.305,-1.05,-0.276,-71.228,2383464
-0.305,-1.05,-0.276,-76.782,2383468
-0.305,-1.05,-0.276,-76.782,2383472
-0.385,-1.033,-0.224,-79.346,2383476
-0.385,-1.033,-0.224,-78.186,2383480
-0.47,-1.027,-0.149,-73.181,2383484
-0.47,-1.027,-0.149,-67.017,2383488
-0.477,-1.024,-0.091,-61.768,2383492
-0.477,-1.024,-0.091,-61.768,2383496
-0.477,-1.024,-0.091,-58.35,2383500
-0.389,-0.951,-0.073,-61.096,2383504
-0.389,-0.951,-0.073,-67.322,2383508
-0.346,-0.86,-0.048,-69.275,2383512
-0.346,-0.86,-0.048,-69.275,2383516
-0.346,-0.86,-0.048,-60.791,2383520
-0.389,-0.786,0.042,-52.917,2383525
-0.389,-0.786,0.042,-57.129,2383529
-0.362,-0.771,0.066,-71.228,2383533
-0.362,-0.771,0.066,-71.228,2383537
-0.362,-0.771,0.066,-87.585,2383541
-0.338,-0.75,0.055,-103.21,2383545
-0.338,-0.75,0.055,-113.77,2383549
-0.402,-0.76,0.075,-117.676,2383553
-0.402,-0.76,0.075,-120.483,2383557
-0.402,-0.76,0.075,-120.483,2383561
-0.5,-0.791,0.109,-126.709,2383565
-0.5,-0.791,0.109,-133.911,2383569
-0.5,-0.817,0.065,-140.198,2383573
-0.5,-0.817,0.065,-144.897,2383577
-0.5,-0.817,0.065,-144.897,2383581
-0.419,-0.844,-0.004,-147.705,2383585
-0.419,-0.844,-0.004,-150.208,2383589
-0.286,-0.856,-0.101,-153.442,2383593
-0.286,-0.856,-0.101,-156.128,2383597
-0.286,-0.856,-0.101,-156.128,2383601
-0.152,-0.853,-0.203,-157.41,2383605
-0.152,-0.853,-0.203,-157.715,2383609
-0.062,-0.853,-0.277,-156.128,2383613
-0.062,-0.853,-0.277,-151.489,2383617
0.029,-0.875,-0.351,-143.066,2383621
0.029,-0.875,-0.351,-143.066,2383625
0.029,-0.875,-0.351,-133.545,2383629
0.137,-0.925,-0.453,-126.892,2383633
0.137,-0.925,-0.453,-125.793,2383637
0.247,-0.983,-0.583,-132.202,2383642
0.247,-0.983,-0.583,-132.202,2383646
0.247,-0.983,-0.583,-143.433,2383650
0.261,-0.993,-0.645,-155.579,2383654
0.261,-0.993,-0.645,-166.26,2383658
0.247,-0.959,-0.627,-174.072,2383662
0.247,-0.959,-0.627,-178.589,2383666
0.247,-0.959,-0.627,-178.589,2383670
0.283,-0.941,-0.628,-177.063,2383674
0.283,-0.941,-0.628,-166.382,2383678
0.325,-1.019,-0.647,-149.353,2383682
0.325,-1.019,-0.647,-134.216,2383686
0.325,-1.019,-0.647,-134.216,2383690
0.086,-1.06,-0.674,-155.518,2383694
0.086,-1.06,-0.674,-176.697,2383698
0.338,-0.981,-0.569,-134.033,2383702
0.338,-0.981,-0.569,-96.558,2383706
0.338,-0.981,-0.569,-96.558,2383710
0.334,-1.013,-0.593,-72.51,2383714
0.334,-1.013,-0.593,-50.415,2383718
0.227,-1.0,-0.537,-34.607,2383722
0.227,-1.0,-0.537,-34.912,2383726
0.227,-1.0,-0.537,-34.912,2383730
0.119,-1.057,-0.494,-51.941,2383734
0.119,-1.057,-0.494,-47.302,2383738
0.302,-0.991,-0.518,-12.756,2383742
0.302,-0.991,-0.518,27.527,2383746
0.365,-0.891,-0.503,62.622,2383750
0.365,-0.891,-0.503,62.622,2383754
0.365,-0.891,-0.503,94.299,2383758
0.336,-0.887,-0.47,121.826,2383762
0.336,-0.887,-0.47,140.625,2383766
0.232,-0.875,-0.442,149.292,2383770
0.232,-0.875,-0.442,149.292,2383774
0.232,-0.875,-0.442,153.381,2383778
0.118,-0.854,-0.362,156.006,2383782
0.118,-0.854,-0.362,146.973,2383786
0.063,-0.886,-0.34,129.639,2383790
0.063,-0.886,-0.34,129.639,2383794
0.063,-0.886,-0.34,107.361,2383798
0.116,-0.925,-0.367,77.515,2383802
0.116,-0.925,-0.367,54.016,2383806
0.26,-0.953,-0.432,43.091,2383810
0.26,-0.953,-0.432,43.091,2383814
0.26,-0.953,-0.432,37.292,2383818
0.238,-0.96,-0.436,30.212,2383823
0.238,-0.96,-0.436,15.259,2383827
0.166,-0.983,-0.449,3.052,2383831
0.166,-0.983,-0.449,4.761,2383834
0.166,-0.983,-0.449,4.761,2383838
0.178,-1.01,-0.364,15.93,2383842
0.178,-1.01,-0.364,29.114,2383846
0.136,-0.928,-0.293,40.527,2383850
0.136,-0.928,-0.293,46.265,2383854
0.136,-0.928,-0.293,46.265,2383858
0.106,-0.882,-0.277,48.401,2383862
0.106,-0.882,-0.277,50.598,2383866
0.149,-0.913,-0.265,52.612,2383871
0.149,-0.913,-0.265,53.04,2383875
0.149,-0.913,-0.265,53.04,2383879
0.158,-0.944,-0.242,47.974,2383883
0.158,-0.944,-0.242,37.903,2383887
0.162,-0.912,-0.248,23.132,2383891
0.162,-0.912,-0.248,-0.61,2383895
0.162,-0.912,-0.248,-0.61,2383899
0.156,-0.948,-0.22,-16.968,2383903
0.156,-0.948,-0.22,-14.893,2383907
0.18,-0.905,-0.197,-5.493,2383911
0.18,-0.905,-0.197,4.7,2383915
0.18,-0.905,-0.197,4.7,2383919
0.054,-0.913,-0.042,15.137,2383923
0.054,-0.913,-0.042,24.17,2383927
0.025,-0.902,0.008,34.485,2383931
0.025,-0.902,0.008,48.645,2383935
0.025,-0.902,0.008,48.645,2383939
0.067,-0.851,-0.008,61.768,2383943
0.067,-0.851,-0.008,67.993,2383947
-0.004,-0.875,0.009,68.359,2383951
-0.004,-0.875,0.009,68.97,2383955
-0.067,-0.913,0.055,69.336,2383959
-0.067,-0.913,0.055,69.336,2383963
-0.067,-0.913,0.055,68.481,2383967
-0.055,-0.938,0.106,65.308,2383971
-0.055,-0.938,0.106,58.655,2383975
0.024,-0.94,0.032,51.147,2383979
0.024,-0.94,0.032,51.147,2383983
0.024,-0.94,0.032,45.105,2383987
-0.051,-0.9,0.02,42.603,2383991
-0.051,-0.9,0.02,46.143,2383995
-0.129,-0.968,0.106,57.983,2383999
-0.129,-0.968,0.106,57.983,2384003
-0.129,-0.968,0.106,72.998,2384007
-0.13,-0.979,0.114,85.571,2384011
-0.13,-0.979,0.114,98.572,2384015
-0.211,-0.885,0.364,95.032,2384019
-0.211,-0.885,0.364,95.032,2384023
-0.211,-0.885,0.364,74.158,2384027
-0.107,-0.792,0.674,65.247,2384031
-0.107,-0.792,0.674,71.106,2384035
0.023,-0.742,0.589,74.524,2384039
0.023,-0.742,0.589,74.524,2384043
0.023,-0.742,0.589,72.51,2384047
-0.11,-0.812,0.422,63.66,2384051
-0.11,-0.812,0.422,54.016,2384055
-0.1,-0.903,0.42,52.917,2384059
-0.1,-0.903,0.42,57.861,2384063
-0.1,-0.903,0.42,57.861,2384067
-0.064,-0.945,0.538,62.134,2384071
-0.064,-0.945,0.538,62.622,2384075
-0.112,-0.969,0.509,59.021,2384079
-0.112,-0.969,0.509,53.833,2384083
-0.112,-0.969,0.509,53.833,2384087
-0.124,-0.966,0.512,52.734,2384091
-0.124,-0.966,0.512,50.842,2384095
-0.148,-0.963,0.595,42.664,2384099
-0.148,-0.963,0.595,31.006,2384103
-0.148,-0.963,0.595,31.006,2384107
-0.093,-0.984,0.557,23.621,2384111
-0.093,-0.984,0.557,21.545,2384115
-0.069,-0.938,0.494,20.752,2384119
-0.069,-0.938,0.494,16.357,2384123
-0.069,-0.938,0.494,16.357,2384127
-0.151,-0.907,0.577,5.798,2384131
-0.151,-0.907,0.577,-6.958,2384135
-0.176,-0.901,0.634,-19.104,2384139
-0.176,-0.901,0.634,-27.771,2384143
-0.176,-0.901,0.634,-27.771,2384147
-0.181,-0.952,0.672,-33.508,2384151
-0.181,-0.952,0.672,-33.447,2384155
-0.149,-0.979,0.734,-27.466,2384159
-0.149,-0.979,0.734,-20.386,2384163
-0.179,-0.968,0.855,-18.127,2384167
-0.179,-0.968,0.855,-18.127,2384171
-0.179,-0.968,0.855,-12.634,2384175
-0.251,-0.935,0.94,-7.568,2384179
-0.251,-0.935,0.94,-6.042,2384183
-0.272,-0.819,0.961,-4.822,2384187
-0.272,-0.819,0.961,-4.822,2384191
-0.272,-0.819,0.961,-8.972,2384195
-0.228,-0.691,0.838,-16.418,2384199
-0.228,-0.691,0.838,-23.132,2384203
-0.19,-0.709,0.804,-32.349,2384207
-0.19,-0.709,0.804,-32.349,2384211
-0.19,-0.709,0.804,-40.1,2384215
-0.124,-0.74,0.774,-43.762,2384219
-0.124,-0.74,0.774,-47.546,2384223
-0.109,-0.71,0.737,-55.664,2384227
-0.109,-0.71,0.737,-55.664,2384231
-0.109,-0.71,0.737,-67.444,2384235
-0.173,-0.677,0.797,-78.857,2384239
-0.173,-0.677,0.797,-84.717,2384243
-0.177,-0.729,0.875,-83.801,2384247
-0.177,-0.729,0.875,-83.801,2384251
-0.177,-0.729,0.875,-76.477,2384255
-0.14,-0.798,0.906,-63.11,2384259
-0.14,-0.798,0.906,-47.729,2384263
-0.122,-0.787,0.829,-34.851,2384267
-0.122,-0.787,0.829,-26.428,2384271
-0.122,-0.787,0.829,-26.428,2384275
-0.135,-0.749,0.76,-20.081,2384279
-0.135,-0.749,0.76,-19.165,2384283
-0.148,-0.743,0.711,-25.146,2384287
-0.148,-0.743,0.711,-35.583,2384291
-0.148,-0.743,0.711,-35.583,2384295
-0.135,-0.721,0.638,-54.321,2384299
-0.135,-0.721,0.638,-73.547,2384303
-0.09,-0.712,0.569,-86.792,2384307
-0.09,-0.712,0.569,-93.689,2384311
-0.09,-0.712,0.569,-93.689,2384315
-0.111,-0.72,0.582,-99.792,2384319
-0.111,-0.72,0.582,-107.727,2384323
-0.106,-0.744,0.575,-112.0,2384327
-0.106,-0.744,0.575,-113.892,2384331
-0.106,-0.744,0.575,-113.892,2384335
-0.06,-0.765,0.49,-117.676,2384339
-0.06,-0.765,0.49,-122.559,2384343
-0.051,-0.816,0.454,-127.136,2384347
-0.051,-0.816,0.454,-128.723,2384351
0.008,-0.912,0.443,-126.587,2384355
0.008,-0.912,0.443,-126.587,2384360
0.008,-0.912,0.443,-124.817,2384364
0.012,-1.007,0.426,-127.563,2384368
0.012,-1.007,0.426,-133.057,2384372
0.02,-0.997,0.406,-142.029,2384376
0.02,-0.997,0.406,-142.029,2384380
0.02,-0.997,0.406,-153.564,2384384
0.082,-0.88,0.313,-164.368,2384388
0.082,-0.88,0.313,-175.171,2384392
0.133,-0.827,0.268,-179.749,2384396
0.133,-0.827,0.268,-179.749,2384400
0.133,-0.827,0.268,-178.345,2384404
0.148,-0.86,0.282,-175.171,2384408
0.148,-0.86,0.282,-170.288,2384412
0.201,-0.836,0.244,-163.635,2384416
0.201,-0.836,0.244,-155.945,2384420
0.201,-0.836,0.244,-155.945,2384424
0.26,-0.834,0.202,-149.841,2384428
0.26,-0.834,0.202,-142.029,2384432
0.317,-0.808,0.126,-132.69,2384436
0.317,-0.808,0.126,-124.939,2384440
0.317,-0.808,0.126,-124.939,2384444
0.342,-0.817,0.078,-117.554,2384448
0.342,-0.817,0.078,-107.422,2384452
0.357,-0.892,0.116,-94.421,2384456
0.357,-0.892,0.116,-81.36,2384460
0.357,-0.892,0.116,-81.36,2384464
0.356,-0.95,0.068,-70.435,2384468
0.356,-0.95,0.068,-61.34,2384472
0.371,-0.99,0.028,-54.077,2384476
0.371,-0.99,0.028,-52.063,2384480
0.41,-0.99,-0.038,-53.772,2384484
0.41,-0.99,-0.038,-53.772,2384488
0.41,-0.99,-0.038,-55.786,2384492
0.481,-0.988,-0.113,-54.749,2384496
0.481,-0.988,-0.113,-51.575,2384500
0.519,-0.994,-0.134,-47.607,2384504
0.519,-0.994,-0.134,-47.607,2384508
0.519,-0.994,-0.134,-42.542,2384512
0.521,-0.979,-0.162,-39.001,2384516
0.521,-0.979,-0.162,-40.588,2384520
0.49,-0.973,-0.171,-47.546,2384524
0.49,-0.973,-0.171,-47.546,2384528
0.49,-0.973,-0.171,-51.086,2384532
0.507,-0.983,-0.167,-49.988,2384536
0.507,-0.983,-0.167,-45.837,2384540
0.533,-1.014,-0.143,-38.208,2384544
0.533,-1.014,-0.143,-38.208,2384548
0.533,-1.014,-0.143,-28.32,2384552
0.553,-1.039,-0.136,-16.663,2384556
0.553,-1.039,-0.136,-3.906,2384560
0.568,-1.031,-0.142,9.277,2384564
0.568,-1.031,-0.142,9.277,2384568
0.568,-1.031,-0.142,21.729,2384572
0.568,-0.97,-0.145,33.325,2384576
0.568,-0.97,-0.145,44.373,2384580
0.513,-0.909,-0.135,51.392,2384584
0.513,-0.909,-0.135,45.593,2384588
0.513,-0.909,-0.135,45.593,2384592
0.419,-0.881,-0.115,32.288,2384596
0.419,-0.881,-0.115,24.292,2384600
0.465,-0.947,-0.084,22.461,2384604
0.465,-0.947,-0.084,22.522,2384609
0.465,-0.947,-0.084,22.522,2384612
0.478,-0.974,-0.074,21.79,2384617
0.478,-0.974,-0.074,20.386,2384621
0.47,-0.936,-0.082,20.63,2384625
0.47,-0.936,-0.082,23.315,2384629
0.47,-0.936,-0.082,23.315,2384633
0.465,-0.923,-0.055,29.053,2384637
0.465,-0.923,-0.055,37.17,2384641
0.425,-0.927,-0.003,46.631,2384645
0.425,-0.927,-0.003,56.03,2384649
0.425,-0.927,-0.003,56.03,2384653
0.383,-0.931,0.031,65.613,2384657
0.383,-0.931,0.031,77.148,2384661
0.404,-0.927,0.07,92.59,2384665
0.404,-0.927,0.07,113.464,2384669
0.404,-0.927,0.07,113.464,2384673
0.44,-0.907,0.089,135.437,2384677
0.44,-0.907,0.089,152.649,2384681
0.37,-0.891,0.084,163.635,2384685
0.37,-0.891,0.084,167.419,2384689
0.29,-0.967,0.076,169.617,2384693
0.29,-0.967,0.076,169.617,2384697
0.29,-0.967,0.076,176.025,2384701
0.272,-1.079,0.158,188.538,2384705
0.272,-1.079,0.158,204.163,2384709
0.203,-1.072,0.249,219.971,2384713
0.203,-1.072,0.249,219.971,2384717
0.203,-1.072,0.249,224.487,2384721
-0.04,-0.881,0.179,193.359,2384725
-0.04,-0.881,0.179,137.207,2384729
-0.065,-0.756,0.208,84.045,2384733
-0.065,-0.756,0.208,84.045,2384737
-0.065,-0.756,0.208,46.814,2384741
-0.026,-0.796,0.329,21.606,2384745
-0.026,-0.796,0.329,10.376,2384749
-0.087,-0.845,0.409,14.526,2384753
-0.087,-0.845,0.409,14.526,2384757
-0.087,-0.845,0.409,25.818,2384761
-0.127,-0.84,0.417,37.781,2384765
-0.127,-0.84,0.417,47.791,2384769
-0.104,-0.819,0.4,55.664,2384773
-0.104,-0.819,0.4,55.664,2384777
-0.104,-0.819,0.4,61.096,2384781
-0.082,-0.855,0.353,64.453,2384785
-0.082,-0.855,0.353,69.153,2384789
-0.123,-0.968,0.423,79.59,2384793
-0.123,-0.968,0.423,93.994,2384797
-0.123,-0.968,0.423,93.994,2384801
-0.163,-1.027,0.553,110.474,2384805
-0.163,-1.027,0.553,123.901,2384809
-0.176,-0.985,0.467,132.568,2384813
-0.176,-0.985,0.467,132.263,2384817
-0.176,-0.985,0.467,132.263,2384821
-0.222,-0.921,0.521,120.667,2384825
-0.222,-0.921,0.521,99.609,2384829
-0.209,-0.846,0.619,78.735,2384833
-0.209,-0.846,0.619,64.392,2384837
-0.209,-0.846,0.619,64.392,2384841
-0.224,-0.81,0.69,56.335,2384845
-0.224,-0.81,0.69,54.077,2384849
-0.285,-0.77,0.636,55.237,2384853
-0.285,-0.77,0.636,59.387,2384857
-0.285,-0.77,0.636,59.387,2384861
-0.303,-0.736,0.68,64.758,2384865
-0.303,-0.736,0.68,67.322,2384869
-0.312,-0.694,0.705,63.782,2384873
-0.312,-0.694,0.705,58.044,2384877
-0.31,-0.688,0.725,52.734,2384881
-0.31,-0.688,0.725,52.734,2384885
-0.31,-0.688,0.725,47.241,2384889
-0.334,-0.709,0.678,41.87,2384893
-0.334,-0.709,0.678,37.476,2384897
-0.386,-0.762,0.715,31.555,2384901
-0.386,-0.762,0.715,31.555,2384905
-0.386,-0.762,0.715,25.696,2384909
-0.367,-0.848,0.711,25.085,2384913
-0.367,-0.848,0.711,27.649,2384917
-0.305,-0.916,0.654,28.87,2384921
-0.305,-0.916,0.654,28.87,2384925
-0.305,-0.916,0.654,28.87,2384929
-0.292,-0.943,0.637,28.809,2384933
-0.292,-0.943,0.637,28.625,2384937
-0.273,-0.93,0.62,24.78,2384941
-0.273,-0.93,0.62,24.78,2384945
-0.273,-0.93,0.62,14.526,2384949
-0.24,-0.893,0.6,0.977,2384953
-0.24,-0.893,0.6,-12.207,2384957
-0.271,-0.869,0.621,-24.231,2384961
-0.271,-0.869,0.621,-24.231,2384965
-0.271,-0.869,0.621,-35.889,2384969
-0.33,-0.848,0.643,-45.349,2384973
-0.33,-0.848,0.643,-49.561,2384977
-0.343,-0.859,0.668,-47.791,2384981
-0.343,-0.859,0.668,-40.283,2384985
-0.343,-0.859,0.668,-40.283,2384989
-0.315,-0.867,0.697,-30.212,2384993
-0.315,-0.867,0.697,-18.799,2384997
-0.321,-0.877,0.714,-6.226,2385001
-0.321,-0.877,0.714,4.883,2385005
-0.321,-0.877,0.714,4.883,2385009
-0.313,-0.852,0.657,10.864,2385013
-0.313,-0.852,0.657,8.911,2385017
-0.298,-0.798,0.607,-0.061,2385021
-0.298,-0.798,0.607,-8.911,2385025
-0.298,-0.798,0.607,-8.911,2385029
-0.271,-0.789,0.592,-16.418,2385033
-0.271,-0.789,0.592,-26.611,2385037
-0.284,-0.79,0.582,-40.405,2385041
-0.284,-0.79,0.582,-52.002,2385045
-0.284,-0.79,0.582,-52.002,2385049
-0.276,-0.801,0.573,-58.838,2385053
-0.276,-0.801,0.573,-62.439,2385057
-0.254,-0.767,0.576,-64.392,2385061
-0.254,-0.767,0.576,-64.941,2385065
-0.254,-0.767,0.576,-64.941,2385069
-0.232,-0.741,0.57,-63.232,2385073
-0.232,-0.741,0.57,-59.753,2385077
-0.203,-0.758,0.556,-56.091,2385081
-0.203,-0.758,0.556,-53.406,2385085
-0.176,-0.765,0.544,-56.213,2385089
-0.176,-0.765,0.544,-56.213,2385093
-0.176,-0.765,0.544,-63.477,2385097
-0.125,-0.812,0.498,-69.092,2385102
-0.125,-0.812,0.498,-69.58,2385106
-0.042,-0.823,0.444,-66.65,2385110
-0.042,-0.823,0.444,-66.65,2385114
-0.042,-0.823,0.444,-64.941,2385118
-0.007,-0.809,0.421,-66.345,2385122
-0.007,-0.809,0.421,-67.627,2385126
0.017,-0.825,0.403,-68.359,2385130
0.017,-0.825,0.403,-68.359,2385134
0.017,-0.825,0.403,-68.604,2385138
0.055,-0.859,0.379,-66.956,2385142
0.055,-0.859,0.379,-64.819,2385146
0.075,-0.912,0.368,-64.514,2385150
0.075,-0.912,0.368,-64.514,2385154
0.075,-0.912,0.368,-65.186,2385158
0.105,-0.963,0.361,-64.209,2385162
0.105,-0.963,0.361,-61.34,2385166
0.133,-1.012,0.374,-54.993,2385170
0.133,-1.012,0.374,-44.8,2385174
0.133,-1.012,0.374,-44.8,2385178
0.18,-1.034,0.338,-33.813,2385182
0.18,-1.034,0.338,-25.513,2385186
0.241,-1.024,0.259,-22.217,2385190
0.241,-1.024,0.259,-23.499,2385194
0.241,-1.024,0.259,-23.499,2385198
0.298,-1.006,0.183,-28.564,2385202
0.298,-1.006,0.183,-35.034,2385206
0.337,-1.043,0.164,-38.025,2385210
0.337,-1.043,0.164,-37.781,2385214
0.337,-1.043,0.164,-37.781,2385218
0.361,-1.083,0.159,-33.813,2385222
0.361,-1.083,0.159,-26.978,2385226
0.372,-1.081,0.168,-19.165,2385230
0.372,-1.081,0.168,-11.047,2385234
0.372,-1.081,0.168,-11.047,2385238
0.378,-1.05,0.174,-4.7,2385242
0.378,-1.05,0.174,-0.305,2385246
0.371,-1.008,0.155,2.808,2385250
0.371,-1.008,0.155,4.7,2385254
0.371,-1.008,0.155,4.7,2385258
0.332,-0.985,0.175,5.188,2385262
0.332,-0.985,0.175,4.272,2385266
0.303,-0.989,0.197,3.174,2385270
0.303,-0.989,0.197,2.808,2385274
0.303,-0.989,0.197,2.808,2385278
0.305,-1.01,0.21,4.944,2385282
0.305,-1.01,0.21,9.766,2385286
0.306,-0.996,0.222,14.771,2385290
0.306,-0.996,0.222,19.165,2385293
0.306,-0.996,0.222,19.165,2385298
0.289,-0.97,0.23,22.888,2385301
0.289,-0.97,0.23,25.574,2385305
0.239,-0.957,0.263,26.917,2385309
0.239,-0.957,0.263,27.1,2385313
0.182,-0.92,0.294,23.376,2385317
0.182,-0.92,0.294,23.376,2385321
0.182,-0.92,0.294,18.555,2385325
0.165,-0.892,0.306,12.878,2385329
0.165,-0.892,0.306,5.615,2385333
0.137,-0.89,0.334,-0.549,2385337
0.137,-0.89,0.334,-0.549,2385341
0.137,-0.89,0.334,-4.028,2385345
0.111,-0.906,0.384,-4.456,2385349
0.111,-0.906,0.384,-1.892,2385353
0.095,-0.9,0.435,3.357,2385357
0.095,-0.9,0.435,3.357,2385361
0.095,-0.9,0.435,11.047,2385365
0.097,-0.885,0.453,20.447,2385369
0.097,-0.885,0.453,30.823,2385373
0.084,-0.874,0.462,39.551,2385377
0.084,-0.874,0.462,39.551,2385381
0.084,-0.874,0.462,43.152,2385385
0.057,-0.845,0.465,41.443,2385389
0.057,-0.845,0.465,36.926,2385393
0.042,-0.841,0.478,32.043,2385397
0.042,-0.841,0.478,32.043,2385401
0.042,-0.841,0.478,28.32,2385405
0.032,-0.857,0.49,27.649,2385409
0.032,-0.857,0.49,28.748,2385413
0.002,-0.874,0.515,29.846,2385417
0.002,-0.874,0.515,29.846,2385421
0.002,-0.874,0.515,31.067,2385425
-0.034,-0.89,0.538,31.616,2385429
-0.034,-0.89,0.538,29.907,2385433
-0.076,-0.872,0.58,25.085,2385437
-0.076,-0.872,0.58,25.085,2385441
-0.076,-0.872,0.58,16.663,2385445
-0.101,-0.84,0.598,9.644,2385449
-0.101,-0.84,0.598,7.446,2385453
-0.1,-0.843,0.622,9.583,2385457
-0.1,-0.843,0.622,9.583,2385461
-0.1,-0.843,0.622,14.893,2385465
-0.108,-0.829,0.687,21.057,2385469
-0.108,-0.829,0.687,26.611,2385473
-0.133,-0.806,0.702,30.64,2385477
-0.133,-0.806,0.702,30.64,2385481
-0.133,-0.806,0.702,32.349,2385485
-0.146,-0.796,0.718,33.508,2385489
-0.146,-0.796,0.718,35.828,2385493
-0.126,-0.808,0.719,40.039,2385497
-0.126,-0.808,0.719,43.945,2385501
-0.126,-0.808,0.719,43.945,2385505
-0.124,-0.803,0.68,45.715,2385509
-0.124,-0.803,0.68,46.143,2385513
-0.127,-0.804,0.679,46.814,2385517
-0.127,-0.804,0.679,46.936,2385521
-0.127,-0.804,0.679,46.936,2385525
-0.152,-0.802,0.68,45.715,2385529
-0.152,-0.802,0.68,42.114,2385533
-0.164,-0.764,0.67,35.461,2385537
-0.164,-0.764,0.67,25.757,2385541
-0.164,-0.764,0.67,25.757,2385545
-0.135,-0.74,0.643,16.907,2385549
-0.135,-0.74,0.643,10.437,2385553
-0.126,-0.771,0.636,5.31,2385557
-0.126,-0.771,0.636,1.038,2385561
-0.126,-0.771,0.636,1.038,2385565
-0.135,-0.828,0.654,-0.977,2385569
-0.135,-0.828,0.654,0.854,2385573
-0.107,-0.884,0.674,5.005,2385577
-0.107,-0.884,0.674,8.606,2385581
-0.107,-0.884,0.674,8.606,2385585
-0.108,-0.893,0.68,10.559,2385589
-0.108,-0.893,0.68,10.742,2385593
-0.124,-0.874,0.676,9.216,2385597
-0.124,-0.874,0.676,5.188,2385601
-0.124,-0.874,0.676,5.188,2385605
-0.153,-0.856,0.702,-0.916,2385609
-0.153,-0.856,0.702,-3.906,2385613
-0.126,-0.828,0.656,-3.784,2385617
-0.126,-0.828,0.656,-2.075,2385621
-0.108,-0.802,0.615,0.488,2385625
-0.108,-0.802,0.615,0.488,2385629
-0.108,-0.802,0.615,3.113,2385633
-0.113,-0.795,0.638,5.798,2385637
-0.113,-0.795,0.638,8.057,2385641
-0.123,-0.772,0.63,8.789,2385645
-0.123,-0.772,0.63,8.789,2385649
-0.123,-0.772,0.63,7.751,2385653
-0.13,-0.75,0.609,5.005,2385657
-0.13,-0.75,0.609,1.77,2385661
-0.128,-0.749,0.63,-1.038,2385665
-0.128,-0.749,0.63,-1.038,2385669
-0.128,-0.749,0.63,-3.479,2385673
-0.124,-0.764,0.634,-3.845,2385677
-0.124,-0.764,0.634,-2.136,2385681
-0.109,-0.774,0.616,0.183,2385685
-0.109,-0.774,0.616,0.183,2385689
-0.109,-0.774,0.616,1.221,2385693
-0.135,-0.77,0.61,-1.831,2385697
-0.135,-0.77,0.61,-9.705,2385701
-0.123,-0.775,0.608,-17.334,2385705
-0.123,-0.775,0.608,-17.334,2385709
-0.123,-0.775,0.608,-20.203,2385713
-0.09,-0.812,0.614,-20.508,2385717
-0.09,-0.812,0.614,-20.447,2385721
-0.103,-0.814,0.609,-20.752,2385725
-0.103,-0.814,0.609,-20.752,2385729
-0.103,-0.814,0.609,-19.775,2385733
-0.069,-0.825,0.592,-16.846,2385737
-0.069,-0.825,0.592,-12.451,2385741
-0.05,-0.838,0.589,-9.155,2385745
-0.05,-0.838,0.589,-9.155,2385749
-0.05,-0.838,0.589,-6.531,2385753
-0.045,-0.822,0.575,-4.211,2385757
-0.045,-0.822,0.575,-4.7,2385761
-0.036,-0.787,0.547,-8.85,2385765
-0.036,-0.787,0.547,-8.85,2385769
-0.036,-0.787,0.547,-16.296,2385773
0.021,-0.788,0.5,-20.203,2385777
0.021,-0.788,0.5,-20.081,2385781
0.044,-0.815,0.487,-20.325,2385785
0.044,-0.815,0.487,-20.264,2385789
0.044,-0.815,0.487,-20.264,2385793
0.065,-0.829,0.476,-18.066,2385797
0.065,-0.829,0.476,-14.893,2385801
0.08,-0.848,0.454,-13.245,2385805
0.08,-0.848,0.454,-12.695,2385809
0.08,-0.848,0.454,-12.695,2385813
0.097,-0.895,0.464,-12.817,2385817
0.097,-0.895,0.464,-11.841,2385821
0.144,-0.95,0.463,-10.864,2385825
0.144,-0.95,0.463,-12.39,2385829
0.144,-0.95,0.463,-12.39,2385833
0.171,-0.971,0.438,-15.747,2385837
0.171,-0.971,0.438,-17.883,2385841
0.195,-0.971,0.424,-18.982,2385845
0.195,-0.971,0.424,-20.142,2385849
0.195,-0.971,0.424,-20.142,2385853
0.199,-0.959,0.434,-19.775,2385857
0.199,-0.959,0.434,-18.066,2385861
0.208,-0.948,0.438,-15.686,2385865
0.208,-0.948,0.438,-11.963,2385869
0.208,-0.948,0.438,-11.963,2385873
0.227,-0.924,0.4,-11.414,2385877
0.227,-0.924,0.4,-13.306,2385881
0.22,-0.927,0.379,-15.259,2385885
0.22,-0.927,0.379,-16.052,2385889
0.22,-0.927,0.379,-16.052,2385893
0.215,-0.991,0.423,-13.733,2385897
0.215,-0.991,0.423,-9.46,2385901
0.227,-1.031,0.46,-6.653,2385905
0.227,-1.031,0.46,-4.578,2385909
0.248,-1.04,0.456,-1.77,2385913
0.248,-1.04,0.456,-1.77,2385917
0.248,-1.04,0.456,1.404,2385921
0.239,-1.019,0.468,3.662,2385925
0.239,-1.019,0.468,5.188,2385929
0.204,-0.98,0.493,5.92,2385933
0.204,-0.98,0.493,5.92,2385937
0.204,-0.98,0.493,6.409,2385941
0.177,-0.96,0.531,8.362,2385945
0.177,-0.96,0.531,12.024,2385949
0.166,-0.967,0.582,17.09,2385953
0.166,-0.967,0.582,17.09,2385957
0.166,-0.967,0.582,22.522,2385961
0.147,-0.971,0.602,26.428,2385965
0.147,-0.971,0.602,29.846,2385969
0.134,-0.99,0.645,36.133,2385973
0.134,-0.99,0.645,36.133,2385977
0.134,-0.99,0.645,43.152,2385981
0.09,-0.973,0.68,46.814,2385985
0.09,-0.973,0.68,44.25,2385989
0.021,-0.947,0.698,39.124,2385993
0.021,-0.947,0.698,39.124,2385997
0.021,-0.947,0.698,37.109,2386001
0.017,-0.955,0.748,37.598,2386005
0.017,-0.955,0.748,36.743,2386009
0.006,-0.916,0.756,35.339,2386013
0.006,-0.916,0.756,35.339,2386017
0.006,-0.916,0.756,35.339,2386021
-0.011,-0.874,0.753,35.522,2386025
-0.011,-0.874,0.753,35.217,2386029
-0.051,-0.828,0.762,33.936,2386033
-0.051,-0.828,0.762,33.936,2386037
-0.051,-0.828,0.762,32.471,2386041
-0.087,-0.778,0.768,29.724,2386045
-0.087,-0.778,0.768,23.987,2386049
-0.104,-0.74,0.763,20.142,2386053
-0.104,-0.74,0.763,20.142,2386057
-0.104,-0.74,0.763,18.188,2386061
-0.096,-0.732,0.777,19.592,2386065
-0.096,-0.732,0.777,23.01,2386069
-0.094,-0.732,0.783,26.855,2386073
-0.094,-0.732,0.783,30.396,2386077
-0.094,-0.732,0.783,30.396,2386081
-0.088,-0.707,0.772,33.936,2386085
-0.088,-0.707,0.772,35.889,2386089
-0.104,-0.657,0.737,34.18,2386093
-0.104,-0.657,0.737,32.471,2386097
-0.104,-0.657,0.737,32.471,2386101
-0.106,-0.625,0.727,32.227,2386105
-0.106,-0.625,0.727,34.302,2386109
-0.088,-0.612,0.718,39.673,2386113
-0.088,-0.612,0.718,47.668,2386117
-0.088,-0.612,0.718,47.668,2386121
-0.092,-0.606,0.699,57.434,2386125
-0.092,-0.606,0.699,64.331,2386129
-0.163,-0.621,0.688,66.223,2386133
-0.163,-0.621,0.688,64.026,2386137
-0.163,-0.621,0.688,64.026,2386141
-0.199,-0.641,0.679,59.265,2386145
-0.199,-0.641,0.679,52.49,2386149
-0.201,-0.675,0.685,45.471,2386153
-0.201,-0.675,0.685,39.673,2386157
-0.201,-0.675,0.685,39.673,2386161
-0.194,-0.691,0.675,33.875,2386165
-0.194,-0.691,0.675,26.855,2386169
-0.189,-0.672,0.658,18.372,2386173
-0.189,-0.672,0.658,7.202,2386177
-0.155,-0.649,0.641,-1.892,2386181
-0.155,-0.649,0.641,-1.892,2386185
-0.155,-0.649,0.641,-6.531,2386189
-0.147,-0.645,0.633,-6.47,2386193
-0.147,-0.645,0.633,-3.723,2386197
-0.178,-0.619,0.656,0.0,2386201
-0.178,-0.619,0.656,0.0,2386205
-0.178,-0.619,0.656,3.845,2386209
-0.174,-0.597,0.643,6.531,2386213
-0.174,-0.597,0.643,7.568,2386217
-0.156,-0.583,0.604,7.507,2386220
-0.156,-0.583,0.604,7.507,2386224
-0.156,-0.583,0.604,4.456,2386228
-0.15,-0.588,0.595,1.831,2386232
-0.15,-0.588,0.595,-0.671,2386236
-0.145,-0.62,0.595,-2.319,2386240
-0.145,-0.62,0.595,-2.319,2386244
-0.145,-0.62,0.595,0.0,2386248
-0.129,-0.656,0.597,4.395,2386252
-0.129,-0.656,0.597,10.071,2386256
-0.114,-0.653,0.579,16.357,2386260
-0.114,-0.653,0.579,16.357,2386264
-0.114,-0.653,0.579,20.203,2386268
-0.123,-0.636,0.561,21.057,2386272
-0.123,-0.636,0.561,19.714,2386276
-0.144,-0.636,0.551,13.916,2386280
-0.144,-0.636,0.551,13.916,2386284
-0.144,-0.636,0.551,8.057,2386288
-0.12,-0.655,0.542,5.127,2386292
-0.12,-0.655,0.542,4.333,2386296
-0.118,-0.681,0.55,4.395,2386300
-0.118,-0.681,0.55,4.395,2386304
-0.118,-0.681,0.55,3.906,2386308
-0.131,-0.697,0.558,3.113,2386312
-0.131,-0.697,0.558,2.686,2386316
-0.129,-0.701,0.564,2.014,2386320
-0.129,-0.701,0.564,2.014,2386324
-0.129,-0.701,0.564,0.854,2386328
-0.121,-0.709,0.571,-0.122,2386332
-0.121,-0.709,0.571,0.61,2386336
-0.12,-0.729,0.589,2.441,2386340
-0.12,-0.729,0.589,2.441,2386344
-0.12,-0.729,0.589,5.066,2386348
-0.129,-0.747,0.604,7.874,2386352
-0.129,-0.747,0.604,10.559,2386356
-0.115,-0.763,0.596,13.062,2386360
-0.115,-0.763,0.596,15.808,2386364
-0.115,-0.763,0.596,15.808,2386368
-0.108,-0.775,0.598,18.066,2386372
-0.108,-0.775,0.598,19.592,2386376
-0.111,-0.769,0.594,19.592,2386380
-0.111,-0.769,0.594,16.296,2386384
-0.111,-0.769,0.594,16.296,2386388
-0.116,-0.755,0.578,10.254,2386392
-0.116,-0.755,0.578,4.089,2386396
-0.106,-0.778,0.585,-0.305,2386400
-0.106,-0.778,0.585,-3.296,2386404
-0.106,-0.778,0.585,-3.296,2386408
-0.101,-0.794,0.597,-6.775,2386412
-0.101,-0.794,0.597,-9.033,2386416
-0.089,-0.813,0.601,-9.155,2386420
-0.089,-0.813,0.601,-8.179,2386424
-0.089,-0.813,0.601,-8.179,2386428
-0.084,-0.827,0.61,-6.226,2386432
-0.084,-0.827,0.61,-3.052,2386436
-0.086,-0.836,0.628,1.282,2386440
-0.086,-0.836,0.628,5.615,2386444
-0.086,-0.836,0.628,5.615,2386448
-0.097,-0.828,0.632,8.972,2386452
-0.097,-0.828,0.632,12.329,2386456
-0.111,-0.812,0.631,15.137,2386460
-0.111,-0.812,0.631,17.883,2386464
-0.111,-0.812,0.631,17.883,2386468
-0.142,-0.796,0.639,19.714,2386472
-0.142,-0.796,0.639,18.127,2386476
-0.177,-0.766,0.646,13.245,2386480
-0.177,-0.766,0.646,8.789,2386484
-0.177,-0.766,0.646,8.789,2386488
-0.197,-0.75,0.663,3.784,2386492
-0.197,-0.75,0.663,-0.854,2386496
-0.186,-0.742,0.678,-2.93,2386500
-0.186,-0.742,0.678,-1.343,2386504
-0.186,-0.742,0.678,-1.343,2386508
-0.167,-0.755,0.687,2.625,2386512
-0.167,-0.755,0.687,6.897,2386516
-0.196,-0.787,0.704,9.094,2386520
-0.196,-0.787,0.704,10.681,2386524
-0.19,-0.816,0.712,13.428,2386528
-0.19,-0.816,0.712,13.428,2386532
-0.19,-0.816,0.712,17.09,2386536
-0.185,-0.82,0.693,20.691,2386540
-0.185,-0.82,0.693,23.254,2386544
-0.194,-0.792,0.698,26.672,2386548
-0.194,-0.792,0.698,26.672,2386552
-0.194,-0.792,0.698,29.785,2386556
-0.229,-0.742,0.701,27.954,2386560
-0.229,-0.742,0.701,18.738,2386564
-0.253,-0.691,0.69,7.446,2386568
-0.253,-0.691,0.69,7.446,2386572
-0.253,-0.691,0.69,-0.732,2386576
-0.247,-0.69,0.705,-8.301,2386580
-0.247,-0.69,0.705,-14.893,2386584
-0.283,-0.711,0.728,-19.958,2386588
-0.283,-0.711,0.728,-19.958,2386592
-0.283,-0.711,0.728,-21.362,2386596
-0.27,-0.72,0.714,-17.7,2386600
-0.27,-0.72,0.714,-15.137,2386604
-0.29,-0.715,0.744,-12.878,2386608
-0.29,-0.715,0.744,-12.878,2386612
-0.29,-0.715,0.744,-5.737,2386616
-0.291,-0.708,0.803,3.357,2386620
-0.291,-0.708,0.803,10.986,2386624
-0.276,-0.633,0.721,16.235,2386628
-0.276,-0.633,0.721,17.09,2386632
-0.276,-0.633,0.721,17.09,2386636
-0.309,-0.581,0.666,13.428,2386640
-0.309,-0.581,0.666,5.737,2386644
-0.324,-0.581,0.736,-0.732,2386648
-0.324,-0.581,0.736,-1.648,2386652
-0.324,-0.581,0.736,-1.648,2386656
-0.298,-0.61,0.704,2.258,2386660
-0.298,-0.61,0.704,7.263,2386664
-0.28,-0.624,0.606,9.888,2386668
-0.28,-0.624,0.606,9.644,2386672
-0.28,-0.624,0.606,9.644,2386676
-0.237,-0.639,0.511,7.202,2386680
-0.237,-0.639,0.511,3.479,2386684
-0.227,-0.65,0.711,-6.287,2386688
-0.227,-0.65,0.711,-12.451,2386692
-0.227,-0.65,0.711,-12.451,2386696
-0.146,-0.692,0.859,-15.198,2386700
-0.146,-0.692,0.859,-16.663,2386704
-0.145,-0.76,0.773,-19.043,2386708
-0.145,-0.76,0.773,-24.231,2386712
-0.145,-0.76,0.773,-24.231,2386716
-0.139,-0.764,0.782,-24.17,2386720
-0.139,-0.764,0.782,-22.583,2386724
-0.185,-0.719,0.775,-23.743,2386728
-0.185,-0.719,0.775,-25.269,2386732
-0.185,-0.719,0.775,-25.269,2386736
-0.189,-0.669,0.73,-25.269,2386740
-0.189,-0.669,0.73,-24.597,2386744
-0.147,-0.601,0.667,-26.917,2386748
-0.147,-0.601,0.667,-30.823,2386752
-0.147,-0.562,0.655,-33.325,2386756
-0.147,-0.562,0.655,-33.325,2386760
-0.147,-0.562,0.655,-34.973,2386764
-0.19,-0.571,0.715,-33.386,2386768
-0.19,-0.571,0.715,-27.893,2386772
-0.206,-0.579,0.758,-20.813,2386776
-0.206,-0.579,0.758,-20.813,2386780
-0.206,-0.579,0.758,-13.794,2386784
-0.187,-0.579,0.681,-5.188,2386788
-0.187,-0.579,0.681,6.531,2386792
-0.218,-0.597,0.768,12.329,2386796
-0.218,-0.597,0.768,12.329,2386800
-0.218,-0.597,0.768,17.395,2386804
-0.166,-0.482,0.666,33.142,2386808
-0.166,-0.482,0.666,75.928,2386812
0.129,-0.261,0.516,93.384,2386816
0.129,-0.261,0.516,93.384,2386820
0.129,-0.261,0.516,102.844,2386824
0.539,0.281,0.642,192.566,2386828
0.539,0.281,0.642,337.097,2386832
1.478,0.974,0.238,480.408,2386836
1.478,0.974,0.238,601.929,2386840
1.478,0.974,0.238,601.929,2386844
0.612,0.302,1.474,615.784,2386848
0.612,0.302,1.474,563.11,2386852
0.216,-0.331,1.243,564.331,2386856
0.216,-0.331,1.243,605.896,2386860
0.216,-0.331,1.243,605.896,2386864
0.489,0.153,0.563,666.504,2386868
0.489,0.153,0.563,718.933,2386872
0.178,0.208,1.073,743.042,2386876
0.178,0.208,1.073,727.112,2386880
0.178,0.208,1.073,727.112,2386884
-0.34,-0.083,0.959,667.175,2386888
-0.34,-0.083,0.959,578.613,2386892
-0.682,-0.302,1.276,455.139,2386896
-0.682,-0.302,1.276,284.302,2386901
-0.682,-0.302,1.276,284.302,2386905
-1.262,-0.632,2.167,89.6,2386909
-1.262,-0.632,2.167,-71.167,2386913
-0.418,-0.208,1.696,-48.096,2386917
-0.418,-0.208,1.696,-45.288,2386921
0.125,-0.05,0.877,-66.284,2386925
0.125,-0.05,0.877,-66.284,2386929
0.125,-0.05,0.877,-54.321,2386933
0.023,-0.029,0.855,-44.556,2386937
0.023,-0.029,0.855,-48.767,2386941
0.087,-0.008,1.109,-61.462,2386945
0.087,-0.008,1.109,-61.462,2386949
0.087,-0.008,1.109,-50.903,2386953
0.131,-0.051,1.2,-59.57,2386957
0.131,-0.051,1.2,-64.331,2386961
0.231,0.081,0.918,-63.049,2386965
0.231,0.081,0.918,-63.049,2386969
0.231,0.081,0.918,-85.388,2386973
0.141,0.064,0.856,-74.158,2386977
0.141,0.064,0.856,6.042,2386981
0.188,0.004,1.004,12.695,2386985
0.188,0.004,1.004,12.695,2386989
0.188,0.004,1.004,-9.216,2386993
0.325,0.034,1.058,-11.23,2386997
0.325,0.034,1.058,-14.954,2387001
0.241,0.054,0.945,-15.259,2387005
0.241,0.054,0.945,-15.259,2387009
0.241,0.054,0.945,-15.442,2387013
0.252,0.034,0.992,-21.24,2387017
0.252,0.034,0.992,-26.672,2387021
0.306,0.054,0.963,-27.222,2387025
0.306,0.054,0.963,-27.222,2387029
0.306,0.054,0.963,-24.292,2387033
0.312,0.066,0.938,-19.958,2387037
0.312,0.066,0.938,-18.738,2387041
0.315,0.067,0.944,-17.029,2387045
0.315,0.067,0.944,-13.428,2387049
0.315,0.067,0.944,-13.428,2387053
0.305,0.08,0.941,-9.766,2387057
0.305,0.08,0.941,-6.897,2387061
0.293,0.086,0.954,-5.92,2387065
0.293,0.086,0.954,-3.479,2387069
0.293,0.086,0.954,-3.479,2387073
0.421,0.002,0.904,4.517,2387077
0.421,0.002,0.904,20.935,2387081
0.259,-0.108,0.892,39.795,2387085
0.259,-0.108,0.892,146.118,2387089
0.259,-0.108,0.892,146.118,2387093
0.08,-0.068,0.517,214.05,2387097
0.08,-0.068,0.517,35.461,2387101
0.479,0.059,0.817,-55.359,2387105
0.479,0.059,0.817,7.019,2387109
0.479,0.059,0.817,7.019,2387113
0.424,0.035,0.938,52.246,2387117
0.424,0.035,0.938,85.083,2387121
0.326,0.131,0.97,74.951,2387125
0.326,0.131,0.97,61.951,2387129
0.326,0.131,0.97,61.951,2387133
0.391,0.02,0.973,58.228,2387137
0.391,0.02,0.973,55.115,2387141
0.557,0.072,1.012,59.875,2387145
0.557,0.072,1.012,52.368,2387149
0.557,0.072,1.012,52.368,2387153
0.483,0.021,0.87,29.053,2387157
0.483,0.021,0.87,13.184,2387161
0.533,-0.021,0.795,-21.973,2387165
0.533,-0.021,0.795,-76.782,2387169
0.502,0.062,0.884,-57.678,2387173
0.502,0.062,0.884,-57.678,2387177
0.502,0.062,0.884,-37.964,2387181
0.462,0.043,0.748,-97.656,2387185
0.462,0.043,0.748,-124.329,2387189
0.649,-0.047,0.97,-111.511,2387193
0.649,-0.047,0.97,-111.511,2387197
0.649,-0.047,0.97,-54.932,2387201
0.492,-0.094,0.785,-92.712,2387205
0.492,-0.094,0.785,-130.371,2387209
0.204,-0.052,0.514,-139.16,2387213
0.204,-0.052,0.514,-139.16,2387217
0.204,-0.052,0.514,-139.709,2387221
0.117,0.062,0.657,-151.489,2387225
0.117,0.062,0.657,-157.593,2387229
-0.13,0.27,1.268,-55.969,2387233
-0.13,0.27,1.268,-55.969,2387237
-0.13,0.27,1.268,4.395,2387241
0.092,-0.035,0.575,-238.098,2387245
0.092,-0.035,0.575,-191.65,2387249
-0.087,0.236,0.696,-15.991,2387253
-0.087,0.236,0.696,-37.72,2387257
-0.087,0.236,0.696,-37.72,2387261
0.115,0.595,1.07,-112.549,2387265
0.115,0.595,1.07,-7.019,2387269
-0.093,0.481,0.842,69.031,2387273
-0.093,0.481,0.842,12.207,2387277
-0.093,0.481,0.842,12.207,2387281
0.106,0.198,1.119,-10.071,2387285
0.106,0.198,1.119,15.686,2387289
0.008,0.232,1.069,18.555,2387293
0.008,0.232,1.069,-5.798,2387297
0.008,0.232,1.069,-5.798,2387301
0.007,0.226,0.951,-7.69,2387305
0.007,0.226,0.951,0.916,2387309
-0.027,0.253,0.93,5.127,2387313
-0.027,0.253,0.93,3.235,2387317
-0.027,0.253,0.93,3.235,2387321
0.028,0.199,1.034,-6.165,2387325
0.028,0.199,1.034,-19.104,2387329
0.003,0.239,0.982,-22.034,2387333
0.003,0.239,0.982,-15.381,2387337
0.003,0.239,0.982,-15.381,2387341
-0.043,0.276,0.912,-7.935,2387345
-0.043,0.276,0.912,-0.244,2387349
-0.023,0.248,0.954,1.953,2387353
-0.023,0.248,0.954,2.625,2387357
-0.023,0.248,0.954,2.625,2387361
-0.015,0.242,0.963,3.113,2387365
-0.015,0.242,0.963,5.92,2387369
-0.041,0.237,0.939,9.155,2387373
-0.041,0.237,0.939,7.996,2387377
-0.041,0.237,0.939,7.996,2387381
0.012,0.249,0.982,5.981,2387385
0.012,0.249,0.982,2.319,2387389
0.027,0.225,1.006,-3.296,2387393
0.027,0.225,1.006,-8.667,2387396
0.027,0.225,1.006,-8.667,2387400
-0.003,0.225,0.978,-12.268,2387404
-0.003,0.225,0.978,-12.512,2387408
-0.021,0.252,0.952,-11.475,2387412
-0.021,0.252,0.952,-7.263,2387416
-0.021,0.252,0.952,-7.263,2387420
-0.028,0.262,0.945,-2.869,2387424
-0.028,0.262,0.945,0.488,2387428
-0.02,0.245,0.954,2.563,2387432
-0.02,0.245,0.954,5.92,2387436
-0.02,0.245,0.954,5.92,2387440
-0.007,0.238,0.965,5.981,2387444
-0.007,0.238,0.965,5.066,2387448
-0.003,0.236,0.971,5.188,2387452
-0.003,0.236,0.971,3.967,2387456
-0.003,0.236,0.971,3.967,2387460
-0.001,0.234,0.976,2.502,2387464
-0.001,0.234,0.976,0.488,2387468
-0.001,0.232,0.978,-0.732,2387472
-0.001,0.232,0.978,-1.282,2387476
-0.001,0.232,0.978,-1.282,2387480
0.003,0.226,0.968,-4.089,2387484
0.003,0.226,0.968,-5.737,2387488
-0.005,0.242,0.97,-4.211,2387492
-0.005,0.242,0.97,-3.235,2387496
-0.005,0.242,0.97,-3.235,2387500
-0.01,0.245,0.961,-2.014,2387504
-0.01,0.245,0.961,-0.122,2387508
-0.004,0.237,0.966,0.183,2387512
-0.004,0.237,0.966,0.183,2387516
-0.004,0.237,0.966,0.183,2387520
-0.004,0.236,0.965,0.0,2387524
-0.004,0.236,0.965,1.282,2387528
-0.01,0.243,0.96,3.662,2387532
-0.01,0.243,0.96,3.479,2387536
-0.01,0.243,0.96,3.479,2387540
0.0,0.239,0.978,2.502,2387544
0.0,0.239,0.978,1.16,2387548
0.001,0.24,0.985,-0.366,2387551
0.001,0.24,0.985,-0.61,2387555
0.001,0.24,0.985,-0.61,2387559
-0.0,0.243,0.968,-1.16,2387563
-0.0,0.243,0.968,-1.77,2387567
0.0,0.24,0.971,-2.625,2387571
0.0,0.24,0.971,-3.052,2387575
0.0,0.24,0.971,-3.052,2387579
-0.009,0.242,0.962,-2.319,2387583
-0.009,0.242,0.962,-0.854,2387587
-0.01,0.24,0.957,0.061,2387591
-0.01,0.24,0.957,0.244,2387595
-0.01,0.24,0.957,0.244,2387599
-0.008,0.235,0.968,0.977,2387603
-0.008,0.235,0.968,1.404,2387607
-0.002,0.233,0.967,1.221,2387611
-0.002,0.233,0.967,0.916,2387615
-0.002,0.233,0.967,0.916,2387619
0.002,0.229,0.974,0.244,2387623
0.002,0.229,0.974,-0.488,2387627
-0.001,0.23,0.971,-0.488,2387631
-0.001,0.23,0.971,-0.183,2387635
-0.001,0.23,0.971,-0.183,2387639
-0.004,0.233,0.972,-0.244,2387643
-0.004,0.233,0.972,-0.366,2387647
-0.006,0.235,0.971,-0.244,2387651
-0.006,0.235,0.971,-0.183,2387655
-0.006,0.235,0.971,-0.183,2387659
-0.008,0.238,0.964,-0.122,2387663
-0.008,0.238,0.964,-0.122,2387667
-0.007,0.238,0.965,-0.122,2387671
-0.007,0.238,0.965,-0.122,2387675
-0.007,0.238,0.965,-0.122,2387679
-0.007,0.24,0.964,-0.183,2387683
-0.007,0.24,0.964,-0.183,2387686
-0.009,0.243,0.966,-0.122,2387690
-0.009,0.243,0.966,-0.122,2387694
-0.01,0.244,0.968,-0.244,2387698
-0.01,0.244,0.968,-0.244,2387702
-0.01,0.244,0.968,-0.122,2387706
-0.012,0.244,0.965,-0.122,2387710
-0.012,0.244,0.965,-0.183,2387714
-0.012,0.244,0.965,-0.183,2387718
-0.012,0.244,0.965,-0.183,2387722
-0.012,0.244,0.965,-0.305,2387726
-0.012,0.243,0.966,-0.122,2387730
-0.012,0.243,0.966,0.061,2387734
-0.01,0.241,0.964,-0.122,2387738
-0.01,0.241,0.964,-0.122,2387742
-0.01,0.241,0.964,-0.061,2387746
-0.012,0.241,0.965,0.0,2387750
-0.012,0.241,0.965,0.0,2387754
-0.011,0.239,0.967,-0.183,2387758
-0.011,0.239,0.967,-0.183,2387762
-0.011,0.239,0.967,-0.183,2387766
-0.011,0.238,0.968,-0.122,2387770
-0.011,0.238,0.968,-0.305,2387774
-0.011,0.238,0.967,-0.244,2387778
-0.011,0.238,0.967,-0.244,2387782
-0.011,0.238,0.967,0.0,2387786
-0.01,0.237,0.967,-0.061,2387790
-0.01,0.237,0.967,-0.122,2387794
-0.01,0.235,0.967,-0.122,2387798
-0.01,0.235,0.967,-0.122,2387802
-0.01,0.235,0.967,0.0,2387805
-0.007,0.234,0.967,-0.061,2387809
-0.007,0.234,0.967,-0.122,2387813
-0.007,0.234,0.967,-0.122,2387817
-0.006,0.233,0.966,-0.122,2387821
-0.006,0.233,0.966,-0.122,2387825
-0.004,0.233,0.968,-0.122,2387829
-0.004,0.233,0.968,-0.061,2387833
-0.004,0.233,0.968,-0.061,2387837
-0.003,0.233,0.97,-0.061,2387841
-0.003,0.233,0.97,-0.061,2387845
0.001,0.234,0.972,-0.122,2387849
0.001,0.234,0.972,-0.122,2387853
0.003,0.235,0.973,-0.061,2387857
0.003,0.235,0.973,-0.061,2387861
0.003,0.235,0.973,-0.183,2387865
0.003,0.237,0.971,-0.061,2387869
0.003,0.237,0.971,-0.122,2387873
0.003,0.237,0.968,-0.183,2387877
0.003,0.237,0.968,-0.183,2387881
0.003,0.237,0.968,-0.122,2387885
0.002,0.239,0.969,-0.305,2387889
0.002,0.239,0.969,-0.183,2387893
0.001,0.24,0.97,-0.183,2387897
0.001,0.24,0.97,-0.183,2387901
0.001,0.24,0.97,-0.305,2387905
0.001,0.24,0.968,-0.244,2387909
0.001,0.24,0.968,-0.244,2387913
0.0,0.243,0.969,-0.244,2387917
0.0,0.243,0.969,-0.244,2387921
0.0,0.243,0.969,-0.122,2387925
-0.0,0.244,0.969,-0.183,2387929
-0.0,0.244,0.969,-0.122,2387933
-0.001,0.243,0.969,-0.183,2387937
-0.001,0.243,0.969,-0.183,2387941
-0.001,0.243,0.969,-0.122,2387945
-0.004,0.244,0.966,-0.122,2387949
-0.004,0.244,0.966,-0.244,2387953
-0.003,0.242,0.968,-0.305,2387957
-0.003,0.242,0.968,-0.305,2387960
-0.003,0.242,0.968,-0.122,2387964
-0.007,0.241,0.969,-0.183,2387968
-0.007,0.241,0.969,-0.183,2387972
-0.008,0.239,0.966,-0.305,2387976
-0.008,0.239,0.966,-0.305,2387980
-0.008,0.239,0.966,-0.305,2387984
-0.008,0.238,0.967,-0.244,2387988
-0.008,0.238,0.967,-0.244,2387992
-0.008,0.238,0.965,-0.244,2387996
-0.008,0.238,0.965,-0.244,2388000
-0.008,0.238,0.965,-0.244,2388004
-0.012,0.24,0.964,-0.305,2388008
-0.012,0.24,0.964,-0.244,2388012
-0.013,0.239,0.964,-0.183,2388016
-0.013,0.239,0.964,-0.183,2388020
-0.013,0.239,0.964,-0.183,2388024
-0.014,0.237,0.967,-0.305,2388028
-0.014,0.237,0.967,-0.305,2388032
-0.013,0.236,0.967,-0.305,2388036
-0.013,0.236,0.967,-0.305,2388040
-0.013,0.236,0.967,-0.122,2388044
-0.015,0.236,0.968,-0.122,2388048
-0.015,0.236,0.968,-0.244,2388052
-0.014,0.233,0.967,-0.305,2388056
-0.014,0.233,0.967,-0.305,2388060
-0.014,0.233,0.967,-0.305,2388064
-0.012,0.232,0.968,-0.244,2388068
-0.012,0.232,0.968,-0.244,2388072
-0.011,0.233,0.966,-0.122,2388076
-0.011,0.233,0.966,-0.122,2388080
-0.011,0.233,0.966,-0.244,2388084
-0.011,0.234,0.967,-0.183,2388088
-0.011,0.234,0.967,-0.061,2388092
-0.01,0.235,0.967,-0.061,2388096
-0.01,0.235,0.967,-0.061,2388100
-0.01,0.235,0.967,-0.122,2388104
-0.007,0.238,0.967,-0.244,2388108
-0.007,0.238,0.967,-0.183,2388112
-0.006,0.241,0.967,-0.122,2388116
-0.006,0.241,0.967,-0.122,2388120
-0.006,0.241,0.967,0.0,2388123
-0.005,0.242,0.967,-0.061,2388127
-0.005,0.242,0.967,-0.122,2388131
-0.005,0.243,0.968,-0.183,2388135
-0.005,0.243,0.968,-0.183,2388139
-0.005,0.243,0.968,-0.244,2388143
-0.004,0.243,0.968,-0.244,2388147
-0.004,0.243,0.968,-0.183,2388151
-0.003,0.244,0.965,-0.122,2388155
-0.003,0.244,0.965,-0.122,2388159
-0.003,0.244,0.965,-0.244,2388163
-0.003,0.243,0.967,-0.244,2388167
-0.003,0.243,0.967,-0.183,2388171
-0.0,0.242,0.969,-0.183,2388175
-0.0,0.242,0.969,-0.183,2388179
-0.0,0.242,0.969,-0.305,2388183
-0.0,0.241,0.969,-0.244,2388187
-0.0,0.241,0.969,-0.244,2388191
-0.001,0.241,0.968,-0.305,2388195
-0.001,0.241,0.968,-0.305,2388199
-0.001,0.241,0.968,-0.183,2388203
-0.002,0.239,0.969,-0.183,2388207
-0.002,0.239,0.969,-0.305,2388211
-0.002,0.236,0.97,-0.183,2388215
-0.002,0.236,0.97,-0.183,2388219
-0.002,0.236,0.97,-0.305,2388223
-0.001,0.235,0.97,-0.244,2388227
-0.001,0.235,0.97,-0.183,2388231
-0.004,0.233,0.968,-0.183,2388235
-0.004,0.233,0.968,-0.183,2388239
-0.004,0.233,0.968,-0.122,2388243
-0.008,0.232,0.967,-0.061,2388247
-0.008,0.232,0.967,-0.122,2388251
-0.008,0.234,0.967,-0.183,2388255
-0.008,0.234,0.967,-0.183,2388259
-0.008,0.234,0.967,-0.061,2388263
-0.008,0.235,0.977,-0.061,2388267
-0.008,0.235,0.977,-0.244,2388270
-0.007,0.235,0.962,-0.244,2388274
-0.007,0.235,0.962,-0.244,2388278
-0.007,0.235,0.962,-0.183,2388282
-0.008,0.237,0.964,-0.122,2388286
-0.008,0.237,0.964,-0.183,2388290
-0.007,0.239,0.97,-0.244,2388294
-0.007,0.239,0.97,-0.244,2388298
-0.007,0.239,0.97,-0.305,2388302
-0.009,0.24,0.966,-0.183,2388306
-0.009,0.24,0.966,-0.061,2388310
-0.009,0.238,0.968,-0.183,2388314
-0.009,0.238,0.968,-0.183,2388318
-0.009,0.238,0.968,-0.427,2388322
-0.007,0.24,0.96,-0.305,2388326
-0.007,0.24,0.96,-0.183,2388330
-0.007,0.24,0.973,-0.305,2388334
-0.007,0.24,0.973,-0.305,2388338
-0.007,0.24,0.973,-0.305,2388342
-0.008,0.24,0.966,-0.244,2388346
-0.008,0.24,0.966,-0.244,2388350
-0.008,0.241,0.967,-0.244,2388354
-0.008,0.241,0.967,-0.244,2388358
-0.008,0.241,0.967,-0.244,2388362
-0.007,0.242,0.965,-0.122,2388366
-0.007,0.242,0.965,-0.061,2388370
-0.008,0.243,0.964,-0.183,2388374
-0.008,0.243,0.964,-0.183,2388378
-0.008,0.243,0.964,-0.122,2388382
-0.006,0.242,0.966,-0.244,2388386
-0.006,0.242,0.966,-0.366,2388390
-0.007,0.243,0.965,-0.244,2388394
-0.007,0.243,0.965,-0.244,2388398
-0.007,0.243,0.965,-0.305,2388402
-0.006,0.243,0.966,-0.244,2388406
-0.006,0.243,0.966,-0.305,2388410
-0.006,0.243,0.965,-0.183,2388414
-0.006,0.243,0.965,-0.183,2388418
-0.006,0.243,0.965,-0.122,2388422
-0.006,0.242,0.968,-0.122,2388426
-0.006,0.242,0.968,-0.183,2388430
-0.006,0.239,0.968,-0.122,2388433
-0.006,0.239,0.968,-0.122,2388437
-0.006,0.239,0.968,-0.122,2388441
-0.008,0.236,0.967,-0.183,2388445
-0.008,0.236,0.967,-0.183,2388449
-0.008,0.235,0.967,-0.122,2388453
-0.008,0.235,0.967,-0.122,2388457
-0.008,0.235,0.967,-0.183,2388461
-0.007,0.234,0.97,-0.305,2388465
-0.007,0.234,0.97,-0.244,2388469
-0.006,0.234,0.969,-0.305,2388473
-0.006,0.234,0.969,-0.183,2388477
-0.006,0.234,0.969,-0.183,2388481
-0.005,0.232,0.968,-0.244,2388485
-0.005,0.232,0.968,-0.244,2388489
-0.006,0.232,0.969,-0.305,2388493
-0.006,0.232,0.969,-0.183,2388497
-0.006,0.232,0.969,-0.183,2388501
-0.007,0.233,0.971,-0.244,2388505
-0.007,0.233,0.971,-0.183,2388509
-0.006,0.235,0.969,-0.183,2388513
-0.006,0.235,0.969,-0.061,2388517
-0.006,0.235,0.969,-0.061,2388521
-0.006,0.234,0.966,-0.061,2388525
-0.006,0.234,0.966,-0.122,2388529
-0.005,0.236,0.967,-0.122,2388533
-0.005,0.236,0.967,-0.061,2388537
-0.005,0.236,0.967,-0.061,2388541
-0.006,0.239,0.97,-0.061,2388545
-0.006,0.239,0.97,-0.183,2388549
-0.006,0.24,0.969,-0.183,2388553
-0.006,0.24,0.969,-0.122,2388557
-0.006,0.24,0.969,-0.122,2388561
-0.004,0.241,0.966,-0.061,2388565
-0.004,0.241,0.966,-0.122,2388569
-0.004,0.242,0.965,-0.061,2388573
-0.004,0.242,0.965,-0.183,2388577
-0.004,0.242,0.965,-0.183,2388581
-0.005,0.245,0.966,-0.305,2388585
-0.005,0.245,0.966,-0.122,2388589
-0.006,0.246,0.967,-0.183,2388592
-0.006,0.246,0.967,-0.366,2388596
-0.006,0.246,0.967,-0.366,2388600
-0.005,0.244,0.965,-0.366,2388604
-0.005,0.244,0.965,-0.305,2388608
-0.004,0.245,0.964,-0.305,2388612
-0.004,0.245,0.964,-0.244,2388616
-0.004,0.245,0.964,-0.244,2388620
-0.006,0.243,0.967,-0.305,2388624
-0.006,0.243,0.967,-0.305,2388628
-0.005,0.241,0.969,-0.244,2388632
-0.005,0.241,0.969,-0.244,2388636
-0.005,0.241,0.969,-0.244,2388640
-0.005,0.24,0.967,-0.366,2388644
-0.005,0.24,0.967,-0.244,2388648
-0.006,0.236,0.967,-0.061,2388652
-0.006,0.236,0.967,-0.244,2388656
-0.006,0.236,0.967,-0.244,2388660
-0.006,0.234,0.969,-0.244,2388664
-0.006,0.234,0.969,-0.244,2388668
-0.007,0.234,0.969,-0.305,2388672
-0.007,0.234,0.969,-0.061,2388676
-0.007,0.234,0.969,-0.061,2388680
-0.008,0.234,0.966,-0.061,2388684
-0.008,0.234,0.966,-0.122,2388688
-0.008,0.235,0.968,-0.061,2388692
-0.008,0.235,0.968,-0.061,2388696
-0.008,0.235,0.968,-0.061,2388700
-0.008,0.233,0.971,-0.183,2388704
-0.008,0.233,0.971,-0.244,2388708
-0.009,0.234,0.969,-0.122,2388712
-0.009,0.234,0.969,-0.122,2388716
-0.009,0.234,0.969,-0.122,2388720
-0.008,0.233,0.968,-0.305,2388724
-0.008,0.233,0.968,-0.244,2388728
-0.007,0.236,0.968,-0.061,2388732
-0.007,0.236,0.968,-0.122,2388736
-0.007,0.236,0.968,-0.122,2388740
-0.01,0.236,0.969,-0.305,2388744
-0.01,0.236,0.969,-0.244,2388748
-0.009,0.235,0.968,-0.122,2388752
-0.009,0.235,0.968,-0.183,2388756
-0.009,0.235,0.968,-0.183,2388760
-0.007,0.236,0.967,-0.305,2388763
-0.007,0.236,0.967,-0.305,2388767
-0.007,0.238,0.965,-0.183,2388771
-0.007,0.238,0.965,-0.122,2388775
-0.007,0.238,0.965,-0.122,2388779
-0.007,0.239,0.966,-0.183,2388783
-0.007,0.239,0.966,-0.122,2388787
-0.006,0.241,0.967,-0.183,2388791
-0.006,0.241,0.967,-0.244,2388795
-0.006,0.241,0.967,-0.244,2388799
-0.006,0.241,0.965,-0.122,2388803
-0.006,0.241,0.965,-0.061,2388807
-0.005,0.241,0.966,-0.061,2388811
-0.005,0.241,0.966,-0.183,2388815
-0.005,0.241,0.966,-0.183,2388819
-0.005,0.242,0.967,-0.061,2388823
-0.005,0.242,0.967,-0.183,2388827
-0.005,0.243,0.967,-0.244,2388831
-0.005,0.243,0.967,-0.183,2388835
-0.005,0.243,0.967,-0.183,2388839
-0.005,0.246,0.966,-0.122,2388843
-0.005,0.246,0.966,-0.305,2388847
-0.004,0.245,0.967,-0.305,2388851
-0.004,0.245,0.967,-0.122,2388855
-0.004,0.245,0.967,-0.122,2388859
-0.006,0.243,0.966,-0.183,2388863
-0.006,0.243,0.966,-0.122,2388867
-0.005,0.242,0.968,-0.183,2388871
-0.005,0.242,0.968,-0.244,2388875
-0.005,0.242,0.968,-0.244,2388879
-0.005,0.24,0.968,-0.305,2388883
-0.005,0.24,0.968,-0.244,2388887
-0.006,0.238,0.969,-0.183,2388891
-0.006,0.238,0.969,-0.183,2388895
-0.006,0.238,0.969,-0.183,2388899
-0.006,0.236,0.968,-0.244,2388903
-0.006,0.236,0.968,-0.122,2388907
-0.005,0.235,0.969,-0.244,2388911
-0.005,0.235,0.969,-0.122,2388915
-0.005,0.235,0.969,-0.122,2388918
-0.007,0.234,0.97,-0.183,2388922
-0.007,0.234,0.97,-0.244,2388926
-0.009,0.231,0.969,-0.244,2388930
-0.009,0.231,0.969,-0.244,2388934
-0.009,0.231,0.969,-0.244,2388938
-0.009,0.231,0.97,-0.122,2388942
-0.009,0.231,0.97,-0.305,2388946
-0.009,0.232,0.969,-0.122,2388950
-0.009,0.232,0.969,-0.244,2388954
-0.009,0.232,0.969,-0.244,2388958
-0.007,0.234,0.971,-0.244,2388962
-0.007,0.234,0.971,-0.183,2388966
-0.006,0.236,0.967,-0.122,2388970
-0.006,0.236,0.967,-0.061,2388974
-0.006,0.236,0.967,-0.061,2388978
-0.005,0.238,0.967,-0.122,2388982
-0.005,0.238,0.967,-0.183,2388986
-0.004,0.24,0.967,-0.183,2388990
-0.004,0.24,0.967,-0.183,2388994
-0.004,0.24,0.967,-0.183,2388998
-0.005,0.24,0.968,-0.244,2389002
-0.005,0.24,0.968,-0.122,2389006
-0.005,0.241,0.968,-0.244,2389010
-0.005,0.241,0.968,-0.366,2389014
-0.005,0.241,0.964,-0.366,2389018
-0.005,0.241,0.964,-0.366,2389022
-0.005,0.241,0.964,-0.122,2389026
-0.003,0.241,0.965,-0.122,2389030
-0.003,0.241,0.965,-0.122,2389034
-0.006,0.242,0.966,-0.183,2389038
-0.006,0.242,0.966,-0.183,2389042
-0.006,0.242,0.966,-0.244,2389046
-0.007,0.241,0.966,-0.122,2389050
-0.007,0.241,0.966,-0.183,2389054
-0.005,0.241,0.968,-0.183,2389058
-0.005,0.241,0.968,-0.183,2389062
-0.005,0.241,0.968,-0.244,2389066
-0.006,0.241,0.967,-0.305,2389070
-0.006,0.241,0.967,-0.305,2389074
-0.007,0.24,0.967,-0.366,2389077
-0.007,0.24,0.967,-0.366,2389081
-0.007,0.24,0.967,-0.061,2389085
-0.006,0.24,0.968,-0.122,2389089
-0.006,0.24,0.968,-0.122,2389093
-0.006,0.238,0.966,-0.183,2389097
-0.006,0.238,0.966,-0.183,2389101
-0.006,0.238,0.966,-0.244,2389105
-0.007,0.236,0.968,-0.305,2389109
-0.007,0.236,0.968,-0.305,2389113
-0.006,0.237,0.969,-0.122,2389117
-0.006,0.237,0.969,-0.122,2389121
-0.006,0.237,0.969,-0.061,2389125
-0.008,0.236,0.968,-0.183,2389129
-0.008,0.236,0.968,-0.244,2389133
-0.006,0.236,0.968,-0.305,2389137
-0.006,0.236,0.968,-0.305,2389141
-0.006,0.236,0.968,-0.183,2389145
-0.007,0.236,0.968,-0.183,2389149
-0.007,0.236,0.968,-0.183,2389153
-0.006,0.235,0.969,-0.244,2389157
-0.006,0.235,0.969,-0.244,2389161
-0.006,0.235,0.969,-0.244,2389165
-0.006,0.235,0.968,-0.183,2389169
-0.006,0.235,0.968,-0.122,2389173
-0.007,0.235,0.966,-0.305,2389177
-0.007,0.235,0.966,-0.305,2389181
-0.007,0.235,0.966,-0.305,2389185
-0.006,0.236,0.967,-0.305,2389189
-0.006,0.236,0.967,-0.366,2389193
-0.007,0.237,0.968,-0.305,2389197
-0.007,0.237,0.968,-0.305,2389201
-0.007,0.237,0.968,-0.183,2389205
-0.007,0.239,0.967,-0.122,2389209
-0.007,0.239,0.967,-0.244,2389213
-0.006,0.238,0.968,-0.244,2389217
-0.006,0.238,0.968,-0.244,2389221
-0.006,0.238,0.968,-0.244,2389225
-0.004,0.24,0.968,-0.122,2389229
-0.004,0.24,0.968,-0.122,2389233
-0.004,0.241,0.967,-0.061,2389237
-0.004,0.241,0.967,-0.061,2389240
-0.004,0.241,0.967,-0.061,2389244
-0.004,0.241,0.966,-0.183,2389248
-0.004,0.241,0.966,-0.183,2389252
-0.005,0.243,0.966,-0.183,2389256
-0.005,0.243,0.966,-0.183,2389260
-0.005,0.243,0.966,-0.244,2389264
-0.006,0.242,0.967,-0.122,2389268
-0.006,0.242,0.967,0.061,2389272
-0.005,0.243,0.965,-0.183,2389276
-0.005,0.243,0.965,-0.183,2389280
-0.005,0.243,0.965,-0.244,2389284
-0.006,0.243,0.967,-0.244,2389288
-0.006,0.243,0.967,-0.305,2389292
-0.006,0.242,0.969,-0.244,2389296
-0.006,0.242,0.969,-0.244,2389300
-0.006,0.242,0.969,-0.244,2389304
-0.006,0.24,0.967,-0.183,2389308
-0.006,0.24,0.967,-0.305,2389312
-0.008,0.239,0.966,-0.305,2389316
-0.008,0.239,0.966,-0.305,2389320
-0.008,0.239,0.966,-0.244,2389324
-0.007,0.238,0.967,-0.244,2389328
-0.007,0.238,0.967,-0.366,2389332
-0.006,0.235,0.968,-0.122,2389336
-0.006,0.235,0.968,-0.122,2389340
-0.006,0.235,0.968,-0.183,2389344
-0.006,0.232,0.968,-0.061,2389348
-0.006,0.232,0.968,-0.183,2389352
-0.006,0.234,0.969,-0.366,2389356
-0.006,0.234,0.969,-0.366,2389360
-0.006,0.234,0.969,-0.183,2389364
-0.006,0.232,0.97,-0.183,2389368
-0.006,0.232,0.97,-0.244,2389372
-0.006,0.231,0.968,-0.061,2389376
-0.006,0.231,0.968,-0.061,2389380
-0.006,0.231,0.968,-0.061,2389383
-0.007,0.233,0.966,-0.061,2389387
-0.007,0.233,0.966,-0.183,2389391
-0.005,0.235,0.969,-0.183,2389395
-0.005,0.235,0.969,-0.183,2389399
-0.005,0.235,0.969,-0.122,2389403
-0.006,0.237,0.97,-0.183,2389407
-0.006,0.237,0.97,-0.122,2389411
-0.007,0.236,0.967,-0.244,2389415
-0.007,0.236,0.967,-0.244,2389419
-0.007,0.236,0.967,-0.061,2389423
-0.008,0.238,0.966,0.0,2389427
-0.008,0.238,0.966,-0.122,2389431
-0.007,0.239,0.967,-0.122,2389435
-0.007,0.239,0.967,-0.122,2389439
-0.007,0.239,0.967,-0.183,2389443
-0.006,0.24,0.966,-0.183,2389447
-0.006,0.24,0.966,-0.183,2389451
-0.007,0.241,0.966,-0.305,2389455
-0.007,0.241,0.966,-0.305,2389459
-0.007,0.241,0.966,-0.244,2389463
-0.006,0.242,0.966,-0.183,2389467
-0.006,0.242,0.966,-0.183,2389471
-0.005,0.243,0.968,-0.122,2389475
-0.005,0.243,0.968,-0.122,2389479
-0.005,0.243,0.968,-0.122,2389483
-0.003,0.243,0.968,-0.183,2389487
-0.003,0.243,0.968,-0.122,2389491
-0.004,0.24,0.966,-0.183,2389495
-0.004,0.24,0.966,-0.183,2389499
-0.004,0.24,0.966,-0.244,2389503
-0.005,0.241,0.967,-0.244,2389507
-0.005,0.241,0.967,-0.183,2389511
-0.004,0.243,0.973,-0.183,2389515
-0.004,0.243,0.973,-0.183,2389519
-0.004,0.243,0.973,-0.244,2389523
-0.003,0.242,0.966,-0.183,2389527
-0.003,0.242,0.966,-0.305,2389531
-0.005,0.24,0.964,-0.183,2389534
-0.005,0.24,0.964,-0.183,2389538
-0.005,0.24,0.964,-0.366,2389542
-0.003,0.238,0.968,-0.366,2389546
-0.003,0.238,0.968,-0.244,2389550
-0.003,0.24,0.967,-0.061,2389554
-0.003,0.24,0.967,-0.061,2389558
-0.003,0.24,0.967,-0.183,2389562
-0.003,0.237,0.969,-0.183,2389566
-0.003,0.237,0.969,-0.244,2389570
-0.003,0.235,0.966,-0.244,2389574
-0.003,0.235,0.966,-0.244,2389578
-0.003,0.235,0.966,-0.122,2389582
-0.004,0.234,0.969,-0.122,2389586
-0.004,0.234,0.969,-0.305,2389590
-0.004,0.233,0.967,-0.183,2389594
-0.004,0.233,0.967,-0.183,2389598
-0.004,0.233,0.967,-0.061,2389602
-0.005,0.233,0.97,-0.183,2389606
-0.005,0.233,0.97,-0.183,2389610
-0.005,0.233,0.968,-0.183,2389614
-0.005,0.233,0.968,-0.183,2389618
-0.005,0.233,0.968,-0.244,2389622
-0.005,0.235,0.968,-0.183,2389626
-0.005,0.235,0.968,-0.183,2389630
-0.005,0.236,0.97,-0.183,2389634
-0.005,0.236,0.97,-0.183,2389638
-0.005,0.236,0.97,-0.244,2389642
-0.007,0.236,0.967,-0.183,2389646
-0.007,0.236,0.967,-0.061,2389650
-0.006,0.237,0.965,-0.183,2389654
-0.006,0.237,0.965,-0.183,2389658
-0.006,0.237,0.965,-0.183,2389662
-0.008,0.238,0.967,-0.244,2389666
-0.008,0.238,0.967,-0.122,2389670
-0.008,0.24,0.969,-0.305,2389674
-0.008,0.24,0.969,-0.305,2389678
-0.008,0.24,0.969,-0.244,2389682
-0.008,0.241,0.968,-0.122,2389685
-0.008,0.241,0.968,-0.183,2389689
-0.007,0.241,0.963,-0.061,2389693
-0.007,0.241,0.963,-0.061,2389697
-0.007,0.241,0.963,-0.122,2389701
-0.009,0.241,0.965,-0.122,2389705
-0.009,0.241,0.965,-0.183,2389709
-0.008,0.241,0.967,-0.244,2389713
-0.008,0.241,0.967,-0.244,2389717
-0.008,0.241,0.967,-0.122,2389721
-0.006,0.242,0.967,-0.183,2389725
-0.006,0.242,0.967,-0.122,2389729
-0.008,0.24,0.964,-0.183,2389733
-0.008,0.24,0.964,-0.183,2389737
-0.008,0.24,0.964,-0.122,2389741
-0.006,0.241,0.964,-0.183,2389745
-0.006,0.241,0.964,-0.244,2389749
-0.008,0.241,0.967,-0.244,2389753
-0.008,0.241,0.967,-0.122,2389757
-0.008,0.241,0.967,-0.122,2389761
-0.008,0.24,0.968,-0.244,2389765
-0.008,0.24,0.968,-0.183,2389769
-0.008,0.24,0.967,-0.183,2389773
-0.008,0.24,0.967,-0.183,2389777
-0.008,0.24,0.967,-0.183,2389781
-0.006,0.238,0.967,-0.183,2389785
-0.006,0.238,0.967,-0.183,2389789
-0.006,0.235,0.971,-0.244,2389793
-0.006,0.235,0.971,-0.244,2389797
-0.006,0.235,0.971,-0.244,2389801
-0.005,0.236,0.968,-0.244,2389805
-0.005,0.236,0.968,-0.244,2389809
-0.005,0.234,0.966,-0.183,2389813
-0.005,0.234,0.966,-0.122,2389817
-0.005,0.234,0.966,-0.122,2389821
-0.003,0.234,0.968,-0.183,2389825
-0.003,0.234,0.968,-0.183,2389829
-0.004,0.234,0.969,-0.183,2389833
-0.004,0.234,0.969,-0.122,2389837
-0.004,0.234,0.969,-0.122,2389841
-0.004,0.233,0.971,-0.122,2389844
-0.004,0.233,0.971,-0.183,2389848
-0.004,0.236,0.969,-0.122,2389852
-0.004,0.236,0.969,-0.244,2389856
-0.004,0.236,0.969,-0.244,2389860
-0.004,0.236,0.967,-0.183,2389864
-0.004,0.236,0.967,-0.244,2389868
-0.005,0.237,0.968,-0.305,2389872
-0.005,0.237,0.968,-0.122,2389876
-0.005,0.237,0.968,-0.122,2389880
-0.004,0.238,0.969,-0.122,2389884
-0.004,0.238,0.969,-0.183,2389888
-0.004,0.238,0.968,-0.305,2389892
-0.004,0.238,0.968,-0.183,2389896
-0.004,0.238,0.968,-0.183,2389900
-0.005,0.24,0.966,-0.183,2389904
-0.005,0.24,0.966,-0.183,2389908
-0.005,0.24,0.966,-0.244,2389912
-0.005,0.24,0.966,-0.183,2389916
-0.005,0.24,0.966,-0.183,2389920
-0.005,0.241,0.967,-0.122,2389924
-0.005,0.241,0.967,-0.244,2389928
-0.005,0.24,0.966,-0.305,2389932
-0.005,0.24,0.966,-0.244,2389936
-0.005,0.24,0.966,-0.244,2389940
-0.005,0.24,0.965,-0.122,2389944
-0.005,0.24,0.965,-0.122,2389948
-0.005,0.241,0.966,-0.183,2389952
-0.005,0.241,0.966,-0.244,2389956
-0.005,0.241,0.966,-0.244,2389960
-0.007,0.241,0.966,-0.305,2389964
-0.007,0.241,0.966,-0.305,2389968
-0.009,0.241,0.965,-0.305,2389972
-0.009,0.241,0.965,-0.183,2389976
-0.009,0.241,0.965,-0.183,2389980
-0.008,0.24,0.965,-0.244,2389984
-0.008,0.24,0.965,-0.305,2389988
-0.009,0.239,0.966,-0.183,2389992
-0.009,0.239,0.966,-0.244,2389995
-0.009,0.239,0.966,-0.244,2389999
-0.01,0.238,0.966,-0.183,2390003
-0.01,0.238,0.966,-0.122,2390007
-0.009,0.238,0.967,-0.183,2390011
-0.009,0.238,0.967,-0.244,2390015
-0.009,0.238,0.967,-0.244,2390019
-0.007,0.237,0.967,-0.244,2390023
-0.007,0.237,0.967,-0.244,2390027
-0.009,0.236,0.967,-0.244,2390031
-0.009,0.236,0.967,-0.305,2390035
-0.009,0.236,0.967,-0.305,2390039
-0.008,0.237,0.969,-0.305,2390043
-0.008,0.237,0.969,-0.183,2390047
-0.007,0.235,0.968,-0.183,2390051
-0.007,0.235,0.968,-0.122,2390055
-0.007,0.235,0.968,-0.122,2390059
-0.007,0.234,0.968,0.0,2390063
-0.007,0.234,0.968,-0.183,2390067
-0.006,0.236,0.966,-0.244,2390071
-0.006,0.236,0.966,-0.122,2390075
-0.006,0.236,0.966,-0.122,2390079
-0.005,0.237,0.969,-0.122,2390083
-0.005,0.237,0.969,-0.122,2390087
-0.004,0.237,0.967,-0.122,2390091
-0.004,0.237,0.967,-0.183,2390095
-0.004,0.237,0.967,-0.183,2390099
-0.005,0.238,0.968,-0.183,2390103
-0.005,0.238,0.968,-0.183,2390107
-0.004,0.238,0.967,-0.183,2390111
-0.004,0.238,0.967,-0.366,2390115
-0.004,0.238,0.967,-0.366,2390119
-0.003,0.241,0.968,-0.183,2390123
-0.003,0.241,0.968,-0.122,2390127
-0.003,0.24,0.969,-0.244,2390131
-0.003,0.24,0.969,-0.122,2390135
-0.003,0.24,0.969,-0.122,2390139
-0.005,0.24,0.967,-0.305,2390142
-0.005,0.24,0.967,-0.244,2390146
-0.004,0.239,0.969,-0.122,2390150
-0.004,0.239,0.969,-0.122,2390154
-0.004,0.239,0.969,-0.122,2390158
-0.004,0.24,0.968,-0.183,2390162
-0.004,0.24,0.968,-0.366,2390166
-0.005,0.24,0.966,-0.183,2390170
-0.005,0.24,0.966,-0.183,2390174
-0.005,0.24,0.966,-0.183,2390178
-0.005,0.24,0.972,-0.183,2390182
-0.005,0.24,0.972,-0.183,2390186
-0.004,0.239,0.969,-0.183,2390190
-0.004,0.239,0.969,-0.122,2390194
-0.004,0.239,0.969,-0.122,2390198
-0.003,0.24,0.965,-0.244,2390202
-0.003,0.24,0.965,-0.183,2390206
-0.004,0.24,0.965,-0.244,2390210
-0.004,0.24,0.965,-0.061,2390214
-0.004,0.24,0.965,-0.061,2390218
-0.005,0.238,0.967,-0.061,2390222
-0.005,0.238,0.967,-0.183,2390226
-0.006,0.237,0.971,-0.305,2390230
-0.006,0.237,0.971,-0.244,2390234
-0.006,0.237,0.971,-0.244,2390238
-0.005,0.237,0.963,-0.183,2390242
-0.005,0.237,0.963,-0.244,2390246
-0.005,0.235,0.966,-0.305,2390250
-0.005,0.235,0.966,-0.122,2390254
-0.005,0.235,0.966,-0.122,2390258
-0.007,0.235,0.968,-0.244,2390262
-0.007,0.235,0.968,-0.244,2390266
-0.008,0.234,0.969,-0.183,2390270
-0.008,0.234,0.969,-0.183,2390274
-0.008,0.234,0.969,-0.183,2390278
-0.007,0.235,0.966,-0.122,2390282
-0.007,0.235,0.966,-0.244,2390286
-0.005,0.238,0.967,-0.183,2390290
-0.005,0.238,0.967,-0.122,2390294
-0.005,0.238,0.967,-0.122,2390298
-0.007,0.238,0.97,-0.122,2390302
-0.007,0.238,0.97,-0.122,2390306
-0.007,0.24,0.97,-0.244,2390309
-0.007,0.24,0.97,-0.122,2390313
-0.007,0.24,0.97,-0.122,2390317
-0.008,0.24,0.967,-0.122,2390321
-0.008,0.24,0.967,-0.244,2390325
-0.006,0.24,0.964,-0.244,2390329
-0.006,0.24,0.964,-0.366,2390333
-0.006,0.24,0.964,-0.366,2390337
-0.005,0.24,0.968,-0.122,2390341
-0.005,0.24,0.968,-0.183,2390345
-0.006,0.24,0.968,-0.244,2390349
-0.006,0.24,0.968,-0.061,2390353
-0.006,0.24,0.968,-0.061,2390357
-0.005,0.239,0.964,-0.183,2390361
-0.005,0.239,0.964,-0.122,2390365
-0.005,0.239,0.965,-0.183,2390369
-0.005,0.239,0.965,-0.244,2390373
-0.005,0.239,0.965,-0.244,2390377
-0.007,0.238,0.968,-0.366,2390381
-0.007,0.238,0.968,-0.122,2390385
-0.005,0.239,0.969,-0.122,2390389
-0.005,0.239,0.969,-0.244,2390393
-0.005,0.239,0.969,-0.244,2390397
-0.007,0.239,0.968,-0.122,2390401
-0.007,0.239,0.968,-0.061,2390405
-0.007,0.238,0.967,-0.305,2390409
-0.007,0.238,0.967,-0.366,2390413
-0.007,0.238,0.967,-0.366,2390417
-0.005,0.239,0.966,-0.244,2390421
-0.005,0.239,0.966,-0.122,2390425
-0.007,0.238,0.968,-0.061,2390429
-0.007,0.238,0.968,-0.061,2390433
-0.007,0.238,0.968,-0.061,2390437
-0.006,0.24,0.969,-0.122,2390441
-0.006,0.24,0.969,-0.244,2390445
-0.006,0.239,0.967,-0.122,2390449
-0.006,0.239,0.967,-0.122,2390453
-0.004,0.239,0.968,-0.244,2390456
-0.004,0.239,0.968,-0.244,2390460
-0.004,0.239,0.968,-0.244,2390464
-0.006,0.238,0.969,-0.183,2390468
-0.006,0.238,0.969,-0.244,2390472
-0.006,0.238,0.968,-0.305,2390476
-0.006,0.238,0.968,-0.305,2390480
-0.006,0.238,0.968,-0.244,2390484
-0.004,0.236,0.969,-0.427,2390488
-0.004,0.236,0.969,-0.366,2390492
-0.003,0.236,0.969,-0.122,2390496
-0.003,0.236,0.969,-0.122,2390500
-0.003,0.236,0.969,-0.122,2390504
-0.004,0.235,0.968,-0.183,2390508
-0.004,0.235,0.968,-0.122,2390512
-0.003,0.235,0.969,-0.183,2390516
-0.003,0.235,0.969,-0.183,2390520
-0.003,0.235,0.969,-0.122,2390524
-0.004,0.236,0.969,-0.061,2390528
-0.004,0.236,0.969,-0.183,2390532
-0.004,0.239,0.968,-0.183,2390536
-0.004,0.239,0.968,-0.183,2390540
-0.004,0.239,0.968,-0.244,2390544
-0.006,0.239,0.967,-0.183,2390548
-0.006,0.239,0.967,-0.183,2390552
-0.005,0.239,0.969,-0.122,2390556
-0.005,0.239,0.969,-0.122,2390560
-0.005,0.239,0.969,-0.183,2390564
-0.006,0.241,0.968,-0.183,2390568
-0.006,0.241,0.968,-0.183,2390572
-0.005,0.239,0.966,-0.244,2390576
-0.005,0.239,0.966,-0.244,2390580
-0.005,0.239,0.966,-0.122,2390584
-0.005,0.239,0.966,0.0,2390587
-0.005,0.239,0.966,-0.061,2390591
-0.007,0.24,0.967,-0.122,2390595
-0.007,0.24,0.967,-0.122,2390599
-0.007,0.24,0.967,-0.183,2390603
-0.006,0.239,0.967,-0.183,2390607
-0.006,0.239,0.967,-0.183,2390611
-0.007,0.239,0.969,-0.183,2390615
-0.007,0.239,0.969,-0.183,2390619
-0.007,0.239,0.969,-0.183,2390623
-0.008,0.237,0.968,-0.122,2390627
-0.008,0.237,0.968,-0.183,2390631
-0.007,0.239,0.968,-0.244,2390635
-0.007,0.239,0.968,-0.244,2390639
-0.007,0.239,0.968,-0.183,2390643
-0.008,0.238,0.969,-0.122,2390647
-0.008,0.238,0.969,-0.061,2390651
-0.009,0.237,0.968,-0.122,2390655
-0.009,0.237,0.968,-0.122,2390659
-0.009,0.237,0.968,-0.122,2390663
-0.008,0.237,0.966,-0.244,2390667
-0.008,0.237,0.966,-0.244,2390671
-0.008,0.238,0.966,-0.061,2390675
-0.008,0.238,0.966,-0.061,2390679
-0.008,0.238,0.966,-0.183,2390683
-0.007,0.238,0.968,-0.122,2390687
-0.007,0.238,0.968,-0.183,2390691
-0.006,0.238,0.967,-0.122,2390695
-0.006,0.238,0.967,-0.122,2390699
-0.006,0.238,0.967,-0.183,2390703
-0.006,0.239,0.967,-0.183,2390707
-0.006,0.239,0.967,-0.183,2390711
-0.003,0.237,0.969,-0.244,2390715
-0.003,0.237,0.969,-0.244,2390719
-0.003,0.237,0.969,-0.061,2390723
-0.005,0.239,0.969,0.0,2390727
-0.005,0.239,0.969,-0.183,2390731
-0.005,0.239,0.968,-0.305,2390735
-0.005,0.239,0.968,-0.305,2390739
-0.005,0.239,0.968,-0.183,2390743
-0.005,0.239,0.967,-0.061,2390746
-0.005,0.239,0.967,-0.305,2390750
-0.005,0.239,0.967,-0.244,2390754
-0.005,0.239,0.967,-0.244,2390758
-0.005,0.239,0.967,-0.061,2390762
-0.004,0.238,0.969,-0.122,2390766
-0.004,0.238,0.969,-0.122,2390770
-0.004,0.238,0.967,-0.183,2390774
-0.004,0.238,0.967,-0.183,2390778
-0.004,0.238,0.967,-0.244,2390782
-0.005,0.238,0.968,-0.244,2390786
-0.005,0.238,0.968,-0.244,2390790
-0.005,0.238,0.967,-0.183,2390794
-0.005,0.238,0.967,-0.183,2390798
-0.005,0.238,0.967,-0.183,2390802
-0.006,0.238,0.968,-0.183,2390806
-0.006,0.238,0.968,-0.183,2390810
-0.006,0.238,0.967,-0.061,2390814
-0.006,0.238,0.967,-0.061,2390818
-0.006,0.238,0.967,-0.183,2390822
-0.004,0.235,0.968,-0.183,2390826
-0.004,0.235,0.968,-0.183,2390830
-0.006,0.237,0.968,-0.244,2390834
-0.006,0.237,0.968,-0.244,2390838
-0.006,0.237,0.968,-0.244,2390842
-0.006,0.238,0.968,-0.061,2390846
-0.006,0.238,0.968,-0.183,2390850
-0.006,0.236,0.969,-0.183,2390854
-0.006,0.236,0.969,-0.183,2390858
-0.006,0.236,0.969,-0.122,2390862
-0.006,0.238,0.967,-0.183,2390866
-0.006,0.238,0.967,-0.183,2390870
-0.007,0.239,0.967,-0.244,2390874
-0.007,0.239,0.967,-0.244,2390878
-0.007,0.239,0.967,-0.244,2390882
-0.008,0.239,0.966,-0.366,2390886
-0.008,0.239,0.966,-0.305,2390890
-0.007,0.239,0.968,-0.183,2390893
-0.007,0.239,0.968,-0.183,2390897
-0.007,0.239,0.968,-0.244,2390901
-0.007,0.238,0.966,-0.305,2390905
-0.007,0.238,0.966,-0.183,2390909
-0.009,0.24,0.966,-0.244,2390913
-0.009,0.24,0.966,-0.244,2390917
-0.009,0.24,0.966,-0.244,2390921
-0.007,0.239,0.967,-0.183,2390925
-0.007,0.239,0.967,-0.122,2390929
-0.009,0.238,0.967,-0.183,2390933
-0.009,0.238,0.967,-0.183,2390937
-0.009,0.238,0.967,-0.183,2390941
-0.008,0.239,0.966,-0.244,2390945
-0.008,0.239,0.966,-0.244,2390949
-0.007,0.237,0.967,-0.183,2390953
-0.007,0.237,0.967,-0.183,2390957
-0.007,0.237,0.967,-0.244,2390961
-0.007,0.236,0.967,-0.244,2390965
-0.007,0.236,0.967,-0.122,2390969
-0.006,0.237,0.969,-0.122,2390973
-0.006,0.237,0.969,-0.122,2390977
-0.006,0.237,0.969,-0.061,2390981
-0.004,0.24,0.967,-0.183,2390985
-0.004,0.24,0.967,-0.122,2390989
-0.005,0.24,0.967,-0.183,2390993
-0.005,0.24,0.967,-0.183,2390997
-0.005,0.24,0.967,-0.305,2391001
-0.005,0.24,0.969,-0.244,2391005
-0.005,0.24,0.969,-0.183,2391009
-0.006,0.239,0.966,-0.122,2391013
-0.006,0.239,0.966,-0.122,2391017
-0.006,0.239,0.966,-0.183,2391021
-0.005,0.24,0.966,-0.244,2391025
-0.005,0.24,0.966,-0.305,2391029
-0.004,0.239,0.967,-0.183,2391033
-0.004,0.239,0.967,-0.183,2391037
-0.004,0.239,0.967,-0.183,2391041
-0.006,0.239,0.967,-0.183,2391045
-0.006,0.239,0.967,-0.244,2391049
-0.005,0.238,0.967,-0.244,2391052
-0.005,0.238,0.967,-0.244,2391056
-0.005,0.238,0.967,-0.061,2391060
-0.004,0.236,0.968,-0.122,2391064
-0.004,0.236,0.968,-0.305,2391068
-0.006,0.236,0.97,-0.305,2391072
-0.006,0.236,0.97,-0.305,2391076
-0.006,0.236,0.97,-0.183,2391080
-0.004,0.237,0.969,-0.183,2391084
-0.004,0.237,0.969,-0.183,2391088
-0.004,0.236,0.967,-0.244,2391092
-0.004,0.236,0.967,-0.244,2391096
-0.004,0.236,0.967,-0.183,2391100
-0.005,0.236,0.967,-0.183,2391104
-0.005,0.236,0.967,-0.244,2391108
-0.005,0.237,0.97,-0.183,2391112
-0.005,0.237,0.97,-0.183,2391116
-0.005,0.237,0.97,-0.061,2391120
-0.007,0.238,0.968,-0.122,2391124
-0.007,0.238,0.968,-0.244,2391128
-0.005,0.237,0.967,-0.122,2391132
-0.005,0.237,0.967,-0.122,2391136
-0.005,0.237,0.967,-0.183,2391140
-0.006,0.236,0.967,-0.183,2391144
-0.006,0.236,0.967,-0.183,2391148
-0.008,0.237,0.967,-0.305,2391152
-0.008,0.237,0.967,-0.305,2391156
-0.008,0.237,0.967,-0.244,2391160
-0.006,0.238,0.967,-0.183,2391164
-0.006,0.238,0.967,-0.305,2391168
-0.007,0.238,0.966,-0.366,2391172
-0.007,0.238,0.966,-0.366,2391176
-0.007,0.238,0.966,-0.244,2391180
-0.006,0.239,0.966,-0.305,2391184
-0.006,0.239,0.966,-0.244,2391188
-0.006,0.238,0.967,-0.122,2391192
-0.006,0.238,0.967,-0.122,2391196
-0.006,0.238,0.967,-0.122,2391199
-0.008,0.237,0.967,-0.183,2391203
-0.008,0.237,0.967,-0.061,2391207
-0.007,0.236,0.967,-0.122,2391211
-0.007,0.236,0.967,-0.122,2391215
-0.007,0.236,0.967,-0.183,2391219
-0.007,0.236,0.968,-0.183,2391223
-0.007,0.236,0.968,-0.122,2391227
-0.009,0.239,0.967,0.0,2391231
-0.009,0.239,0.967,0.0,2391235
-0.009,0.239,0.967,-0.061,2391239
-0.008,0.239,0.967,-0.305,2391243
-0.008,0.239,0.967,-0.183,2391247
-0.007,0.238,0.967,-0.122,2391251
-0.007,0.238,0.967,-0.122,2391255
-0.007,0.238,0.967,-0.305,2391259
-0.007,0.239,0.966,-0.183,2391263
-0.007,0.239,0.966,-0.122,2391267
-0.008,0.239,0.966,-0.183,2391271
-0.008,0.239,0.966,-0.183,2391275
-0.008,0.239,0.966,-0.061,2391279
-0.007,0.238,0.963,-0.183,2391283
-0.007,0.238,0.963,-0.183,2391287
-0.006,0.239,0.974,-0.122,2391291
-0.006,0.239,0.974,-0.122,2391295
-0.006,0.239,0.974,-0.244,2391299
-0.006,0.239,0.972,-0.183,2391303
-0.006,0.239,0.972,-0.244,2391307
-0.003,0.238,0.959,-0.122,2391311
-0.003,0.238,0.959,-0.122,2391315
-0.003,0.238,0.959,-0.122,2391319
-0.004,0.236,0.969,-0.244,2391323
-0.004,0.236,0.969,-0.183,2391327
-0.004,0.239,0.968,-0.244,2391330
-0.004,0.239,0.968,-0.244,2391334
-0.004,0.239,0.968,-0.183,2391338
-0.002,0.237,0.973,-0.305,2391342
-0.002,0.237,0.973,-0.427,2391346
-0.005,0.237,0.965,-0.244,2391350
-0.005,0.237,0.965,-0.244,2391354
-0.005,0.237,0.965,-0.122,2391358
-0.005,0.239,0.969,-0.244,2391362
-0.005,0.239,0.969,-0.183,2391366
-0.005,0.239,0.971,-0.122,2391370
-0.005,0.239,0.971,-0.122,2391374
-0.005,0.239,0.971,-0.183,2391378
-0.004,0.24,0.969,-0.061,2391382
-0.004,0.24,0.969,-0.122,2391386
-0.005,0.238,0.969,-0.183,2391390
-0.005,0.238,0.969,-0.183,2391394
-0.005,0.238,0.969,-0.244,2391398
-0.005,0.238,0.967,-0.244,2391402
-0.005,0.238,0.967,-0.244,2391406
-0.004,0.238,0.969,-0.244,2391410
-0.004,0.238,0.969,-0.244,2391414
-0.004,0.238,0.969,-0.244,2391418
-0.004,0.239,0.966,-0.305,2391422
-0.004,0.239,0.966,-0.244,2391426
-0.006,0.239,0.966,-0.366,2391430
-0.006,0.239,0.966,-0.244,2391434
-0.006,0.239,0.966,-0.244,2391438
-0.006,0.239,0.967,-0.183,2391442
-0.006,0.239,0.967,-0.183,2391446
-0.005,0.236,0.967,-0.183,2391450
-0.005,0.236,0.967,-0.244,2391454
-0.005,0.236,0.967,-0.244,2391458
-0.007,0.236,0.968,-0.183,2391462
-0.007,0.236,0.968,-0.183,2391466
-0.008,0.239,0.965,-0.244,2391470
-0.008,0.239,0.965,-0.244,2391474
-0.008,0.239,0.965,-0.244,2391477
-0.009,0.236,0.967,-0.244,2391481
-0.009,0.236,0.967,-0.122,2391485
-0.01,0.237,0.967,-0.122,2391489
-0.01,0.237,0.967,-0.183,2391493
-0.01,0.237,0.967,-0.183,2391497
-0.009,0.238,0.967,-0.122,2391501
-0.009,0.238,0.967,-0.122,2391505
-0.01,0.238,0.968,-0.305,2391509
-0.01,0.238,0.968,-0.183,2391513
-0.01,0.238,0.968,-0.183,2391517
-0.009,0.239,0.966,-0.122,2391521
-0.009,0.239,0.966,-0.366,2391525
-0.007,0.239,0.967,-0.305,2391529
-0.007,0.239,0.967,-0.122,2391533
-0.007,0.239,0.967,-0.122,2391537
-0.008,0.24,0.967,-0.183,2391541
-0.008,0.24,0.967,-0.183,2391545
-0.007,0.24,0.967,-0.305,2391549
-0.007,0.24,0.967,-0.305,2391553
-0.007,0.24,0.967,-0.305,2391557
-0.004,0.241,0.967,-0.183,2391561
-0.004,0.241,0.967,-0.183,2391565
-0.004,0.241,0.968,-0.183,2391569
-0.004,0.241,0.968,-0.183,2391573
-0.004,0.241,0.968,-0.183,2391577
-0.004,0.239,0.968,-0.122,2391581
-0.004,0.239,0.968,-0.122,2391585
-0.004,0.239,0.97,-0.244,2391589
-0.004,0.239,0.97,-0.183,2391593
-0.004,0.239,0.97,-0.183,2391597
-0.004,0.238,0.967,-0.183,2391601
-0.004,0.238,0.967,-0.183,2391605
-0.003,0.236,0.967,-0.061,2391609
-0.003,0.236,0.967,0.0,2391613
-0.003,0.236,0.967,0.0,2391616
-0.003,0.238,0.969,-0.183,2391620
-0.003,0.238,0.969,-0.183,2391624
-0.003,0.238,0.969,-0.244,2391628
-0.003,0.238,0.969,-0.244,2391632
-0.003,0.238,0.969,-0.244,2391636
-0.004,0.237,0.969,0.0,2391640
-0.004,0.237,0.969,-0.122,2391644
-0.004,0.237,0.968,-0.122,2391648
-0.004,0.237,0.968,-0.122,2391652
-0.004,0.237,0.968,-0.122,2391656
-0.003,0.237,0.969,-0.305,2391660
-0.003,0.237,0.969,-0.122,2391664
-0.003,0.237,0.969,-0.122,2391668
-0.003,0.237,0.969,-0.122,2391672
-0.003,0.237,0.969,-0.122,2391676
-0.004,0.237,0.968,-0.183,2391680
-0.004,0.237,0.968,-0.122,2391684
-0.003,0.237,0.969,-0.183,2391688
-0.003,0.237,0.969,-0.061,2391692
-0.003,0.237,0.969,-0.061,2391696
-0.004,0.236,0.969,-0.122,2391700
-0.004,0.236,0.969,-0.244,2391704
-0.005,0.237,0.97,-0.183,2391708
-0.005,0.237,0.97,-0.244,2391712
-0.005,0.237,0.97,-0.244,2391716
-0.007,0.238,0.968,-0.183,2391720
-0.007,0.238,0.968,-0.061,2391724
-0.008,0.237,0.967,-0.183,2391728
-0.008,0.237,0.967,-0.183,2391732
-0.008,0.237,0.967,-0.183,2391736
-0.007,0.237,0.967,-0.183,2391740
-0.007,0.237,0.967,-0.183,2391744
-0.01,0.24,0.967,-0.305,2391748
-0.01,0.24,0.967,-0.122,2391752
-0.01,0.24,0.967,-0.122,2391756
-0.007,0.24,0.967,-0.061,2391760
-0.007,0.24,0.967,-0.244,2391764
-0.008,0.239,0.966,-0.244,2391767
-0.008,0.239,0.966,-0.122,2391771
-0.008,0.239,0.966,-0.122,2391775
-0.008,0.238,0.967,-0.122,2391779
-0.008,0.238,0.967,-0.183,2391783
-0.008,0.239,0.967,-0.061,2391787
-0.008,0.239,0.967,-0.061,2391791
-0.008,0.239,0.967,-0.061,2391795
-0.009,0.239,0.967,-0.244,2391799
-0.009,0.239,0.967,-0.183,2391803
-0.006,0.241,0.966,-0.183,2391807
-0.006,0.241,0.966,-0.244,2391811
-0.006,0.241,0.966,-0.244,2391815
-0.007,0.239,0.968,-0.183,2391819
-0.007,0.239,0.968,-0.122,2391823
-0.008,0.24,0.967,-0.122,2391827
-0.008,0.24,0.967,-0.183,2391831
-0.008,0.24,0.967,-0.183,2391835
-0.007,0.24,0.967,-0.122,2391839
-0.007,0.24,0.967,-0.061,2391843
-0.006,0.24,0.967,-0.183,2391847
-0.006,0.24,0.967,-0.244,2391851
-0.006,0.24,0.967,-0.244,2391855
-0.006,0.239,0.968,-0.183,2391859
-0.006,0.239,0.968,-0.244,2391863
-0.006,0.24,0.969,-0.183,2391867
-0.006,0.24,0.969,-0.305,2391871
-0.006,0.24,0.969,-0.305,2391875
-0.007,0.238,0.968,-0.183,2391879
-0.007,0.238,0.968,-0.122,2391883
-0.005,0.237,0.969,-0.183,2391887
-0.005,0.237,0.969,-0.305,2391891
-0.005,0.237,0.969,-0.305,2391895
-0.005,0.237,0.969,-0.305,2391899
-0.005,0.237,0.969,-0.244,2391903
-0.004,0.236,0.969,-0.244,2391907
-0.004,0.236,0.969,-0.183,2391911
-0.004,0.236,0.969,-0.183,2391915
-0.004,0.236,0.969,-0.305,2391918
-0.004,0.236,0.969,-0.244,2391922
-0.003,0.234,0.969,-0.122,2391926
-0.003,0.234,0.969,0.0,2391930
-0.003,0.234,0.969,0.0,2391934
-0.003,0.236,0.968,-0.122,2391938
-0.003,0.236,0.968,-0.305,2391942
-0.003,0.235,0.969,-0.244,2391946
-0.003,0.235,0.969,-0.122,2391950
-0.003,0.235,0.969,-0.122,2391954
-0.003,0.236,0.969,-0.183,2391958
-0.003,0.236,0.969,-0.183,2391962
-0.004,0.237,0.968,-0.183,2391966
-0.004,0.237,0.968,-0.366,2391970
-0.004,0.237,0.968,-0.366,2391974
-0.003,0.238,0.968,-0.183,2391978
-0.003,0.238,0.968,-0.122,2391982
-0.005,0.239,0.968,-0.183,2391986
-0.005,0.239,0.968,-0.183,2391990
-0.005,0.239,0.968,-0.183,2391994
-0.007,0.24,0.965,-0.122,2391998
-0.007,0.24,0.965,-0.122,2392002
-0.007,0.24,0.967,-0.183,2392006
-0.007,0.24,0.967,-0.183,2392010
-0.007,0.24,0.967,-0.183,2392014
-0.007,0.24,0.966,-0.183,2392018
-0.007,0.24,0.966,-0.183,2392022
-0.004,0.239,0.965,-0.244,2392026
-0.004,0.239,0.965,-0.183,2392030
-0.004,0.239,0.965,-0.183,2392034
-0.007,0.238,0.966,-0.366,2392038
-0.007,0.238,0.966,-0.183,2392042
-0.004,0.239,0.967,-0.061,2392046
-0.004,0.239,0.967,-0.183,2392050
-0.004,0.239,0.967,-0.183,2392054
-0.006,0.239,0.968,-0.244,2392058
-0.006,0.239,0.968,-0.244,2392061
-0.009,0.238,0.969,-0.122,2392065
-0.009,0.238,0.969,-0.122,2392069
-0.009,0.238,0.969,-0.122,2392073
-0.006,0.238,0.967,-0.122,2392077
-0.006,0.238,0.967,-0.183,2392081
-0.008,0.239,0.967,-0.244,2392085
-0.008,0.239,0.967,-0.244,2392089
-0.008,0.239,0.967,-0.244,2392093
-0.008,0.239,0.965,-0.122,2392097
-0.008,0.239,0.965,-0.122,2392101
-0.007,0.237,0.966,-0.244,2392105
-0.007,0.237,0.966,-0.122,2392109
-0.007,0.237,0.966,-0.122,2392113
-0.008,0.237,0.966,-0.183,2392117
-0.008,0.237,0.966,-0.183,2392121
-0.008,0.237,0.967,-0.122,2392125
-0.008,0.237,0.967,-0.305,2392129
-0.006,0.236,0.969,-0.427,2392133
-0.006,0.236,0.969,-0.427,2392137
-0.006,0.236,0.969,-0.122,2392141
-0.006,0.236,0.968,-0.244,2392145
-0.006,0.236,0.968,-0.183,2392149
-0.007,0.236,0.968,-0.122,2392153
-0.007,0.236,0.968,-0.122,2392157
-0.007,0.236,0.968,-0.244,2392161
-0.006,0.237,0.969,-0.305,2392165
-0.006,0.237,0.969,-0.305,2392169
-0.005,0.237,0.969,-0.244,2392173
-0.005,0.237,0.969,-0.244,2392177
-0.005,0.237,0.969,-0.244,2392181
-0.005,0.236,0.97,-0.183,2392185
-0.005,0.236,0.97,-0.183,2392189
-0.005,0.238,0.97,-0.122,2392193
-0.005,0.238,0.97,-0.122,2392197
-0.005,0.238,0.97,-0.305,2392201
-0.005,0.239,0.967,-0.305,2392205
-0.005,0.239,0.967,-0.244,2392209
-0.004,0.238,0.966,-0.244,2392213
-0.004,0.238,0.966,-0.244,2392217
-0.004,0.238,0.966,0.0,2392221
-0.004,0.239,0.967,-0.122,2392224
-0.004,0.239,0.967,-0.122,2392228
-0.004,0.24,0.969,-0.244,2392232
-0.004,0.24,0.969,-0.244,2392236
-0.004,0.24,0.969,-0.122,2392240
-0.005,0.239,0.968,-0.183,2392244
-0.005,0.239,0.968,-0.183,2392248
-0.004,0.238,0.967,-0.244,2392252
-0.004,0.238,0.967,-0.244,2392256
-0.004,0.238,0.967,-0.244,2392260
-0.004,0.239,0.968,-0.183,2392264
-0.004,0.239,0.968,-0.183,2392268
-0.005,0.239,0.968,-0.244,2392272
-0.005,0.239,0.968,-0.244,2392276
-0.005,0.239,0.968,-0.183,2392280
-0.005,0.239,0.966,-0.122,2392284
-0.005,0.239,0.966,-0.183,2392288
-0.008,0.24,0.965,-0.061,2392292
-0.008,0.24,0.965,-0.061,2392296
-0.008,0.24,0.965,-0.061,2392300
-0.009,0.24,0.972,-0.122,2392304
-0.009,0.24,0.972,-0.061,2392308
-0.005,0.237,0.968,-0.183,2392312
-0.005,0.237,0.968,-0.183,2392316
-0.005,0.237,0.968,-0.183,2392320
-0.006,0.238,0.964,-0.122,2392324
-0.006,0.238,0.964,-0.305,2392328
-0.008,0.237,0.968,-0.305,2392332
-0.008,0.237,0.968,-0.305,2392336
-0.008,0.237,0.968,-0.244,2392340
-0.008,0.237,0.969,-0.305,2392344
-0.008,0.237,0.969,-0.244,2392348
-0.006,0.237,0.968,-0.122,2392352
-0.006,0.237,0.968,-0.122,2392356
-0.006,0.237,0.968,-0.183,2392360
-0.008,0.235,0.964,-0.061,2392364
-0.008,0.235,0.964,-0.061,2392368
-0.005,0.237,0.969,-0.183,2392372
-0.005,0.237,0.969,-0.183,2392376
-0.005,0.237,0.969,-0.183,2392380
-0.006,0.237,0.969,-0.183,2392383
-0.006,0.237,0.969,-0.122,2392387
-0.005,0.236,0.969,-0.183,2392391
-0.005,0.236,0.969,-0.183,2392395
-0.005,0.236,0.969,-0.061,2392399
-0.006,0.236,0.966,0.0,2392403
-0.006,0.236,0.966,-0.183,2392407
-0.005,0.237,0.965,-0.122,2392411
-0.005,0.237,0.965,-0.122,2392415
-0.005,0.237,0.965,-0.122,2392419
-0.007,0.239,0.969,-0.183,2392423
-0.007,0.239,0.969,-0.244,2392427
-0.006,0.24,0.967,-0.183,2392431
-0.006,0.24,0.967,-0.183,2392435
-0.006,0.24,0.967,-0.183,2392439
-0.004,0.24,0.966,-0.366,2392443
-0.004,0.24,0.966,-0.305,2392447
-0.005,0.24,0.969,-0.122,2392451
-0.005,0.24,0.969,-0.122,2392455
-0.005,0.24,0.969,-0.366,2392459
-0.004,0.24,0.968,-0.305,2392463
-0.004,0.24,0.968,-0.122,2392467
-0.005,0.24,0.967,-0.122,2392471
-0.005,0.24,0.967,-0.122,2392475
-0.005,0.24,0.967,-0.244,2392479
-0.004,0.238,0.967,-0.183,2392483
-0.004,0.238,0.967,-0.122,2392487
-0.004,0.239,0.966,-0.122,2392491
-0.004,0.239,0.966,-0.122,2392495
-0.004,0.239,0.966,-0.183,2392499
-0.005,0.238,0.968,-0.244,2392503
-0.005,0.238,0.968,-0.305,2392507
-0.004,0.237,0.968,-0.183,2392511
-0.004,0.237,0.968,-0.183,2392515
-0.004,0.237,0.968,-0.183,2392519
-0.007,0.235,0.966,-0.183,2392523
-0.007,0.235,0.966,-0.122,2392527
-0.007,0.235,0.968,-0.061,2392530
-0.007,0.235,0.968,-0.061,2392534
-0.007,0.235,0.968,-0.061,2392538
-0.006,0.238,0.97,-0.122,2392542
-0.006,0.238,0.97,-0.122,2392546
-0.006,0.237,0.967,0.0,2392550
-0.006,0.237,0.967,0.0,2392554
-0.006,0.237,0.967,-0.122,2392558
-0.008,0.236,0.966,-0.244,2392562
-0.008,0.236,0.966,-0.122,2392566
-0.009,0.238,0.967,-0.183,2392570
-0.009,0.238,0.967,-0.183,2392574
-0.009,0.238,0.967,-0.305,2392578
-0.009,0.237,0.967,-0.366,2392582
-0.009,0.237,0.967,-0.244,2392586
-0.006,0.237,0.968,-0.183,2392590
-0.006,0.237,0.968,-0.183,2392594
-0.006,0.237,0.968,-0.244,2392598
-0.005,0.237,0.968,-0.244,2392602
-0.005,0.237,0.968,-0.305,2392606
-0.006,0.238,0.968,-0.244,2392610
-0.006,0.238,0.968,-0.244,2392614
-0.006,0.238,0.968,-0.183,2392618
-0.006,0.237,0.968,-0.183,2392622
-0.006,0.237,0.968,-0.122,2392626
-0.006,0.237,0.968,-0.305,2392630
-0.006,0.237,0.968,-0.305,2392634
-0.006,0.237,0.968,-0.366,2392638
-0.006,0.237,0.969,-0.122,2392642
-0.006,0.237,0.969,-0.183,2392646
-0.007,0.239,0.967,-0.183,2392650
-0.007,0.239,0.967,-0.183,2392654
-0.007,0.239,0.967,-0.305,2392658
-0.005,0.24,0.966,-0.183,2392662
-0.005,0.24,0.966,-0.061,2392666
-0.005,0.24,0.968,-0.244,2392670
-0.005,0.24,0.968,-0.244,2392674
-0.005,0.24,0.968,-0.061,2392678
-0.005,0.239,0.967,-0.183,2392681
-0.005,0.239,0.967,-0.305,2392685
-0.007,0.239,0.966,-0.183,2392689
-0.007,0.239,0.966,-0.183,2392693
-0.007,0.239,0.966,-0.183,2392697
-0.005,0.238,0.966,-0.183,2392701
-0.005,0.238,0.966,-0.122,2392705
-0.006,0.238,0.969,-0.183,2392709
-0.006,0.238,0.969,-0.183,2392713
-0.006,0.238,0.969,-0.366,2392717
-0.005,0.238,0.967,-0.244,2392721
-0.005,0.238,0.967,-0.183,2392725
-0.005,0.239,0.966,-0.183,2392729
-0.005,0.239,0.966,-0.183,2392733
-0.005,0.239,0.966,-0.183,2392737
-0.005,0.238,0.969,-0.183,2392741
-0.005,0.238,0.969,-0.244,2392745
-0.005,0.238,0.968,-0.183,2392749
-0.005,0.238,0.968,-0.183,2392753
-0.005,0.238,0.968,-0.183,2392757
-0.005,0.237,0.969,-0.122,2392761
-0.005,0.237,0.969,-0.061,2392765
-0.006,0.235,0.968,-0.183,2392769
-0.006,0.235,0.968,-0.183,2392773
-0.006,0.235,0.968,-0.244,2392777
-0.007,0.237,0.967,-0.305,2392781
-0.007,0.237,0.967,-0.183,2392785
-0.006,0.236,0.967,-0.183,2392789
-0.006,0.236,0.967,-0.183,2392793
-0.006,0.236,0.967,-0.183,2392797
-0.008,0.237,0.968,-0.122,2392801
-0.008,0.237,0.968,-0.061,2392805
-0.005,0.238,0.967,-0.183,2392809
-0.005,0.238,0.967,-0.244,2392813
-0.005,0.238,0.967,-0.244,2392817
-0.005,0.237,0.965,-0.183,2392821
-0.005,0.237,0.965,-0.122,2392825
-0.006,0.24,0.968,-0.061,2392829
-0.006,0.24,0.968,-0.244,2392833
-0.006,0.24,0.968,-0.244,2392837
-0.003,0.239,0.968,-0.305,2392840
-0.003,0.239,0.968,-0.244,2392844
-0.005,0.24,0.966,-0.183,2392848
-0.005,0.24,0.966,-0.122,2392852
-0.005,0.24,0.966,-0.122,2392856
-0.005,0.24,0.968,-0.183,2392860
-0.005,0.24,0.968,-0.183,2392864
-0.004,0.24,0.969,-0.183,2392868
-0.004,0.24,0.969,-0.244,2392872
-0.004,0.24,0.969,-0.244,2392876
-0.005,0.24,0.969,-0.122,2392880
-0.005,0.24,0.969,-0.183,2392884
-0.006,0.24,0.965,-0.122,2392888
-0.006,0.24,0.965,-0.122,2392892
-0.006,0.24,0.965,-0.122,2392896
-0.005,0.239,0.965,-0.183,2392900
-0.005,0.239,0.965,-0.305,2392904
-0.006,0.24,0.968,-0.366,2392908
-0.006,0.24,0.968,-0.305,2392912
-0.006,0.24,0.968,-0.305,2392916
-0.007,0.239,0.968,-0.244,2392920
-0.007,0.239,0.968,-0.244,2392924
-0.005,0.238,0.967,-0.244,2392928
-0.005,0.238,0.967,-0.244,2392932
-0.005,0.238,0.967,-0.244,2392936
-0.005,0.239,0.966,-0.427,2392940
-0.005,0.239,0.966,-0.122,2392944
-0.006,0.237,0.967,-0.244,2392948
-0.006,0.237,0.967,-0.244,2392952
-0.006,0.237,0.967,-0.244,2392956
-0.007,0.235,0.966,-0.244,2392960
-0.007,0.235,0.966,-0.244,2392964
-0.006,0.237,0.968,-0.183,2392968
-0.006,0.237,0.968,-0.183,2392972
-0.006,0.237,0.968,-0.183,2392976
-0.006,0.236,0.968,-0.122,2392980
-0.006,0.236,0.968,-0.244,2392984
-0.006,0.239,0.968,-0.061,2392988
-0.006,0.239,0.968,-0.244,2392992
-0.006,0.239,0.968,-0.244,2392995
-0.008,0.238,0.967,-0.244,2392999
-0.008,0.238,0.967,-0.183,2393003
-0.007,0.237,0.969,-0.305,2393007
-0.007,0.237,0.969,-0.122,2393011
-0.007,0.237,0.969,-0.122,2393015
-0.006,0.239,0.967,-0.061,2393019
-0.006,0.239,0.967,-0.122,2393023
-0.007,0.239,0.967,-0.183,2393027
-0.007,0.239,0.967,-0.183,2393031
-0.007,0.239,0.967,-0.183,2393035
-0.007,0.239,0.967,-0.427,2393039
-0.007,0.239,0.967,-0.305,2393043
-0.006,0.24,0.966,-0.122,2393047
-0.006,0.24,0.966,-0.183,2393051
-0.006,0.24,0.966,-0.183,2393055
-0.006,0.239,0.968,-0.244,2393059
-0.006,0.239,0.968,-0.366,2393063
-0.006,0.238,0.968,-0.366,2393067
-0.006,0.238,0.968,-0.305,2393071
-0.006,0.238,0.968,-0.305,2393075
-0.005,0.238,0.968,-0.122,2393079
-0.005,0.238,0.968,-0.183,2393083
-0.005,0.239,0.969,-0.183,2393087
-0.005,0.239,0.969,-0.122,2393091
-0.005,0.239,0.969,-0.122,2393095
-0.005,0.239,0.968,-0.183,2393099
-0.005,0.239,0.968,-0.122,2393103
-0.004,0.239,0.968,-0.244,2393107
-0.004,0.239,0.968,-0.183,2393111
-0.004,0.239,0.968,-0.183,2393115
-0.005,0.24,0.967,-0.183,2393119
-0.005,0.24,0.967,-0.061,2393123
-0.007,0.24,0.967,-0.183,2393127
-0.007,0.24,0.967,-0.122,2393131
-0.007,0.24,0.967,-0.122,2393135
-0.006,0.239,0.967,-0.244,2393139
-0.006,0.239,0.967,-0.244,2393143
-0.006,0.239,0.967,-0.244,2393147
-0.006,0.239,0.967,-0.183,2393151
-0.006,0.239,0.967,-0.183,2393155
-0.006,0.238,0.968,-0.305,2393159
-0.006,0.238,0.968,-0.122,2393163
-0.006,0.237,0.967,-0.183,2393167
-0.006,0.237,0.967,-0.244,2393170
-0.006,0.237,0.967,-0.244,2393174
-0.007,0.236,0.967,-0.122,2393178
-0.007,0.236,0.967,-0.122,2393182
-0.006,0.236,0.969,-0.305,2393186
-0.006,0.236,0.969,-0.244,2393190
-0.006,0.236,0.969,-0.244,2393194
-0.004,0.236,0.969,-0.305,2393198
-0.004,0.236,0.969,-0.183,2393202
-0.005,0.236,0.968,-0.183,2393206
-0.005,0.236,0.968,-0.244,2393210
-0.005,0.236,0.968,-0.244,2393214
-0.007,0.236,0.967,-0.183,2393218
-0.007,0.236,0.967,-0.183,2393222
-0.007,0.236,0.967,-0.061,2393226
-0.007,0.236,0.967,-0.183,2393230
-0.007,0.236,0.967,-0.183,2393234
-0.004,0.238,0.968,-0.122,2393238
-0.004,0.238,0.968,-0.183,2393242
-0.007,0.238,0.969,-0.183,2393246
-0.007,0.238,0.969,-0.183,2393250
-0.007,0.238,0.969,-0.183,2393254
-0.007,0.239,0.968,-0.122,2393258
-0.007,0.239,0.968,-0.305,2393262
-0.005,0.24,0.968,-0.122,2393266
-0.005,0.24,0.968,-0.061,2393270
-0.005,0.24,0.968,-0.061,2393274
-0.005,0.239,0.968,-0.305,2393278
-0.005,0.239,0.968,-0.244,2393282
-0.006,0.238,0.968,-0.183,2393286
-0.006,0.238,0.968,-0.244,2393290
-0.006,0.238,0.968,-0.244,2393294
-0.005,0.24,0.967,-0.183,2393298
-0.005,0.24,0.967,-0.183,2393302
-0.006,0.239,0.968,-0.122,2393306
-0.006,0.239,0.968,-0.122,2393310
-0.006,0.239,0.968,-0.122,2393314
-0.005,0.239,0.968,-0.061,2393318
-0.005,0.239,0.968,-0.061,2393322
-0.004,0.24,0.966,-0.122,2393326
-0.004,0.24,0.966,-0.305,2393330
-0.004,0.24,0.966,-0.305,2393333
-0.006,0.239,0.968,-0.183,2393337
-0.006,0.239,0.968,-0.244,2393341
-0.005,0.238,0.966,-0.305,2393345
-0.005,0.238,0.966,-0.305,2393349
-0.005,0.238,0.966,-0.305,2393353
-0.005,0.237,0.969,-0.122,2393357
-0.005,0.237,0.969,-0.122,2393361
-0.006,0.239,0.968,-0.183,2393365
-0.006,0.239,0.968,-0.244,2393369
-0.006,0.239,0.968,-0.244,2393373
-0.007,0.238,0.967,-0.244,2393377
-0.007,0.238,0.967,-0.244,2393381
-0.007,0.238,0.966,-0.122,2393385
-0.007,0.238,0.966,-0.122,2393389
-0.005,0.237,0.968,-0.122,2393393
-0.005,0.237,0.968,-0.122,2393397
-0.005,0.237,0.968,-0.061,2393401
-0.006,0.236,0.968,-0.122,2393405
-0.006,0.236,0.968,-0.183,2393409
-0.007,0.236,0.969,-0.183,2393413
-0.007,0.236,0.969,-0.183,2393417
-0.007,0.236,0.969,-0.244,2393421
-0.005,0.236,0.968,-0.183,2393425
-0.005,0.236,0.968,-0.122,2393429
-0.008,0.237,0.969,-0.305,2393433
-0.008,0.237,0.969,-0.305,2393437
-0.008,0.237,0.969,-0.183,2393441
-0.006,0.238,0.967,0.0,2393445
-0.006,0.238,0.967,-0.061,2393449
-0.006,0.237,0.967,-0.061,2393453
-0.006,0.237,0.967,-0.061,2393457
-0.006,0.237,0.967,-0.183,2393461
-0.007,0.239,0.967,-0.122,2393465
-0.007,0.239,0.967,-0.183,2393468
-0.007,0.239,0.966,-0.183,2393472
-0.007,0.239,0.966,-0.183,2393476
-0.007,0.239,0.966,-0.122,2393480
-0.007,0.238,0.967,-0.183,2393484
-0.007,0.238,0.967,-0.244,2393488
-0.006,0.238,0.968,-0.305,2393492
-0.006,0.238,0.968,-0.305,2393496
-0.006,0.238,0.968,-0.183,2393500
-0.004,0.24,0.967,-0.183,2393504
-0.004,0.24,0.967,-0.183,2393508
-0.006,0.24,0.968,-0.183,2393512
-0.006,0.24,0.968,-0.183,2393516
-0.006,0.24,0.968,-0.061,2393520
-0.004,0.24,0.966,-0.061,2393524
-0.004,0.24,0.966,-0.183,2393528
-0.006,0.24,0.968,-0.183,2393532
-0.006,0.24,0.968,-0.183,2393536
-0.006,0.24,0.968,-0.122,2393540
-0.005,0.239,0.967,-0.244,2393544
-0.005,0.239,0.967,-0.305,2393548
-0.004,0.239,0.968,-0.305,2393552
-0.004,0.239,0.968,-0.305,2393556
-0.004,0.239,0.968,-0.183,2393560
-0.003,0.239,0.967,-0.183,2393564
-0.003,0.239,0.967,-0.244,2393568
-0.005,0.239,0.968,-0.244,2393572
-0.005,0.239,0.968,-0.244,2393576
-0.005,0.239,0.968,-0.244,2393580
-0.006,0.239,0.969,-0.305,2393584
-0.006,0.239,0.969,-0.305,2393588
-0.005,0.238,0.966,-0.122,2393592
-0.005,0.238,0.966,-0.122,2393596
-0.005,0.238,0.966,-0.305,2393600
-0.006,0.237,0.967,-0.122,2393604
-0.006,0.237,0.967,-0.244,2393608
-0.006,0.238,0.969,-0.183,2393612
-0.006,0.238,0.969,-0.183,2393615
-0.006,0.238,0.969,-0.122,2393619
-0.005,0.238,0.968,-0.122,2393623
-0.005,0.238,0.968,-0.183,2393627
-0.004,0.236,0.969,-0.122,2393631
-0.004,0.236,0.969,-0.122,2393635
-0.004,0.236,0.969,-0.244,2393639
-0.007,0.236,0.969,-0.122,2393643
-0.007,0.236,0.969,-0.244,2393647
-0.006,0.236,0.97,-0.244,2393651
-0.006,0.236,0.97,-0.244,2393655
-0.006,0.236,0.97,-0.122,2393659
-0.005,0.236,0.968,-0.183,2393663
-0.005,0.236,0.968,-0.122,2393667
-0.007,0.236,0.968,-0.122,2393671
-0.007,0.236,0.968,-0.122,2393675
-0.007,0.236,0.968,-0.183,2393679
-0.005,0.238,0.969,-0.183,2393683
-0.005,0.238,0.969,-0.427,2393687
-0.006,0.239,0.967,-0.122,2393691
-0.006,0.239,0.967,-0.122,2393695
-0.006,0.239,0.967,-0.122,2393699
-0.005,0.239,0.966,-0.244,2393703
-0.005,0.239,0.966,-0.244,2393707
-0.005,0.238,0.968,-0.183,2393711
-0.005,0.238,0.968,-0.183,2393715
-0.005,0.238,0.968,-0.183,2393719
-0.006,0.238,0.967,-0.122,2393723
-0.006,0.238,0.967,-0.122,2393727
-0.006,0.237,0.969,-0.183,2393731
-0.006,0.237,0.969,-0.183,2393735
-0.006,0.237,0.969,-0.122,2393739
-0.005,0.239,0.968,-0.122,2393743
-0.005,0.239,0.968,-0.183,2393747
-0.005,0.238,0.966,-0.061,2393751
-0.005,0.238,0.966,-0.061,2393755
-0.005,0.238,0.966,-0.183,2393759
-0.005,0.237,0.967,-0.183,2393762
-0.005,0.237,0.967,-0.244,2393766
-0.006,0.238,0.97,-0.183,2393770
-0.006,0.238,0.97,-0.183,2393774
-0.006,0.238,0.97,-0.122,2393778
-0.005,0.239,0.968,-0.122,2393782
-0.005,0.239,0.968,-0.244,2393786
-0.004,0.239,0.967,-0.366,2393790
-0.004,0.239,0.967,-0.366,2393794
-0.004,0.239,0.967,-0.122,2393798
-0.005,0.237,0.968,-0.122,2393802
-0.005,0.237,0.968,-0.183,2393806
-0.006,0.239,0.968,-0.183,2393810
-0.006,0.239,0.968,-0.183,2393814
-0.006,0.239,0.968,-0.183,2393818
-0.007,0.239,0.967,-0.244,2393822
-0.007,0.239,0.967,-0.244,2393826
-0.007,0.238,0.967,-0.061,2393830
-0.007,0.238,0.967,-0.061,2393834
-0.007,0.238,0.967,-0.061,2393838
-0.006,0.237,0.967,-0.061,2393842
-0.006,0.237,0.967,-0.061,2393846
-0.006,0.236,0.968,-0.122,2393850
-0.006,0.236,0.968,-0.122,2393854
-0.006,0.236,0.968,0.0,2393858
-0.003,0.237,0.968,-0.244,2393862
-0.003,0.237,0.968,-0.183,2393866
-0.005,0.236,0.968,-0.244,2393870
-0.005,0.236,0.968,-0.244,2393874
-0.005,0.236,0.968,-0.305,2393878
-0.006,0.237,0.968,-0.183,2393882
-0.006,0.237,0.968,-0.122,2393886
-0.005,0.238,0.967,-0.122,2393889
-0.005,0.238,0.967,-0.122,2393893
-0.005,0.238,0.967,-0.244,2393897
-0.005,0.238,0.968,-0.244,2393901
-0.005,0.238,0.968,-0.122,2393905
-0.005,0.237,0.968,-0.061,2393909
-0.005,0.237,0.968,-0.061,2393913
-0.005,0.237,0.968,-0.122,2393917
-0.006,0.239,0.968,-0.122,2393921
-0.006,0.239,0.968,-0.122,2393925
-0.007,0.238,0.968,-0.244,2393929
-0.007,0.238,0.968,-0.244,2393933
-0.007,0.238,0.968,-0.183,2393937
-0.006,0.238,0.967,-0.244,2393941
-0.006,0.238,0.967,-0.305,2393945
-0.004,0.24,0.966,-0.183,2393949
-0.004,0.24,0.966,-0.183,2393953
-0.004,0.24,0.966,-0.305,2393957
-0.007,0.24,0.967,-0.366,2393961
-0.007,0.24,0.967,-0.244,2393965
-0.007,0.238,0.968,-0.183,2393969
-0.007,0.238,0.968,-0.183,2393973
-0.007,0.238,0.968,-0.305,2393977
-0.006,0.239,0.968,-0.244,2393981
-0.006,0.239,0.968,-0.183,2393985
-0.004,0.239,0.966,-0.122,2393989
-0.004,0.239,0.966,-0.122,2393993
-0.004,0.239,0.966,-0.122,2393997
-0.004,0.239,0.966,-0.061,2394001
-0.004,0.239,0.966,-0.183,2394005
-0.005,0.239,0.966,-0.183,2394009
-0.005,0.239,0.966,-0.183,2394013
-0.005,0.239,0.966,-0.183,2394017
-0.005,0.238,0.967,-0.183,2394021
-0.005,0.238,0.967,-0.183,2394025
-0.007,0.239,0.969,-0.183,2394029
-0.007,0.239,0.969,-0.183,2394033
-0.007,0.239,0.969,-0.122,2394037
-0.006,0.238,0.966,-0.244,2394040
-0.006,0.238,0.966,-0.183,2394044
-0.006,0.237,0.967,-0.122,2394048
-0.006,0.237,0.967,-0.122,2394052
-0.006,0.237,0.967,-0.305,2394056
-0.007,0.237,0.968,-0.244,2394060
-0.007,0.237,0.968,-0.122,2394064
-0.006,0.237,0.968,-0.122,2394068
-0.006,0.237,0.968,-0.122,2394072
-0.006,0.237,0.968,-0.122,2394076
-0.005,0.238,0.968,-0.183,2394080
-0.005,0.238,0.968,-0.305,2394084
-0.005,0.238,0.966,-0.305,2394088
-0.005,0.238,0.966,-0.305,2394092
-0.005,0.238,0.966,-0.244,2394096
-0.006,0.238,0.968,-0.122,2394100
-0.006,0.238,0.968,-0.122,2394104
-0.005,0.237,0.967,-0.305,2394108
-0.005,0.237,0.967,-0.305,2394112
-0.005,0.237,0.967,-0.183,2394116
-0.006,0.238,0.967,-0.244,2394120
-0.006,0.238,0.967,-0.305,2394124
-0.007,0.238,0.967,-0.305,2394128
-0.007,0.238,0.967,-0.305,2394132
-0.007,0.238,0.967,-0.122,2394136
-0.007,0.238,0.967,-0.122,2394140
-0.007,0.238,0.967,-0.183,2394144
-0.007,0.236,0.966,-0.183,2394148
-0.007,0.236,0.966,-0.183,2394152
-0.007,0.236,0.966,-0.061,2394156
-0.007,0.236,0.969,-0.122,2394160
-0.007,0.236,0.969,-0.122,2394164
-0.007,0.239,0.968,-0.122,2394168
-0.007,0.239,0.968,-0.122,2394172
-0.007,0.239,0.968,-0.183,2394176
-0.007,0.239,0.968,-0.183,2394180
-0.007,0.239,0.968,-0.244,2394184
-0.007,0.239,0.968,-0.305,2394188
-0.007,0.239,0.968,-0.305,2394192
-0.007,0.239,0.968,-0.183,2394196
-0.007,0.239,0.97,-0.122,2394199
-0.007,0.239,0.97,-0.183,2394203
-0.005,0.24,0.969,-0.183,2394207
-0.005,0.24,0.969,-0.183,2394211
-0.005,0.24,0.969,-0.244,2394215
-0.006,0.24,0.967,-0.183,2394219
-0.006,0.24,0.967,-0.244,2394223
-0.008,0.238,0.965,-0.244,2394227
-0.008,0.238,0.965,-0.244,2394231
-0.008,0.238,0.965,-0.122,2394235
-0.006,0.24,0.966,-0.244,2394239
-0.006,0.24,0.966,-0.122,2394243
-0.005,0.239,0.967,-0.122,2394247
-0.005,0.239,0.967,-0.122,2394251
-0.005,0.239,0.967,-0.244,2394255
-0.004,0.238,0.967,-0.183,2394259
-0.004,0.238,0.967,-0.244,2394263
-0.004,0.238,0.968,-0.366,2394267
-0.004,0.238,0.968,-0.366,2394271
-0.004,0.238,0.968,-0.244,2394275
-0.006,0.237,0.967,-0.122,2394279
-0.006,0.237,0.967,-0.061,2394283
-0.005,0.238,0.968,-0.183,2394287
-0.005,0.238,0.968,-0.244,2394291
-0.005,0.238,0.968,-0.244,2394295
-0.006,0.237,0.969,-0.244,2394299
-0.006,0.237,0.969,-0.183,2394303
-0.007,0.238,0.968,-0.122,2394307
-0.007,0.238,0.968,-0.122,2394311
-0.007,0.238,0.968,-0.122,2394315
-0.005,0.238,0.969,-0.122,2394319
-0.005,0.238,0.969,-0.122,2394323
-0.006,0.238,0.967,-0.122,2394327
-0.006,0.238,0.967,-0.122,2394331
-0.006,0.238,0.967,-0.122,2394335
-0.007,0.239,0.969,-0.183,2394339
-0.007,0.239,0.969,-0.122,2394343
-0.006,0.238,0.97,-0.061,2394347
-0.006,0.238,0.97,-0.244,2394351
-0.006,0.238,0.97,-0.244,2394354
-0.004,0.238,0.967,-0.244,2394358
-0.004,0.238,0.967,-0.061,2394362
-0.005,0.237,0.97,-0.061,2394366
-0.005,0.237,0.97,-0.183,2394370
-0.005,0.237,0.97,-0.183,2394374
-0.007,0.238,0.969,-0.244,2394378
-0.007,0.238,0.969,-0.061,2394382
-0.007,0.237,0.966,-0.061,2394386
-0.007,0.237,0.966,-0.366,2394390
-0.007,0.237,0.966,-0.366,2394394
-0.007,0.238,0.965,-0.244,2394398
-0.007,0.238,0.965,-0.183,2394402
-0.008,0.24,0.967,-0.183,2394406
-0.008,0.24,0.967,-0.183,2394410
-0.008,0.24,0.967,-0.183,2394414
-0.007,0.238,0.972,-0.366,2394418
-0.007,0.238,0.972,-0.305,2394422
-0.005,0.239,0.965,-0.122,2394426
-0.005,0.239,0.965,-0.244,2394430
-0.005,0.239,0.965,-0.244,2394434
-0.006,0.238,0.966,-0.183,2394438
-0.006,0.238,0.966,-0.183,2394442
-0.003,0.239,0.966,-0.122,2394446
-0.003,0.239,0.966,-0.244,2394450
-0.003,0.239,0.966,-0.244,2394454
-0.005,0.24,0.969,-0.061,2394458
-0.005,0.24,0.969,-0.122,2394462
-0.005,0.238,0.968,-0.061,2394466
-0.005,0.238,0.968,-0.122,2394470
-0.005,0.238,0.968,-0.122,2394474
-0.005,0.238,0.965,-0.183,2394478
-0.005,0.238,0.965,-0.183,2394482
-0.005,0.24,0.967,-0.244,2394486
-0.005,0.24,0.967,-0.183,2394490
-0.005,0.24,0.967,-0.183,2394494
-0.005,0.239,0.967,-0.244,2394498
-0.005,0.239,0.967,-0.183,2394502
-0.006,0.238,0.967,-0.122,2394505
-0.006,0.238,0.967,-0.183,2394509
-0.006,0.238,0.967,-0.183,2394513
-0.004,0.238,0.968,-0.244,2394517
-0.004,0.238,0.968,-0.244,2394521
-0.006,0.24,0.969,-0.183,2394525
-0.006,0.24,0.969,-0.183,2394529
-0.006,0.24,0.969,-0.183,2394533
-0.007,0.239,0.966,-0.183,2394537
-0.007,0.239,0.966,-0.305,2394541
-0.008,0.237,0.964,-0.244,2394545
-0.008,0.237,0.964,-0.305,2394549
-0.008,0.237,0.964,-0.305,2394553
-0.006,0.236,0.967,-0.183,2394557
-0.006,0.236,0.967,-0.061,2394561
-0.005,0.237,0.967,-0.183,2394565
-0.005,0.237,0.967,-0.183,2394569
-0.005,0.237,0.967,-0.183,2394573
-0.006,0.238,0.969,-0.305,2394577
-0.006,0.238,0.969,-0.305,2394581
-0.005,0.236,0.967,-0.305,2394585
-0.005,0.236,0.967,-0.244,2394589
-0.005,0.236,0.967,-0.244,2394593
-0.004,0.237,0.967,-0.183,2394597
-0.004,0.237,0.967,-0.183,2394601
-0.004,0.238,0.967,-0.305,2394605
-0.004,0.238,0.967,-0.183,2394609
-0.004,0.238,0.967,-0.183,2394613
-0.004,0.238,0.969,-0.183,2394617
-0.004,0.238,0.969,-0.183,2394621
-0.004,0.238,0.97,-0.183,2394625
-0.004,0.238,0.97,-0.183,2394629
-0.004,0.238,0.97,-0.183,2394633
-0.004,0.238,0.968,-0.061,2394637
-0.004,0.238,0.968,-0.183,2394641
-0.005,0.239,0.968,-0.305,2394645
-0.005,0.239,0.968,-0.061,2394649
-0.005,0.239,0.968,-0.061,2394653
-0.007,0.238,0.968,-0.122,2394656
-0.007,0.238,0.968,-0.122,2394660
-0.005,0.238,0.966,-0.122,2394664
-0.005,0.238,0.966,-0.244,2394668
-0.005,0.238,0.966,-0.244,2394672
-0.005,0.238,0.967,-0.183,2394676
-0.005,0.238,0.967,-0.244,2394680
-0.005,0.239,0.968,-0.183,2394684
-0.005,0.239,0.968,-0.061,2394688
-0.005,0.239,0.968,-0.061,2394692
-0.005,0.238,0.968,-0.061,2394696
-0.005,0.238,0.968,-0.244,2394700
-0.006,0.237,0.968,-0.122,2394704
-0.006,0.237,0.968,-0.244,2394708
-0.006,0.237,0.968,-0.244,2394712
-0.008,0.236,0.967,-0.183,2394716
-0.008,0.236,0.967,-0.183,2394720
-0.005,0.235,0.971,-0.244,2394724
-0.005,0.235,0.971,-0.244,2394728
-0.005,0.235,0.971,-0.244,2394732
-0.006,0.235,0.969,-0.122,2394736
-0.006,0.235,0.969,-0.305,2394740
-0.006,0.236,0.967,-0.122,2394744
-0.006,0.236,0.967,-0.183,2394748
-0.006,0.236,0.967,-0.183,2394752
-0.006,0.238,0.967,-0.305,2394756
-0.006,0.238,0.967,-0.244,2394760
-0.008,0.238,0.968,-0.122,2394764
-0.008,0.238,0.968,-0.183,2394768
-0.008,0.238,0.968,-0.183,2394772
-0.007,0.239,0.969,-0.183,2394776
-0.007,0.239,0.969,-0.244,2394780
-0.006,0.24,0.966,-0.122,2394784
-0.006,0.24,0.966,-0.122,2394788
-0.006,0.24,0.966,-0.122,2394792
-0.006,0.238,0.966,-0.061,2394796
-0.006,0.238,0.966,-0.122,2394800
-0.006,0.237,0.968,-0.305,2394803
-0.006,0.237,0.968,-0.244,2394807
-0.006,0.237,0.968,-0.244,2394811
-0.006,0.238,0.968,-0.183,2394815
-0.006,0.238,0.968,-0.244,2394819
-0.006,0.238,0.967,-0.183,2394823
-0.006,0.238,0.967,-0.061,2394827
-0.006,0.238,0.967,-0.061,2394831
-0.006,0.238,0.967,-0.183,2394835
-0.006,0.238,0.967,-0.305,2394839
-0.006,0.238,0.968,-0.183,2394843
-0.006,0.238,0.968,-0.305,2394847
-0.006,0.238,0.968,-0.305,2394851
-0.006,0.239,0.967,-0.244,2394855
-0.006,0.239,0.967,-0.183,2394859
-0.005,0.237,0.966,-0.244,2394863
-0.005,0.237,0.966,-0.183,2394867
-0.005,0.237,0.966,-0.183,2394871
-0.007,0.237,0.967,-0.183,2394875
-0.007,0.237,0.967,-0.061,2394879
-0.005,0.24,0.966,-0.183,2394883
-0.005,0.24,0.966,-0.427,2394887
-0.005,0.24,0.966,-0.427,2394891
-0.005,0.239,0.967,-0.244,2394895
-0.005,0.239,0.967,-0.183,2394899
-0.005,0.238,0.967,-0.183,2394903
-0.005,0.238,0.967,-0.305,2394907
-0.005,0.238,0.967,-0.305,2394911
-0.007,0.239,0.969,-0.183,2394915
-0.007,0.239,0.969,-0.122,2394919
-0.006,0.238,0.968,-0.122,2394923
-0.006,0.238,0.968,-0.183,2394927
-0.006,0.238,0.968,-0.183,2394931
-0.007,0.237,0.968,-0.305,2394935
-0.007,0.237,0.968,-0.122,2394939
-0.005,0.237,0.967,-0.122,2394943
-0.005,0.237,0.967,-0.122,2394946
-0.005,0.237,0.967,-0.122,2394950
-0.004,0.238,0.968,-0.244,2394954
-0.004,0.238,0.968,-0.244,2394958
-0.005,0.237,0.968,-0.061,2394962
-0.005,0.237,0.968,-0.061,2394966
-0.005,0.237,0.968,-0.061,2394970
-0.006,0.237,0.968,-0.244,2394974
-0.006,0.237,0.968,-0.122,2394978
-0.008,0.238,0.968,-0.122,2394982
-0.008,0.238,0.968,-0.305,2394986
-0.008,0.238,0.968,-0.305,2394990
-0.007,0.238,0.967,-0.183,2394994
-0.007,0.238,0.967,-0.122,2394998
-0.007,0.238,0.967,-0.122,2395002
-0.007,0.238,0.967,-0.183,2395006
-0.007,0.238,0.967,-0.183,2395010
-0.007,0.238,0.968,-0.244,2395014
-0.007,0.238,0.968,-0.122,2395018
-0.007,0.237,0.967,-0.122,2395022
-0.007,0.237,0.967,-0.244,2395026
-0.007,0.237,0.967,-0.244,2395030
-0.005,0.24,0.968,-0.061,2395034
-0.005,0.24,0.968,-0.122,2395038
-0.005,0.24,0.966,-0.183,2395042
-0.005,0.24,0.966,0.0,2395046
-0.005,0.24,0.966,0.0,2395050
-0.006,0.24,0.967,-0.122,2395054
-0.006,0.24,0.967,-0.183,2395058
-0.006,0.24,0.967,-0.183,2395062
-0.006,0.24,0.967,-0.366,2395066
-0.006,0.24,0.967,-0.366,2395070
-0.006,0.24,0.968,-0.122,2395074
-0.006,0.24,0.968,0.0,2395078
