Acc_X,Acc_Y,Acc_Z,Rot_Z,Millis
-0.195,-1.02,0.092,-18.066,1780789
-0.195,-1.02,0.092,-16.052,1780793
-0.094,-0.948,0.148,-11.597,1780797
-0.094,-0.948,0.148,-11.597,1780801
-0.094,-0.948,0.148,-5.31,1780805
-0.129,-0.973,0.139,-5.798,1780809
-0.129,-0.973,0.139,-7.141,1780813
-0.21,-1.042,0.016,-8.179,1780817
-0.21,-1.042,0.016,-8.179,1780821
-0.21,-1.042,0.016,-13.062,1780825
-0.289,-1.126,-0.034,-18.86,1780829
-0.289,-1.126,-0.034,-26.245,1780833
-0.304,-1.141,-0.019,-34.119,1780837
-0.304,-1.141,-0.019,-34.119,1780841
-0.304,-1.141,-0.019,-38.391,1780845
-0.217,-1.061,-0.024,-40.1,1780849
-0.217,-1.061,-0.024,-41.199,1780853
-0.131,-0.988,-0.055,-43.396,1780857
-0.131,-0.988,-0.055,-42.908,1780861
-0.131,-0.988,-0.055,-42.908,1780865
-0.062,-0.954,0.054,-39.673,1780869
-0.062,-0.954,0.054,-33.813,1780873
-0.083,-0.98,0.199,-32.166,1780877
-0.083,-0.98,0.199,-32.837,1780881
-0.083,-0.98,0.199,-32.837,1780885
-0.137,-1.018,0.136,-36.865,1780889
-0.137,-1.018,0.136,-36.56,1780894
-0.156,-1.011,-0.068,-42.908,1780898
-0.156,-1.011,-0.068,-48.828,1780902
-0.156,-1.011,-0.068,-48.828,1780906
-0.114,-0.973,-0.043,-48.828,1780910
-0.114,-0.973,-0.043,-47.791,1780914
-0.096,-0.97,0.046,-47.302,1780918
-0.096,-0.97,0.046,-47.424,1780922
-0.047,-0.97,0.094,-48.218,1780926
-0.047,-0.97,0.094,-48.218,1780930
-0.047,-0.97,0.094,-41.992,1780934
0.056,-0.964,-0.167,-23.56,1780938
0.056,-0.964,-0.167,-25.879,1780942
-0.006,-0.795,0.15,-32.654,1780946
-0.006,-0.795,0.15,-32.654,1780950
-0.006,-0.795,0.15,-42.847,1780954
0.052,-0.727,0.622,-44.922,1780958
0.052,-0.727,0.622,-38.452,1780962
0.069,-0.844,0.435,-32.532,1780966
0.069,-0.844,0.435,-32.532,1780970
0.069,-0.844,0.435,-22.949,1780974
-0.011,-0.907,0.165,-15.686,1780978
-0.011,-0.907,0.165,-16.296,1780982
-0.098,-0.908,0.14,-23.499,1780986
-0.098,-0.908,0.14,-23.499,1780990
-0.098,-0.908,0.14,-21.301,1780994
-0.07,-0.907,0.339,-14.526,1780998
-0.07,-0.907,0.339,-13.428,1781002
-0.08,-0.854,0.611,-10.681,1781006
-0.08,-0.854,0.611,-10.681,1781010
-0.08,-0.854,0.611,-1.404,1781014
-0.006,-0.789,0.795,14.343,1781018
-0.006,-0.789,0.795,20.264,1781022
-0.029,-0.744,0.981,12.085,1781026
-0.029,-0.744,0.981,0.244,1781030
-0.029,-0.744,0.981,0.244,1781034
0.036,-0.688,1.122,-4.395,1781038
0.036,-0.688,1.122,-5.31,1781042
0.053,-0.745,0.858,-7.324,1781046
0.053,-0.745,0.858,-19.775,1781050
0.053,-0.745,0.858,-19.775,1781054
0.073,-0.787,0.723,-21.423,1781058
0.073,-0.787,0.723,-7.69,1781062
0.085,-0.803,0.331,1.343,1781066
0.085,-0.803,0.331,-2.991,1781070
0.085,-0.803,0.331,-2.991,1781074
0.021,-0.843,0.349,-0.854,1781078
0.021,-0.843,0.349,13.489,1781082
0.006,-0.847,0.673,23.621,1781086
0.006,-0.847,0.673,23.865,1781090
0.006,-0.847,0.673,23.865,1781094
-0.173,-0.932,0.521,16.357,1781098
-0.173,-0.932,0.521,7.874,1781102
-0.131,-0.956,0.535,11.78,1781106
-0.131,-0.956,0.535,25.574,1781110
-0.131,-0.956,0.535,25.574,1781114
-0.03,-0.874,0.65,38.757,1781118
-0.03,-0.874,0.65,44.678,1781122
-0.046,-0.805,0.733,43.884,1781126
-0.046,-0.805,0.733,38.33,1781129
-0.046,-0.805,0.733,38.33,1781134
0.007,-0.753,0.741,35.217,1781138
0.007,-0.753,0.741,34.058,1781141
0.079,-0.667,0.714,37.17,1781145
0.079,-0.667,0.714,43.579,1781149
0.079,-0.667,0.714,43.579,1781153
0.072,-0.686,0.625,57.373,1781157
0.072,-0.686,0.625,70.068,1781161
-0.099,-0.752,0.66,69.031,1781165
-0.099,-0.752,0.66,50.11,1781169
-0.099,-0.752,0.66,50.11,1781173
-0.224,-0.788,0.705,30.09,1781177
-0.224,-0.788,0.705,16.357,1781182
-0.142,-0.786,0.65,9.399,1781186
-0.142,-0.786,0.65,9.277,1781190
-0.029,-0.732,0.562,13.794,1781194
-0.029,-0.732,0.562,13.794,1781198
-0.029,-0.732,0.562,19.104,1781202
0.017,-0.693,0.531,25.94,1781206
0.017,-0.693,0.531,34.668,1781210
0.04,-0.658,0.522,42.358,1781214
0.04,-0.658,0.522,42.358,1781218
0.04,-0.658,0.522,49.5,1781222
0.071,-0.616,0.556,60.486,1781225
0.071,-0.616,0.556,70.984,1781229
0.078,-0.546,0.543,76.904,1781233
0.078,-0.546,0.543,76.904,1781237
0.078,-0.546,0.543,81.97,1781241
0.106,-0.465,0.436,87.219,1781245
0.106,-0.465,0.436,98.022,1781249
0.146,-0.425,0.409,114.807,1781253
0.146,-0.425,0.409,114.807,1781257
0.146,-0.425,0.409,135.254,1781262
0.031,-0.467,0.491,153.381,1781266
0.031,-0.467,0.491,168.274,1781270
-0.07,-0.452,0.616,179.993,1781274
-0.07,-0.452,0.616,179.993,1781278
-0.07,-0.452,0.616,191.895,1781282
-0.069,-0.415,0.794,214.478,1781286
-0.069,-0.415,0.794,243.53,1781290
-0.267,-0.477,1.08,267.212,1781294
-0.267,-0.477,1.08,279.175,1781298
-0.267,-0.477,1.08,279.175,1781302
-0.809,-0.645,1.597,264.587,1781306
-0.809,-0.645,1.597,214.539,1781310
-1.319,-0.816,1.908,132.507,1781314
-1.319,-0.816,1.908,38.696,1781318
-1.319,-0.816,1.908,38.696,1781322
-0.893,-0.683,1.504,-3.479,1781326
-0.893,-0.683,1.504,-10.681,1781330
-0.307,-0.468,0.752,-12.817,1781334
-0.307,-0.468,0.752,-2.991,1781338
-0.307,-0.468,0.752,-2.991,1781342
-0.147,-0.401,0.594,6.226,1781346
-0.147,-0.401,0.594,12.573,1781350
-0.178,-0.433,0.731,20.752,1781354
-0.178,-0.433,0.731,26.062,1781358
-0.178,-0.433,0.731,26.062,1781362
-0.246,-0.466,0.759,29.114,1781366
-0.246,-0.466,0.759,32.227,1781370
-0.271,-0.456,0.703,35.706,1781374
-0.271,-0.456,0.703,41.138,1781378
-0.271,-0.456,0.703,41.138,1781382
-0.289,-0.443,0.624,46.936,1781386
-0.289,-0.443,0.624,53.406,1781390
-0.377,-0.448,0.628,56.702,1781394
-0.377,-0.448,0.628,57.678,1781398
-0.337,-0.397,0.767,62.378,1781402
-0.337,-0.397,0.767,62.378,1781406
-0.337,-0.397,0.767,67.993,1781410
-0.297,-0.342,0.974,71.899,1781414
-0.297,-0.342,0.974,73.669,1781418
-0.486,-0.416,1.286,70.19,1781422
-0.486,-0.416,1.286,70.19,1781426
-0.486,-0.416,1.286,52.368,1781430
-0.698,-0.472,1.468,15.747,1781434
-0.698,-0.472,1.468,-18.066,1781438
-0.443,-0.359,1.143,-24.658,1781442
-0.443,-0.359,1.143,-24.658,1781446
-0.443,-0.359,1.143,-23.621,1781450
-0.209,-0.27,0.839,-19.775,1781454
-0.209,-0.27,0.839,-12.207,1781458
-0.169,-0.265,0.812,-4.761,1781462
-0.169,-0.265,0.812,-4.761,1781466
-0.169,-0.265,0.812,-0.122,1781470
-0.314,-0.338,1.016,-0.061,1781474
-0.314,-0.338,1.016,-5.127,1781478
-0.474,-0.399,1.146,-13.428,1781482
-0.474,-0.399,1.146,-13.428,1781486
-0.474,-0.399,1.146,-19.226,1781490
-0.417,-0.373,1.041,-20.996,1781494
-0.417,-0.373,1.041,-20.325,1781498
-0.295,-0.332,0.902,-19.104,1781502
-0.295,-0.332,0.902,-17.7,1781506
-0.295,-0.332,0.902,-17.7,1781510
-0.225,-0.332,0.785,-15.076,1781514
-0.225,-0.332,0.785,-10.437,1781518
-0.25,-0.373,0.721,-7.019,1781522
-0.25,-0.373,0.721,-4.883,1781526
-0.25,-0.373,0.721,-4.883,1781530
-0.306,-0.395,0.737,-3.54,1781534
-0.306,-0.395,0.737,-1.892,1781538
-0.319,-0.363,0.833,2.136,1781542
-0.319,-0.363,0.833,3.723,1781546
-0.319,-0.363,0.833,3.723,1781550
-0.405,-0.378,1.053,0.305,1781554
-0.405,-0.378,1.053,-2.808,1781558
-0.376,-0.367,1.056,-3.357,1781562
-0.376,-0.367,1.056,-3.113,1781566
-0.376,-0.367,1.056,-3.113,1781570
-0.268,-0.342,0.955,-0.671,1781574
-0.268,-0.342,0.955,2.319,1781578
-0.21,-0.358,0.892,5.615,1781582
-0.21,-0.358,0.892,8.911,1781586
-0.21,-0.358,0.892,8.911,1781590
-0.243,-0.406,0.84,10.254,1781594
-0.243,-0.406,0.84,9.46,1781598
-0.292,-0.428,0.837,8.423,1781602
-0.292,-0.428,0.837,7.141,1781606
-0.292,-0.428,0.837,7.141,1781610
-0.305,-0.394,0.915,6.47,1781614
-0.305,-0.394,0.915,6.836,1781618
-0.395,-0.4,1.08,4.7,1781622
-0.395,-0.4,1.08,-0.61,1781626
-0.395,-0.4,1.08,-0.61,1781630
-0.416,-0.391,1.12,-5.737,1781634
-0.416,-0.391,1.12,-7.324,1781638
-0.293,-0.345,1.036,-6.775,1781642
-0.293,-0.345,1.036,-5.005,1781646
-0.293,-0.345,1.036,-5.005,1781650
-0.197,-0.345,0.992,-2.93,1781654
-0.197,-0.345,0.992,-1.404,1781658
-0.162,-0.379,0.901,0.427,1781662
-0.162,-0.379,0.901,2.075,1781666
-0.18,-0.427,0.786,3.784,1781670
-0.18,-0.427,0.786,3.784,1781674
-0.18,-0.427,0.786,5.432,1781678
-0.222,-0.455,0.751,6.958,1781682
-0.222,-0.455,0.751,8.484,1781686
-0.267,-0.472,0.838,8.606,1781690
-0.267,-0.472,0.838,8.606,1781694
-0.267,-0.472,0.838,6.836,1781698
-0.282,-0.486,0.872,4.944,1781702
-0.282,-0.486,0.872,2.502,1781706
-0.261,-0.488,0.888,-0.305,1781710
-0.261,-0.488,0.888,-0.305,1781714
-0.261,-0.488,0.888,-4.456,1781718
-0.23,-0.476,0.897,-7.385,1781722
-0.23,-0.476,0.897,-6.409,1781726
-0.257,-0.506,0.885,-4.578,1781730
-0.257,-0.506,0.885,-4.578,1781734
-0.257,-0.506,0.885,-2.563,1781738
-0.47,-0.601,0.868,-3.479,1781742
-0.47,-0.601,0.868,-11.658,1781746
-0.546,-0.619,0.692,-19.897,1781750
-0.546,-0.619,0.692,-19.897,1781754
-0.546,-0.619,0.692,-20.447,1781758
-0.39,-0.601,0.596,-17.029,1781762
-0.39,-0.601,0.596,-14.771,1781766
-0.296,-0.598,0.619,-12.207,1781770
-0.296,-0.598,0.619,-12.207,1781774
-0.296,-0.598,0.619,-7.935,1781778
-0.254,-0.612,0.57,-2.319,1781782
-0.254,-0.612,0.57,2.075,1781786
-0.31,-0.675,0.462,3.235,1781790
-0.31,-0.675,0.462,1.282,1781794
-0.31,-0.675,0.462,1.282,1781798
-0.435,-0.762,0.401,-4.578,1781802
-0.435,-0.762,0.401,-11.414,1781806
-0.461,-0.795,0.343,-15.137,1781810
-0.461,-0.795,0.343,-17.212,1781814
-0.461,-0.795,0.343,-17.212,1781818
-0.433,-0.779,0.335,-17.212,1781822
-0.433,-0.779,0.335,-16.541,1781826
-0.447,-0.778,0.412,-17.334,1781830
-0.447,-0.778,0.412,-18.494,1781834
-0.447,-0.778,0.412,-18.494,1781838
-0.478,-0.793,0.497,-19.897,1781842
-0.478,-0.793,0.497,-21.057,1781846
-0.485,-0.789,0.497,-21.729,1781850
-0.485,-0.789,0.497,-21.79,1781854
-0.485,-0.789,0.497,-21.79,1781858
-0.489,-0.778,0.455,-21.79,1781862
-0.489,-0.778,0.455,-22.461,1781866
-0.573,-0.81,0.516,-26.306,1781870
-0.573,-0.81,0.516,-32.288,1781874
-0.573,-0.81,0.516,-32.288,1781878
-0.587,-0.805,0.574,-38.269,1781882
-0.587,-0.805,0.574,-42.908,1781886
-0.477,-0.744,0.545,-46.57,1781890
-0.477,-0.744,0.545,-48.401,1781894
-0.374,-0.714,0.483,-49.622,1781898
-0.374,-0.714,0.483,-49.622,1781902
-0.374,-0.714,0.483,-50.11,1781906
-0.3,-0.695,0.464,-50.659,1781910
-0.3,-0.695,0.464,-49.194,1781914
-0.234,-0.67,0.494,-46.265,1781918
-0.234,-0.67,0.494,-46.265,1781922
-0.234,-0.67,0.494,-43.274,1781926
-0.218,-0.663,0.565,-39.551,1781930
-0.218,-0.663,0.565,-36.865,1781934
-0.235,-0.663,0.602,-33.508,1781938
-0.235,-0.663,0.602,-33.508,1781942
-0.235,-0.663,0.602,-30.09,1781946
-0.346,-0.711,0.567,-30.029,1781950
-0.346,-0.711,0.567,-33.691,1781954
-0.434,-0.752,0.57,-37.231,1781958
-0.434,-0.752,0.57,-37.231,1781962
-0.434,-0.752,0.57,-41.016,1781966
-0.471,-0.77,0.707,-46.997,1781970
-0.471,-0.77,0.707,-53.284,1781974
-0.438,-0.748,0.759,-58.472,1781978
-0.438,-0.748,0.759,-62.317,1781982
-0.438,-0.748,0.759,-62.317,1781986
-0.312,-0.685,0.688,-63.965,1781990
-0.312,-0.685,0.688,-62.439,1781994
-0.163,-0.617,0.692,-59.753,1781998
-0.163,-0.617,0.692,-56.274,1782002
-0.163,-0.617,0.692,-56.274,1782006
-0.043,-0.553,0.732,-50.964,1782010
-0.043,-0.553,0.732,-44.067,1782014
0.034,-0.514,0.759,-35.767,1782018
0.034,-0.514,0.759,-26.306,1782022
0.034,-0.514,0.759,-26.306,1782026
-0.001,-0.535,0.758,-18.738,1782030
-0.001,-0.535,0.758,-15.869,1782034
-0.08,-0.564,0.696,-15.808,1782038
-0.08,-0.564,0.696,-14.648,1782042
-0.08,-0.564,0.696,-14.648,1782046
-0.079,-0.567,0.674,-12.634,1782050
-0.079,-0.567,0.674,-9.766,1782054
-0.154,-0.605,0.831,-8.423,1782058
-0.154,-0.605,0.831,-10.254,1782062
-0.232,-0.622,0.972,-13.733,1782066
-0.232,-0.622,0.972,-13.733,1782070
-0.232,-0.622,0.972,-15.259,1782074
-0.154,-0.562,1.001,-13.55,1782078
-0.154,-0.562,1.001,-10.315,1782082
-0.076,-0.511,1.03,-5.249,1782086
-0.076,-0.511,1.03,-5.249,1782090
-0.076,-0.511,1.03,0.061,1782094
-0.068,-0.49,1.089,4.883,1782098
-0.068,-0.49,1.089,9.888,1782102
-0.081,-0.495,1.146,14.16,1782106
-0.081,-0.495,1.146,14.16,1782110
-0.081,-0.495,1.146,17.7,1782114
-0.134,-0.535,1.174,19.592,1782118
-0.134,-0.535,1.174,20.63,1782122
-0.168,-0.551,1.063,17.761,1782126
-0.168,-0.551,1.063,17.761,1782130
-0.168,-0.551,1.063,12.085,1782134
-0.129,-0.527,0.834,11.902,1782138
-0.129,-0.527,0.834,13.062,1782142
-0.125,-0.545,0.774,12.695,1782147
-0.125,-0.545,0.774,12.695,1782151
-0.125,-0.545,0.774,12.817,1782155
-0.127,-0.565,0.762,14.709,1782159
-0.127,-0.565,0.762,15.93,1782163
-0.12,-0.576,0.811,17.639,1782167
-0.12,-0.576,0.811,19.531,1782171
-0.12,-0.576,0.811,19.531,1782175
-0.115,-0.583,0.814,22.461,1782179
-0.115,-0.583,0.814,25.818,1782183
-0.178,-0.621,0.761,27.466,1782187
-0.178,-0.621,0.761,26.733,1782191
-0.178,-0.621,0.761,26.733,1782195
-0.239,-0.696,0.8,19.836,1782199
-0.239,-0.696,0.8,13.855,1782203
-0.435,-0.81,0.803,20.203,1782207
-0.435,-0.81,0.803,13.428,1782211
-0.435,-0.81,0.803,13.428,1782215
-0.683,-0.916,0.57,0.732,1782219
-0.683,-0.916,0.57,-8.972,1782223
-0.542,-0.867,0.485,-15.442,1782227
-0.542,-0.867,0.485,-16.479,1782231
-0.542,-0.867,0.485,-16.479,1782235
-0.32,-0.781,0.521,-14.709,1782239
-0.32,-0.781,0.521,-13.062,1782243
-0.251,-0.771,0.431,-11.536,1782247
-0.251,-0.771,0.431,-10.864,1782251
-0.251,-0.771,0.431,-10.864,1782255
-0.299,-0.83,0.302,-11.23,1782259
-0.299,-0.83,0.302,-12.451,1782263
-0.361,-0.872,0.325,-14.832,1782267
-0.361,-0.872,0.325,-16.296,1782271
-0.415,-0.888,0.354,-18.555,1782275
-0.415,-0.888,0.354,-18.555,1782279
-0.415,-0.888,0.354,-21.851,1782283
-0.448,-0.898,0.38,-24.963,1782287
-0.448,-0.898,0.38,-26.794,1782291
-0.443,-0.879,0.435,-29.358,1782295
-0.443,-0.879,0.435,-29.358,1782299
-0.443,-0.879,0.435,-32.715,1782303
-0.401,-0.82,0.515,-37.109,1782307
-0.401,-0.82,0.515,-40.344,1782311
-0.337,-0.756,0.562,-40.894,1782315
-0.337,-0.756,0.562,-40.894,1782319
-0.337,-0.756,0.562,-40.222,1782323
-0.34,-0.757,0.607,-39.795,1782327
-0.34,-0.757,0.607,-41.748,1782331
-0.338,-0.746,0.613,-44.617,1782335
-0.338,-0.746,0.613,-44.617,1782339
-0.338,-0.746,0.613,-45.776,1782343
-0.254,-0.686,0.628,-44.861,1782347
-0.254,-0.686,0.628,-41.931,1782351
-0.156,-0.63,0.688,-37.231,1782355
-0.156,-0.63,0.688,-32.043,1782359
-0.156,-0.63,0.688,-32.043,1782363
-0.108,-0.597,0.719,-27.527,1782367
-0.108,-0.597,0.719,-22.034,1782371
-0.108,-0.592,0.736,-16.541,1782375
-0.108,-0.592,0.736,-13.367,1782379
-0.108,-0.592,0.736,-13.367,1782383
-0.198,-0.643,0.806,-13.062,1782387
-0.198,-0.643,0.806,-14.099,1782391
-0.282,-0.678,0.873,-17.517,1782395
-0.282,-0.678,0.873,-23.438,1782399
-0.282,-0.678,0.873,-23.438,1782403
-0.234,-0.638,0.872,-28.015,1782407
-0.234,-0.638,0.872,-27.771,1782411
-0.102,-0.567,0.845,-24.963,1782415
-0.102,-0.567,0.845,-21.179,1782419
-0.102,-0.567,0.845,-21.179,1782423
-0.016,-0.522,0.86,-17.09,1782427
-0.016,-0.522,0.86,-13.0,1782431
0.04,-0.499,0.9,-9.155,1782435
0.04,-0.499,0.9,-4.639,1782439
0.04,-0.499,0.9,-4.639,1782443
0.096,-0.473,0.95,0.854,1782447
0.096,-0.473,0.95,6.348,1782451
0.082,-0.482,1.003,10.986,1782455
0.082,-0.482,1.003,14.526,1782459
0.036,-0.501,0.997,17.273,1782463
0.036,-0.501,0.997,17.273,1782467
0.036,-0.501,0.997,21.179,1782471
-0.064,-0.56,0.995,24.231,1782475
-0.064,-0.56,0.995,23.438,1782479
-0.282,-0.671,1.006,17.822,1782483
-0.282,-0.671,1.006,17.822,1782487
-0.282,-0.671,1.006,10.864,1782491
-0.326,-0.675,0.938,4.944,1782495
-0.326,-0.675,0.938,0.732,1782499
-0.213,-0.604,0.88,-2.136,1782503
-0.213,-0.604,0.88,-2.136,1782507
-0.213,-0.604,0.88,-2.808,1782511
-0.081,-0.544,0.834,0.488,1782515
-0.081,-0.544,0.834,3.418,1782519
-0.052,-0.558,0.812,7.324,1782523
-0.052,-0.558,0.812,7.324,1782527
-0.052,-0.558,0.812,8.606,1782531
-0.118,-0.612,0.857,7.141,1782535
-0.118,-0.612,0.857,5.737,1782539
-0.172,-0.641,0.837,3.845,1782543
-0.172,-0.641,0.837,3.845,1782547
-0.172,-0.641,0.837,2.197,1782551
-0.21,-0.666,0.756,0.0,1782555
-0.21,-0.666,0.756,-2.014,1782559
-0.192,-0.651,0.699,-4.272,1782563
-0.192,-0.651,0.699,-4.272,1782567
-0.192,-0.651,0.699,-3.906,1782571
-0.142,-0.632,0.641,-1.831,1782575
-0.142,-0.632,0.641,0.366,1782579
-0.13,-0.643,0.639,2.38,1782583
-0.13,-0.643,0.639,2.38,1782587
-0.13,-0.643,0.639,3.906,1782591
-0.162,-0.676,0.651,5.249,1782595
-0.162,-0.676,0.651,5.798,1782599
-0.231,-0.723,0.635,5.432,1782603
-0.231,-0.723,0.635,5.432,1782607
-0.231,-0.723,0.635,3.967,1782611
-0.381,-0.819,0.637,0.244,1782615
-0.381,-0.819,0.637,-8.057,1782619
-0.577,-0.912,0.712,-20.386,1782623
-0.577,-0.912,0.712,-32.898,1782627
-0.577,-0.912,0.712,-32.898,1782631
-0.545,-0.883,0.742,-43.396,1782635
-0.545,-0.883,0.742,-50.842,1782639
-0.365,-0.798,0.719,-55.786,1782643
-0.365,-0.798,0.719,-58.105,1782647
-0.365,-0.798,0.719,-58.105,1782651
-0.178,-0.704,0.631,-57.068,1782655
-0.178,-0.704,0.631,-52.979,1782659
-0.043,-0.631,0.508,-46.204,1782663
-0.043,-0.631,0.508,-38.94,1782667
-0.043,-0.631,0.508,-38.94,1782671
-0.007,-0.621,0.461,-32.349,1782675
-0.007,-0.621,0.461,-25.574,1782679
-0.032,-0.648,0.511,-19.226,1782683
-0.032,-0.648,0.511,-14.221,1782687
-0.032,-0.648,0.511,-14.221,1782691
-0.071,-0.674,0.634,-10.01,1782695
-0.071,-0.674,0.634,-5.859,1782699
-0.102,-0.698,0.706,-1.038,1782703
-0.102,-0.698,0.706,2.319,1782707
-0.102,-0.698,0.706,2.319,1782711
-0.24,-0.777,0.723,2.38,1782715
-0.24,-0.777,0.723,-0.916,1782719
-0.357,-0.845,0.707,-5.676,1782723
-0.357,-0.845,0.707,-13.611,1782727
-0.381,-0.849,0.678,-21.362,1782731
-0.381,-0.849,0.678,-21.362,1782735
-0.381,-0.849,0.678,-26.855,1782739
-0.306,-0.799,0.65,-30.09,1782743
-0.306,-0.799,0.65,-31.067,1782747
-0.243,-0.766,0.589,-31.067,1782751
-0.243,-0.766,0.589,-31.067,1782755
-0.243,-0.766,0.589,-31.86,1782759
-0.212,-0.751,0.596,-33.569,1782763
-0.212,-0.751,0.596,-33.691,1782767
-0.122,-0.707,0.629,-31.494,1782771
-0.122,-0.707,0.629,-31.494,1782775
-0.122,-0.707,0.629,-28.564,1782779
-0.065,-0.674,0.656,-25.391,1782783
-0.065,-0.674,0.656,-22.461,1782787
-0.054,-0.665,0.619,-19.592,1782791
-0.054,-0.665,0.619,-19.592,1782795
-0.054,-0.665,0.619,-17.029,1782799
-0.05,-0.664,0.576,-14.16,1782803
-0.05,-0.664,0.576,-11.23,1782807
-0.064,-0.672,0.647,-9.521,1782811
-0.064,-0.672,0.647,-7.751,1782815
-0.064,-0.672,0.647,-7.751,1782819
-0.039,-0.655,0.713,-4.15,1782823
-0.039,-0.655,0.713,0.488,1782827
-0.044,-0.656,0.671,5.249,1782831
-0.044,-0.656,0.671,8.789,1782835
-0.044,-0.656,0.671,8.789,1782839
-0.156,-0.717,0.642,9.888,1782843
-0.156,-0.717,0.642,9.949,1782847
-0.273,-0.784,0.7,8.179,1782851
-0.273,-0.784,0.7,4.883,1782855
-0.273,-0.784,0.7,4.883,1782859
-0.332,-0.805,0.779,-0.366,1782863
-0.332,-0.805,0.779,-8.24,1782867
-0.266,-0.744,0.771,-15.869,1782871
-0.266,-0.744,0.771,-18.799,1782875
-0.266,-0.744,0.771,-18.799,1782879
-0.119,-0.671,0.719,-16.846,1782883
-0.119,-0.671,0.719,-13.428,1782887
-0.071,-0.658,0.722,-9.46,1782891
-0.071,-0.658,0.722,-6.714,1782895
-0.071,-0.658,0.722,-6.714,1782899
-0.086,-0.661,0.672,-6.592,1782903
-0.086,-0.661,0.672,-6.897,1782907
-0.088,-0.654,0.594,-6.165,1782911
-0.088,-0.654,0.594,-4.822,1782915
-0.088,-0.654,0.594,-4.822,1782919
-0.065,-0.637,0.653,-2.502,1782923
-0.065,-0.637,0.653,0.549,1782927
-0.083,-0.643,0.736,4.15,1782931
-0.083,-0.643,0.736,5.615,1782935
-0.083,-0.643,0.736,5.615,1782939
-0.178,-0.688,0.747,3.357,1782943
-0.178,-0.688,0.747,-1.099,1782947
-0.213,-0.707,0.739,-5.31,1782951
-0.213,-0.707,0.739,-7.69,1782955
-0.213,-0.707,0.739,-7.69,1782959
-0.205,-0.706,0.766,-9.277,1782963
-0.205,-0.706,0.766,-10.864,1782967
-0.179,-0.68,0.802,-12.329,1782971
-0.179,-0.68,0.802,-13.123,1782975
-0.105,-0.635,0.817,-13.672,1782979
-0.105,-0.635,0.817,-13.672,1782983
-0.105,-0.635,0.817,-12.39,1782987
-0.054,-0.611,0.843,-8.606,1782991
-0.054,-0.611,0.843,-6.165,1782995
-0.073,-0.615,0.831,-4.456,1782999
-0.073,-0.615,0.831,-4.456,1783003
-0.073,-0.615,0.831,-2.502,1783007
-0.071,-0.616,0.822,0.305,1783011
-0.071,-0.616,0.822,2.747,1783015
-0.108,-0.64,0.824,5.249,1783019
-0.108,-0.64,0.824,5.249,1783023
-0.108,-0.64,0.824,6.714,1783027
-0.179,-0.671,0.804,5.737,1783031
-0.179,-0.671,0.804,4.944,1783035
-0.185,-0.676,0.769,5.737,1783039
-0.185,-0.676,0.769,5.737,1783043
-0.185,-0.676,0.769,6.409,1783047
-0.23,-0.71,0.752,4.883,1783051
-0.23,-0.71,0.752,2.075,1783055
-0.262,-0.73,0.771,-0.916,1783059
-0.262,-0.73,0.771,-0.916,1783063
-0.262,-0.73,0.771,-3.723,1783067
-0.243,-0.722,0.782,-5.676,1783071
-0.243,-0.722,0.782,-6.836,1783075
-0.214,-0.71,0.776,-7.141,1783079
-0.214,-0.71,0.776,-7.141,1783083
-0.214,-0.71,0.776,-7.935,1783087
-0.143,-0.669,0.792,-9.888,1783091
-0.143,-0.669,0.792,-8.362,1783095
-0.073,-0.625,0.734,-3.845,1783099
-0.073,-0.625,0.734,-3.845,1783103
-0.073,-0.625,0.734,-0.244,1783107
-0.094,-0.626,0.715,2.502,1783111
-0.094,-0.626,0.715,5.127,1783115
-0.092,-0.626,0.74,7.812,1783119
-0.092,-0.626,0.74,7.812,1783123
-0.092,-0.626,0.74,10.986,1783127
-0.082,-0.621,0.763,14.282,1783131
-0.082,-0.621,0.763,17.212,1783135
-0.099,-0.622,0.749,19.409,1783139
-0.099,-0.622,0.749,21.667,1783143
-0.099,-0.622,0.749,21.667,1783147
-0.236,-0.692,0.776,22.339,1783151
-0.236,-0.692,0.776,16.907,1783155
-0.423,-0.769,0.811,6.836,1783159
-0.423,-0.769,0.811,-3.54,1783163
-0.423,-0.769,0.811,-3.54,1783167
-0.365,-0.733,0.771,-9.277,1783171
-0.365,-0.733,0.771,-10.071,1783175
-0.26,-0.693,0.754,-10.071,1783179
-0.26,-0.693,0.754,-10.559,1783183
-0.26,-0.693,0.754,-10.559,1783187
-0.18,-0.65,0.729,-9.094,1783191
-0.18,-0.65,0.729,-6.47,1783195
-0.133,-0.623,0.713,-4.578,1783199
-0.133,-0.623,0.713,-3.357,1783203
-0.133,-0.623,0.713,-3.357,1783207
-0.148,-0.638,0.706,-2.441,1783211
-0.148,-0.638,0.706,-1.709,1783215
-0.158,-0.643,0.726,-1.16,1783219
-0.158,-0.643,0.726,-0.977,1783223
-0.158,-0.643,0.726,-0.977,1783227
-0.16,-0.638,0.752,-0.671,1783231
-0.16,-0.638,0.752,0.61,1783235
-0.203,-0.656,0.791,1.77,1783239
-0.203,-0.656,0.791,-0.977,1783243
-0.203,-0.656,0.791,-0.977,1783247
-0.299,-0.693,0.813,-6.409,1783251
-0.299,-0.693,0.813,-10.62,1783255
-0.277,-0.682,0.77,-13.245,1783259
-0.277,-0.682,0.77,-14.404,1783263
-0.277,-0.682,0.77,-14.404,1783267
-0.188,-0.64,0.727,-14.404,1783271
-0.188,-0.64,0.727,-12.451,1783275
-0.097,-0.599,0.71,-8.911,1783279
-0.097,-0.599,0.71,-5.676,1783283
-0.094,-0.603,0.739,-4.15,1783287
-0.094,-0.603,0.739,-4.15,1783291
-0.094,-0.603,0.739,-3.357,1783295
-0.13,-0.619,0.772,-2.563,1783299
-0.13,-0.619,0.772,-2.014,1783303
-0.146,-0.626,0.799,-1.282,1783307
-0.146,-0.626,0.799,-1.282,1783311
-0.146,-0.626,0.799,-0.549,1783315
-0.145,-0.62,0.786,0.427,1783319
-0.145,-0.62,0.786,2.502,1783323
-0.158,-0.627,0.768,4.211,1783327
-0.158,-0.627,0.768,4.211,1783331
-0.158,-0.627,0.768,4.517,1783335
-0.247,-0.667,0.775,2.319,1783339
-0.247,-0.667,0.775,-1.038,1783343
-0.262,-0.664,0.799,-3.601,1783347
-0.262,-0.664,0.799,-3.601,1783351
-0.262,-0.664,0.799,-4.456,1783355
-0.205,-0.64,0.804,-4.7,1783359
-0.205,-0.64,0.804,-5.798,1783363
-0.169,-0.622,0.761,-7.263,1783367
-0.169,-0.622,0.761,-7.263,1783371
-0.169,-0.622,0.761,-6.409,1783375
-0.125,-0.604,0.742,-4.395,1783379
-0.125,-0.604,0.742,-2.93,1783383
-0.129,-0.618,0.78,-2.747,1783387
-0.129,-0.618,0.78,-2.747,1783391
-0.129,-0.618,0.78,-2.197,1783395
-0.141,-0.626,0.78,-0.488,1783399
-0.141,-0.626,0.78,1.343,1783403
-0.173,-0.647,0.75,2.502,1783407
-0.173,-0.647,0.75,2.502,1783410
-0.173,-0.647,0.75,2.441,1783414
-0.237,-0.683,0.767,0.732,1783418
-0.237,-0.683,0.767,-1.16,1783422
-0.218,-0.674,0.772,-1.831,1783426
-0.218,-0.674,0.772,-1.282,1783430
-0.218,-0.674,0.772,-1.282,1783434
-0.168,-0.651,0.749,0.061,1783438
-0.168,-0.651,0.749,0.671,1783442
-0.208,-0.665,0.743,-0.488,1783446
-0.208,-0.665,0.743,-1.709,1783450
-0.208,-0.665,0.743,-1.709,1783454
-0.231,-0.679,0.751,-2.93,1783458
-0.231,-0.679,0.751,-3.601,1783462
-0.228,-0.684,0.794,-3.967,1783466
-0.228,-0.684,0.794,-4.883,1783470
-0.228,-0.684,0.794,-4.883,1783474
-0.243,-0.684,0.808,-6.836,1783478
-0.243,-0.684,0.808,-8.606,1783482
-0.171,-0.641,0.792,-8.301,1783486
-0.171,-0.641,0.792,-5.737,1783490
-0.171,-0.641,0.792,-5.737,1783494
-0.094,-0.608,0.763,-1.953,1783498
-0.094,-0.608,0.763,1.648,1783502
-0.114,-0.626,0.737,4.333,1783506
-0.114,-0.626,0.737,5.798,1783510
-0.114,-0.626,0.737,5.798,1783514
-0.152,-0.642,0.72,7.568,1783518
-0.152,-0.642,0.72,9.155,1783522
-0.223,-0.676,0.739,8.057,1783526
-0.223,-0.676,0.739,5.188,1783530
-0.223,-0.676,0.739,5.188,1783534
-0.256,-0.683,0.753,2.014,1783538
-0.256,-0.683,0.753,-0.549,1783542
-0.194,-0.651,0.738,-1.099,1783546
-0.194,-0.651,0.738,-0.488,1783550
-0.194,-0.651,0.738,-0.488,1783554
-0.162,-0.639,0.733,0.854,1783558
-0.162,-0.639,0.733,0.732,1783562
-0.22,-0.667,0.77,-0.305,1783566
-0.22,-0.667,0.77,-2.075,1783570
-0.22,-0.667,0.77,-2.075,1783574
-0.291,-0.692,0.796,-5.127,1783578
-0.291,-0.692,0.796,-7.935,1783582
-0.278,-0.686,0.797,-9.094,1783586
-0.278,-0.686,0.797,-10.803,1783590
-0.278,-0.686,0.797,-10.803,1783594
-0.191,-0.648,0.775,-10.925,1783598
-0.191,-0.648,0.775,-8.972,1783602
-0.097,-0.603,0.75,-6.409,1783606
-0.097,-0.603,0.75,-2.625,1783610
-0.086,-0.599,0.73,1.404,1783614
-0.086,-0.599,0.73,1.404,1783618
-0.086,-0.599,0.73,3.845,1783622
-0.166,-0.634,0.733,4.15,1783626
-0.166,-0.634,0.733,2.502,1783630
-0.211,-0.645,0.735,0.061,1783634
-0.211,-0.645,0.735,0.061,1783638
-0.211,-0.645,0.735,-0.488,1783642
-0.175,-0.625,0.763,-0.061,1783646
-0.175,-0.625,0.763,1.038,1783650
-0.153,-0.61,0.794,2.197,1783654
-0.153,-0.61,0.794,2.197,1783658
-0.153,-0.61,0.794,2.93,1783662
-0.14,-0.601,0.793,4.272,1783666
-0.14,-0.601,0.793,5.92,1783670
-0.181,-0.624,0.802,5.981,1783674
-0.181,-0.624,0.802,5.981,1783678
-0.181,-0.624,0.802,4.517,1783682
-0.312,-0.681,0.818,0.793,1783686
-0.312,-0.681,0.818,-5.066,1783690
-0.343,-0.684,0.835,-10.254,1783694
-0.343,-0.684,0.835,-10.254,1783698
-0.343,-0.684,0.835,-12.695,1783702
-0.218,-0.635,0.841,-12.817,1783706
-0.218,-0.635,0.841,-12.268,1783710
-0.093,-0.583,0.809,-9.521,1783714
-0.093,-0.583,0.809,-9.521,1783718
-0.093,-0.583,0.809,-5.432,1783722
-0.051,-0.571,0.75,-0.366,1783726
-0.051,-0.571,0.75,1.343,1783730
-0.081,-0.59,0.703,2.075,1783734
-0.081,-0.59,0.703,2.686,1783738
-0.081,-0.59,0.703,2.686,1783742
-0.075,-0.587,0.701,4.944,1783746
-0.075,-0.587,0.701,8.118,1783750
-0.125,-0.617,0.709,11.169,1783754
-0.125,-0.617,0.709,11.169,1783758
-0.125,-0.617,0.709,11.169,1783762
-0.271,-0.688,0.762,7.385,1783766
-0.271,-0.688,0.762,2.625,1783770
-0.264,-0.68,0.77,0.061,1783774
-0.264,-0.68,0.77,-0.061,1783778
-0.264,-0.68,0.77,-0.061,1783782
-0.184,-0.645,0.77,0.549,1783786
-0.184,-0.645,0.77,0.916,1783790
-0.169,-0.643,0.795,1.587,1783794
-0.169,-0.643,0.795,2.075,1783798
-0.169,-0.643,0.795,2.075,1783802
-0.187,-0.655,0.796,1.648,1783806
-0.187,-0.655,0.796,1.343,1783810
-0.178,-0.648,0.776,1.221,1783814
-0.178,-0.648,0.776,1.343,1783818
-0.178,-0.648,0.776,1.343,1783822
-0.145,-0.626,0.752,2.38,1783826
-0.145,-0.626,0.752,4.272,1783830
-0.144,-0.623,0.728,5.615,1783834
-0.144,-0.623,0.728,6.592,1783838
-0.144,-0.623,0.728,6.592,1783842
-0.199,-0.654,0.733,7.08,1783846
-0.199,-0.654,0.733,5.371,1783850
-0.28,-0.682,0.785,1.892,1783854
-0.28,-0.682,0.785,-0.854,1783858
-0.28,-0.682,0.785,-0.854,1783862
-0.24,-0.649,0.808,-1.404,1783866
-0.24,-0.649,0.808,-0.793,1783870
-0.161,-0.611,0.837,0.732,1783874
-0.161,-0.611,0.837,2.625,1783878
-0.161,-0.611,0.837,2.625,1783882
-0.125,-0.597,0.909,4.761,1783886
-0.125,-0.597,0.909,7.019,1783889
-0.122,-0.595,0.958,8.667,1783893
-0.122,-0.595,0.958,10.315,1783897
-0.122,-0.595,0.958,10.315,1783901
-0.113,-0.59,0.932,12.207,1783905
-0.113,-0.59,0.932,14.343,1783910
-0.115,-0.59,0.851,16.663,1783914
-0.115,-0.59,0.851,18.005,1783918
-0.133,-0.6,0.771,19.165,1783922
-0.133,-0.6,0.771,19.165,1783926
-0.133,-0.6,0.771,20.203,1783930
-0.141,-0.612,0.696,21.179,1783934
-0.141,-0.612,0.696,21.729,1783938
-0.119,-0.604,0.682,22.278,1783942
-0.119,-0.604,0.682,22.278,1783946
-0.119,-0.604,0.682,24.658,1783950
-0.058,-0.576,0.623,29.236,1783954
-0.058,-0.576,0.623,34.851,1783958
-0.092,-0.599,0.628,39.124,1783962
-0.092,-0.599,0.628,39.124,1783966
-0.092,-0.599,0.628,40.222,1783970
-0.186,-0.645,0.664,39.368,1783974
-0.186,-0.645,0.664,38.879,1783978
-0.203,-0.647,0.64,39.185,1783982
-0.203,-0.647,0.64,39.185,1783986
-0.203,-0.647,0.64,39.917,1783990
-0.228,-0.657,0.688,39.795,1783994
-0.228,-0.657,0.688,38.635,1783998
-0.246,-0.662,0.735,38.513,1784002
-0.246,-0.662,0.735,38.513,1784006
-0.246,-0.662,0.735,39.612,1784010
-0.313,-0.703,0.758,38.33,1784014
-0.313,-0.703,0.758,30.579,1784018
-0.349,-0.719,0.765,24.841,1784022
-0.349,-0.719,0.765,21.423,1784026
-0.349,-0.719,0.765,21.423,1784030
-0.249,-0.661,0.719,20.264,1784034
-0.249,-0.661,0.719,21.667,1784038
-0.179,-0.625,0.689,24.17,1784042
-0.179,-0.625,0.689,26.428,1784046
-0.179,-0.625,0.689,26.428,1784050
-0.221,-0.645,0.658,27.222,1784054
-0.221,-0.645,0.658,26.306,1784058
-0.277,-0.671,0.667,25.269,1784062
-0.277,-0.671,0.667,24.414,1784066
-0.277,-0.671,0.667,24.414,1784070
-0.277,-0.668,0.713,23.926,1784074
-0.277,-0.668,0.713,24.231,1784078
-0.258,-0.657,0.745,25.085,1784082
-0.258,-0.657,0.745,26.367,1784086
-0.258,-0.657,0.745,26.367,1784090
-0.262,-0.66,0.715,27.954,1784094
-0.262,-0.66,0.715,29.297,1784098
-0.318,-0.694,0.667,30.334,1784102
-0.318,-0.694,0.667,28.87,1784106
-0.318,-0.694,0.667,28.87,1784110
-0.452,-0.76,0.693,22.217,1784114
-0.452,-0.76,0.693,14.954,1784118
-0.426,-0.738,0.754,10.132,1784122
-0.426,-0.738,0.754,7.751,1784126
-0.301,-0.677,0.75,8.24,1784130
-0.301,-0.677,0.75,8.24,1784134
-0.301,-0.677,0.75,9.521,1784138
-0.238,-0.655,0.73,10.742,1784142
-0.238,-0.655,0.73,12.146,1784146
-0.24,-0.659,0.728,13.245,1784150
-0.24,-0.659,0.728,13.245,1784154
-0.24,-0.659,0.728,13.733,1784158
-0.266,-0.666,0.727,13.062,1784162
-0.266,-0.666,0.727,13.0,1784166
-0.284,-0.668,0.754,13.489,1784170
-0.284,-0.668,0.754,13.489,1784174
-0.284,-0.668,0.754,13.184,1784178
-0.323,-0.68,0.811,12.451,1784182
-0.323,-0.68,0.811,11.597,1784186
-0.317,-0.676,0.831,11.108,1784190
-0.317,-0.676,0.831,11.108,1784194
-0.317,-0.676,0.831,11.047,1784198
-0.292,-0.664,0.808,10.498,1784202
-0.292,-0.664,0.808,9.338,1784206
-0.268,-0.65,0.743,9.46,1784210
-0.268,-0.65,0.743,9.46,1784214
-0.268,-0.65,0.743,10.132,1784218
-0.26,-0.644,0.667,11.169,1784222
-0.26,-0.644,0.667,10.803,1784226
-0.297,-0.683,0.645,13.0,1784230
-0.297,-0.683,0.645,13.0,1784234
-0.297,-0.683,0.645,19.47,1784238
-0.368,-0.713,0.727,12.451,1784242
-0.368,-0.713,0.727,10.437,1784246
-0.33,-0.684,0.814,9.216,1784250
-0.33,-0.684,0.814,7.751,1784254
-0.33,-0.684,0.814,7.751,1784258
-0.276,-0.673,0.782,8.667,1784262
-0.276,-0.673,0.782,10.62,1784266
-0.229,-0.657,0.752,13.062,1784270
-0.229,-0.657,0.752,15.442,1784274
-0.229,-0.657,0.752,15.442,1784278
-0.232,-0.666,0.716,17.944,1784282
-0.232,-0.666,0.716,18.738,1784286
-0.256,-0.68,0.727,20.02,1784290
-0.256,-0.68,0.727,19.897,1784294
-0.256,-0.68,0.727,19.897,1784298
-0.235,-0.666,0.716,21.851,1784302
-0.235,-0.666,0.716,23.682,1784306
-0.215,-0.638,0.75,26.184,1784310
-0.215,-0.638,0.75,10.559,1784314
-0.215,-0.638,0.75,10.559,1784318
-0.087,-0.596,0.67,17.456,1784322
-0.087,-0.596,0.67,54.138,1784326
-0.306,-0.7,0.656,36.499,1784330
-0.306,-0.7,0.656,33.203,1784334
-0.306,-0.7,0.656,33.203,1784338
-0.38,-0.711,0.83,32.41,1784342
-0.38,-0.711,0.83,29.175,1784346
-0.302,-0.663,0.746,28.992,1784350
-0.302,-0.663,0.746,32.532,1784354
-0.273,-0.664,0.672,36.865,1784358
-0.273,-0.664,0.672,36.865,1784362
-0.273,-0.664,0.672,39.124,1784366
-0.34,-0.702,0.575,39.062,1784370
-0.34,-0.702,0.575,38.391,1784374
-0.394,-0.722,0.47,36.011,1784378
-0.394,-0.722,0.47,36.011,1784382
-0.394,-0.722,0.47,32.104,1784386
-0.421,-0.739,0.414,26.855,1784390
-0.421,-0.739,0.414,21.79,1784394
-0.43,-0.746,0.444,18.433,1784398
-0.43,-0.746,0.444,18.433,1784402
-0.43,-0.746,0.444,14.038,1784406
-0.382,-0.728,0.456,11.841,1784410
-0.382,-0.728,0.456,12.451,1784414
-0.352,-0.725,0.497,13.489,1784418
-0.352,-0.725,0.497,13.489,1784422
-0.352,-0.725,0.497,13.0,1784426
-0.363,-0.728,0.539,10.864,1784430
-0.363,-0.728,0.539,7.507,1784434
-0.328,-0.709,0.54,6.958,1784438
-0.328,-0.709,0.54,6.958,1784442
-0.328,-0.709,0.54,8.606,1784446
-0.34,-0.716,0.596,9.277,1784450
-0.34,-0.716,0.596,8.24,1784454
-0.388,-0.729,0.682,5.737,1784458
-0.388,-0.729,0.682,5.737,1784462
-0.388,-0.729,0.682,3.479,1784466
-0.38,-0.716,0.714,1.404,1784470
-0.38,-0.716,0.714,1.709,1784474
-0.365,-0.703,0.674,1.526,1784478
-0.365,-0.703,0.674,1.526,1784482
-0.365,-0.703,0.674,0.366,1784486
-0.357,-0.7,0.708,0.183,1784490
-0.357,-0.7,0.708,-0.305,1784494
-0.351,-0.701,0.672,-0.854,1784498
-0.351,-0.701,0.672,-0.61,1784502
-0.351,-0.701,0.672,-0.61,1784506
-0.345,-0.702,0.673,0.122,1784510
-0.345,-0.702,0.673,-0.427,1784514
-0.354,-0.706,0.683,-1.221,1784518
-0.354,-0.706,0.683,-1.16,1784522
-0.354,-0.706,0.683,-1.16,1784526
-0.35,-0.702,0.676,-1.038,1784530
-0.35,-0.702,0.676,-0.061,1784534
-0.387,-0.725,0.653,0.244,1784538
-0.387,-0.725,0.653,-2.686,1784542
-0.387,-0.725,0.653,-2.686,1784546
-0.512,-0.784,0.707,-8.301,1784550
-0.512,-0.784,0.707,-14.465,1784554
-0.486,-0.776,0.675,-20.935,1784558
-0.486,-0.776,0.675,-22.949,1784562
-0.486,-0.776,0.675,-22.949,1784566
-0.333,-0.72,0.586,-21.973,1784570
-0.333,-0.72,0.586,-18.188,1784574
-0.299,-0.716,0.486,-19.226,1784578
-0.299,-0.716,0.486,-19.958,1784582
-0.299,-0.716,0.486,-19.958,1784586
-0.268,-0.698,0.492,-18.555,1784590
-0.268,-0.698,0.492,-13.123,1784594
-0.302,-0.728,0.628,-11.658,1784598
-0.302,-0.728,0.628,-4.395,1784602
-0.302,-0.728,0.628,-4.395,1784606
-0.32,-0.723,0.612,-4.761,1784610
-0.32,-0.723,0.612,-12.573,1784614
-0.259,-0.695,0.486,-11.719,1784618
-0.259,-0.695,0.486,-1.77,1784622
-0.25,-0.696,0.526,4.761,1784626
-0.25,-0.696,0.526,4.761,1784630
-0.25,-0.696,0.526,2.808,1784634
-0.395,-0.759,0.544,-2.258,1784638
-0.395,-0.759,0.544,-6.714,1784642
-0.391,-0.741,0.608,-8.85,1784646
-0.391,-0.741,0.608,-8.85,1784650
-0.391,-0.741,0.608,-9.521,1784654
-0.361,-0.713,0.561,-10.742,1784658
-0.361,-0.713,0.561,-11.841,1784662
-0.341,-0.691,0.644,-11.841,1784666
-0.341,-0.691,0.644,-11.841,1784670
-0.341,-0.691,0.644,-10.803,1784674
-0.301,-0.665,0.72,-9.033,1784678
-0.301,-0.665,0.72,-7.263,1784682
-0.269,-0.646,0.738,-6.165,1784686
-0.269,-0.646,0.738,-6.165,1784690
-0.269,-0.646,0.738,-3.601,1784694
-0.261,-0.646,0.659,-2.014,1784698
-0.261,-0.646,0.659,-1.404,1784702
-0.24,-0.632,0.56,-0.977,1784706
-0.24,-0.632,0.56,-0.977,1784710
-0.24,-0.632,0.56,0.916,1784714
-0.211,-0.627,0.524,5.31,1784718
-0.211,-0.627,0.524,9.155,1784722
-0.348,-0.699,0.511,10.193,1784726
-0.348,-0.699,0.511,10.193,1784730
-0.348,-0.699,0.511,7.263,1784734
-0.484,-0.757,0.668,1.221,1784738
-0.484,-0.757,0.668,-5.493,1784742
-0.424,-0.724,0.744,-10.193,1784746
-0.424,-0.724,0.744,-10.193,1784750
-0.424,-0.724,0.744,-12.268,1784754
-0.29,-0.657,0.696,-13.55,1784758
-0.29,-0.657,0.696,-15.991,1784762
-0.179,-0.598,0.614,-15.015,1784766
-0.179,-0.598,0.614,-16.968,1784770
-0.179,-0.598,0.614,-16.968,1784774
-0.106,-0.544,0.757,-10.925,1784778
-0.106,-0.544,0.757,-5.432,1784782
-0.122,-0.527,0.852,-5.188,1784786
-0.122,-0.527,0.852,-7.08,1784790
-0.122,-0.527,0.852,-7.08,1784794
-0.092,-0.496,0.856,-7.385,1784798
-0.092,-0.496,0.856,-2.075,1784802
-0.045,-0.464,0.85,5.188,1784806
-0.045,-0.464,0.85,10.01,1784810
-0.045,-0.464,0.85,10.01,1784814
-0.117,-0.473,0.729,13.794,1784818
-0.117,-0.473,0.729,19.531,1784822
-0.238,-0.525,0.679,22.766,1784826
-0.238,-0.525,0.679,20.996,1784830
-0.238,-0.525,0.679,20.996,1784834
-0.341,-0.562,0.76,13.428,1784838
-0.341,-0.562,0.76,11.78,1784842
-0.288,-0.543,0.795,15.93,1784846
-0.288,-0.543,0.795,20.752,1784850
-0.288,-0.543,0.795,20.752,1784854
-0.286,-0.531,0.854,25.696,1784858
-0.286,-0.531,0.854,28.503,1784862
-0.349,-0.536,0.938,31.189,1784866
-0.349,-0.536,0.938,32.043,1784870
-0.394,-0.548,0.863,30.945,1784874
-0.394,-0.548,0.863,30.945,1784878
-0.394,-0.548,0.863,29.846,1784882
-0.356,-0.527,0.823,30.884,1784886
-0.356,-0.527,0.823,34.546,1784890
-0.296,-0.514,0.871,42.603,1784894
-0.296,-0.514,0.871,42.603,1784898
-0.296,-0.514,0.871,50.537,1784902
-0.3,-0.51,0.976,57.922,1784906
-0.3,-0.51,0.976,65.552,1784910
-0.327,-0.49,1.041,70.19,1784914
-0.327,-0.49,1.041,70.19,1784918
-0.327,-0.49,1.041,74.463,1784922
-0.343,-0.475,1.077,77.087,1784926
-0.343,-0.475,1.077,72.449,1784930
-0.377,-0.469,1.011,63.965,1784934
-0.377,-0.469,1.011,63.965,1784938
-0.377,-0.469,1.011,52.185,1784942
-0.356,-0.454,0.869,40.527,1784946
-0.356,-0.454,0.869,33.203,1784950
-0.262,-0.422,0.77,34.241,1784954
-0.262,-0.422,0.77,34.241,1784958
-0.262,-0.422,0.77,40.955,1784962
-0.329,-0.434,0.883,43.335,1784966
-0.329,-0.434,0.883,37.598,1784970
-0.485,-0.46,1.009,26.611,1784974
-0.485,-0.46,1.009,17.395,1784978
-0.485,-0.46,1.009,17.395,1784982
-0.469,-0.448,0.927,12.695,1784986
-0.469,-0.448,0.927,11.169,1784990
-0.412,-0.427,0.857,8.667,1784994
-0.412,-0.427,0.857,3.784,1784998
-0.412,-0.427,0.857,3.784,1785002
-0.373,-0.406,0.92,-2.014,1785006
-0.373,-0.406,0.92,-5.554,1785010
-0.29,-0.381,0.948,-2.075,1785014
-0.29,-0.381,0.948,1.831,1785018
-0.29,-0.381,0.948,1.831,1785022
-0.334,-0.419,0.655,5.005,1785026
-0.334,-0.419,0.655,5.798,1785030
-0.356,-0.416,0.793,9.827,1785034
-0.356,-0.416,0.793,19.836,1785038
-0.356,-0.416,0.793,19.836,1785042
-0.342,-0.386,1.044,21.545,1785046
-0.342,-0.386,1.044,13.062,1785050
-0.337,-0.393,0.706,8.667,1785054
-0.337,-0.393,0.706,14.404,1785058
-0.337,-0.393,0.706,14.404,1785062
-0.317,-0.389,0.877,25.635,1785066
-0.317,-0.389,0.877,25.696,1785070
-0.391,-0.418,0.808,19.775,1785074
-0.391,-0.418,0.808,17.517,1785078
-0.391,-0.418,0.808,17.517,1785082
-0.382,-0.438,0.803,20.325,1785086
-0.382,-0.438,0.803,24.536,1785090
-0.515,-0.513,0.888,28.381,1785094
-0.515,-0.513,0.888,22.4,1785098
-0.515,-0.513,0.888,22.4,1785102
-0.493,-0.495,0.932,11.169,1785106
-0.493,-0.495,0.932,24.109,1785110
-0.538,-0.515,0.652,24.963,1785114
-0.538,-0.515,0.652,10.01,1785118
-0.407,-0.416,0.94,7.263,1785122
-0.407,-0.416,0.94,7.263,1785126
-0.407,-0.416,0.94,9.216,1785130
-0.255,-0.369,0.818,10.62,1785134
-0.255,-0.369,0.818,12.512,1785138
-0.203,-0.353,0.841,16.479,1785142
-0.203,-0.353,0.841,16.479,1785146
-0.203,-0.353,0.841,25.146,1785150
-0.294,-0.4,0.853,30.457,1785154
-0.294,-0.4,0.853,24.475,1785158
-0.382,-0.427,0.778,25.024,1785162
-0.382,-0.427,0.778,25.024,1785166
-0.382,-0.427,0.778,22.827,1785170
-0.525,-0.482,0.797,14.954,1785174
-0.525,-0.482,0.797,10.559,1785178
-0.644,-0.54,0.891,-1.038,1785182
-0.644,-0.54,0.891,-1.038,1785186
-0.644,-0.54,0.891,-11.475,1785190
-0.607,-0.525,0.849,-23.376,1785194
-0.607,-0.525,0.849,-37.109,1785198
-0.467,-0.482,0.773,-44.678,1785202
-0.467,-0.482,0.773,-44.678,1785206
-0.467,-0.482,0.773,-42.847,1785210
-0.417,-0.501,0.639,-40.71,1785214
-0.417,-0.501,0.639,-45.654,1785218
-0.457,-0.516,0.686,-48.889,1785222
-0.457,-0.516,0.686,-48.767,1785226
-0.457,-0.516,0.686,-48.767,1785230
-0.438,-0.496,0.648,-43.213,1785234
-0.438,-0.496,0.648,-36.255,1785238
-0.39,-0.462,0.78,-33.081,1785242
-0.39,-0.462,0.78,-24.414,1785246
-0.39,-0.462,0.78,-24.414,1785250
-0.349,-0.475,0.839,-12.878,1785254
-0.349,-0.475,0.839,-7.141,1785258
-0.375,-0.486,0.822,-2.747,1785262
-0.375,-0.486,0.822,-0.366,1785266
-0.375,-0.486,0.822,-0.366,1785270
-0.391,-0.488,0.768,-1.282,1785274
-0.391,-0.488,0.768,0.122,1785278
-0.424,-0.509,0.786,2.869,1785282
-0.424,-0.509,0.786,-3.357,1785286
-0.424,-0.509,0.786,-3.357,1785290
-0.65,-0.583,0.95,-17.883,1785294
-0.65,-0.583,0.95,-34.302,1785298
-0.637,-0.582,0.92,-39.673,1785302
-0.637,-0.582,0.92,-46.326,1785306
-0.637,-0.582,0.92,-46.326,1785310
-0.495,-0.545,0.709,-46.997,1785314
-0.495,-0.545,0.709,-42.48,1785318
-0.469,-0.559,0.757,-45.044,1785322
-0.469,-0.559,0.757,-41.443,1785326
-0.485,-0.594,0.652,-44.373,1785330
-0.485,-0.594,0.652,-44.373,1785334
-0.485,-0.594,0.652,-46.936,1785338
-0.439,-0.589,0.567,-46.143,1785342
-0.439,-0.589,0.567,-44.739,1785346
-0.373,-0.586,0.58,-39.429,1785350
-0.373,-0.586,0.58,-39.429,1785354
-0.373,-0.586,0.58,-32.776,1785358
-0.451,-0.631,0.62,-32.104,1785362
-0.451,-0.631,0.62,-32.715,1785366
-0.449,-0.636,0.677,-28.87,1785370
-0.449,-0.636,0.677,-28.87,1785374
-0.449,-0.636,0.677,-23.926,1785378
-0.448,-0.658,0.62,-18.982,1785382
-0.448,-0.658,0.62,-17.7,1785386
-0.488,-0.692,0.506,-17.639,1785391
-0.488,-0.692,0.506,-17.639,1785395
-0.488,-0.692,0.506,-15.93,1785399
-0.527,-0.714,0.408,-15.503,1785403
-0.527,-0.714,0.408,-16.113,1785407
-0.611,-0.746,0.426,-17.822,1785411
-0.611,-0.746,0.426,-23.193,1785415
-0.611,-0.746,0.426,-23.193,1785419
-0.671,-0.766,0.52,-29.053,1785423
-0.671,-0.766,0.52,-36.133,1785427
-0.619,-0.739,0.619,-42.603,1785431
-0.619,-0.739,0.619,-48.462,1785435
-0.619,-0.739,0.619,-48.462,1785439
-0.549,-0.697,0.61,-55.054,1785443
-0.549,-0.697,0.61,-58.411,1785447
-0.512,-0.683,0.57,-58.838,1785451
-0.512,-0.683,0.57,-59.326,1785455
-0.512,-0.683,0.57,-59.326,1785459
-0.509,-0.7,0.504,-63.232,1785463
-0.509,-0.7,0.504,-54.321,1785467
-0.494,-0.733,0.556,-34.912,1785471
-0.494,-0.733,0.556,-32.41,1785475
-0.494,-0.733,0.556,-32.41,1785479
-0.56,-0.764,0.443,-41.626,1785483
-0.56,-0.764,0.443,-41.26,1785487
-0.434,-0.724,0.454,-36.316,1785491
-0.434,-0.724,0.454,-34.18,1785495
-0.347,-0.688,0.476,-33.508,1785499
-0.347,-0.688,0.476,-33.508,1785503
-0.347,-0.688,0.476,-31.799,1785507
-0.325,-0.682,0.531,-29.114,1785511
-0.325,-0.682,0.531,-26.855,1785515
-0.362,-0.692,0.559,-26.184,1785519
-0.362,-0.692,0.559,-26.184,1785523
-0.362,-0.692,0.559,-25.146,1785527
-0.4,-0.705,0.504,-23.438,1785531
-0.4,-0.705,0.504,-24.109,1785535
-0.433,-0.714,0.51,-25.208,1785539
-0.433,-0.714,0.51,-25.208,1785543
-0.433,-0.714,0.51,-24.658,1785547
-0.407,-0.686,0.525,-24.353,1785551
-0.407,-0.686,0.525,-23.132,1785555
-0.355,-0.645,0.513,-22.278,1785559
-0.355,-0.645,0.513,-22.278,1785563
-0.355,-0.645,0.513,-19.47,1785567
-0.277,-0.599,0.527,-13.367,1785571
-0.277,-0.599,0.527,-7.751,1785575
-0.302,-0.594,0.62,-3.906,1785579
-0.302,-0.594,0.62,-2.502,1785583
-0.302,-0.594,0.62,-2.502,1785587
-0.377,-0.611,0.797,-1.038,1785591
-0.377,-0.611,0.797,-2.075,1785595
-0.398,-0.589,0.853,-6.47,1785599
-0.398,-0.589,0.853,-7.385,1785603
-0.398,-0.589,0.853,-7.385,1785607
-0.33,-0.537,0.896,-4.395,1785611
-0.33,-0.537,0.896,-2.014,1785615
-0.258,-0.479,0.974,-0.061,1785619
-0.258,-0.479,0.974,2.075,1785623
-0.258,-0.479,0.974,2.075,1785627
-0.21,-0.433,0.993,4.578,1785631
-0.21,-0.433,0.993,7.568,1785635
-0.181,-0.396,1.043,10.071,1785639
-0.181,-0.396,1.043,12.39,1785643
-0.181,-0.396,1.043,12.39,1785647
-0.13,-0.341,1.239,15.686,1785651
-0.13,-0.341,1.239,18.921,1785655
-0.129,-0.327,1.311,21.362,1785659
-0.129,-0.327,1.311,23.804,1785663
-0.129,-0.327,1.311,23.804,1785667
-0.172,-0.361,1.182,25.757,1785671
-0.172,-0.361,1.182,27.405,1785675
-0.228,-0.427,0.896,28.503,1785679
-0.228,-0.427,0.896,28.809,1785683
-0.344,-0.536,0.524,27.71,1785687
-0.344,-0.536,0.524,27.71,1785691
-0.344,-0.536,0.524,26.062,1785695
-0.377,-0.614,0.479,23.499,1785699
-0.377,-0.614,0.479,22.827,1785703
-0.321,-0.637,0.532,24.536,1785707
-0.321,-0.637,0.532,24.536,1785711
-0.321,-0.637,0.532,27.954,1785715
-0.387,-0.726,0.528,30.823,1785719
-0.387,-0.726,0.528,28.198,1785723
-0.522,-0.85,0.399,22.705,1785727
-0.522,-0.85,0.399,22.705,1785731
-0.522,-0.85,0.399,17.944,1785735
-0.48,-0.882,0.177,13.672,1785739
-0.48,-0.882,0.177,13.123,1785743
-0.388,-0.868,0.082,15.381,1785747
-0.388,-0.868,0.082,15.381,1785751
-0.388,-0.868,0.082,16.357,1785755
-0.414,-0.87,0.024,18.188,1785759
-0.414,-0.87,0.024,19.775,1785763
-0.423,-0.851,0.168,20.874,1785767
-0.423,-0.851,0.168,20.874,1785771
-0.423,-0.851,0.168,22.034,1785775
-0.458,-0.832,0.357,21.912,1785779
-0.458,-0.832,0.357,18.188,1785783
-0.526,-0.816,0.558,12.756,1785787
-0.526,-0.816,0.558,12.756,1785791
-0.526,-0.816,0.558,9.644,1785795
-0.515,-0.763,0.638,4.028,1785799
-0.515,-0.763,0.638,-0.061,1785803
-0.44,-0.671,0.729,1.038,1785807
-0.44,-0.671,0.729,3.784,1785811
-0.44,-0.671,0.729,3.784,1785815
-0.381,-0.59,0.743,8.606,1785819
-0.381,-0.59,0.743,14.526,1785823
-0.375,-0.528,0.856,20.569,1785827
-0.375,-0.528,0.856,26.245,1785831
-0.375,-0.528,0.856,26.245,1785835
-0.438,-0.523,0.923,29.602,1785839
-0.438,-0.523,0.923,27.893,1785843
-0.495,-0.505,1.042,19.897,1785847
-0.495,-0.505,1.042,13.062,1785851
-0.495,-0.505,1.042,13.062,1785855
-0.433,-0.447,1.097,10.01,1785859
-0.433,-0.447,1.097,8.179,1785863
-0.369,-0.408,1.009,5.432,1785867
-0.369,-0.408,1.009,6.104,1785871
-0.369,-0.408,1.009,6.104,1785875
-0.295,-0.374,0.978,7.751,1785879
-0.295,-0.374,0.978,8.667,1785883
-0.224,-0.344,0.945,10.986,1785887
-0.224,-0.344,0.945,14.404,1785891
-0.224,-0.344,0.945,14.404,1785895
-0.159,-0.317,0.91,16.663,1785899
-0.159,-0.317,0.91,18.127,1785903
-0.097,-0.293,0.868,20.691,1785907
-0.097,-0.293,0.868,23.743,1785911
-0.097,-0.293,0.868,23.743,1785915
-0.06,-0.271,0.798,26.917,1785919
-0.06,-0.271,0.798,31.067,1785923
-0.057,-0.268,0.762,36.56,1785927
-0.057,-0.268,0.762,41.321,1785931
-0.064,-0.283,0.846,43.518,1785935
-0.064,-0.283,0.846,43.518,1785939
-0.064,-0.283,0.846,44.434,1785943
-0.034,-0.307,0.911,44.434,1785947
-0.034,-0.307,0.911,45.593,1785951
-0.068,-0.319,0.743,53.101,1785955
-0.068,-0.319,0.743,53.101,1785959
-0.068,-0.319,0.743,70.251,1785963
-0.457,-0.448,0.749,90.576,1785967
-0.457,-0.448,0.749,90.271,1785971
-0.933,-0.634,1.339,62.927,1785975
-0.933,-0.634,1.339,62.927,1785979
-0.933,-0.634,1.339,23.621,1785983
-0.777,-0.608,1.071,-10.132,1785987
-0.777,-0.608,1.071,-30.579,1785991
-0.327,-0.476,0.688,-29.114,1785995
-0.327,-0.476,0.688,-29.114,1785999
-0.327,-0.476,0.688,-15.686,1786003
-0.252,-0.496,0.599,0.244,1786007
-0.252,-0.496,0.599,12.878,1786011
-0.411,-0.579,0.681,19.714,1786015
-0.411,-0.579,0.681,19.714,1786019
-0.411,-0.579,0.681,22.827,1786023
-0.475,-0.606,0.713,24.963,1786027
-0.475,-0.606,0.713,27.832,1786031
-0.48,-0.584,0.688,30.457,1786035
-0.48,-0.584,0.688,36.194,1786039
-0.48,-0.584,0.688,36.194,1786043
-0.419,-0.507,0.823,39.673,1786047
-0.419,-0.507,0.823,40.649,1786051
-0.371,-0.439,0.866,39.368,1786055
-0.371,-0.439,0.866,38.818,1786059
-0.371,-0.439,0.866,38.818,1786063
-0.348,-0.381,0.798,39.734,1786067
-0.348,-0.381,0.798,42.358,1786071
-0.338,-0.323,0.852,47.058,1786075
-0.338,-0.323,0.852,51.575,1786079
-0.338,-0.323,0.852,51.575,1786083
-0.449,-0.322,1.02,47.974,1786087
-0.449,-0.322,1.02,36.56,1786091
-0.473,-0.314,1.051,24.292,1786095
-0.473,-0.314,1.051,19.287,1786099
-0.473,-0.314,1.051,19.287,1786103
-0.408,-0.28,0.961,10.803,1786107
-0.408,-0.28,0.961,1.16,1786111
-0.372,-0.237,0.952,-6.775,1786115
-0.372,-0.237,0.952,-13.733,1786119
-0.372,-0.237,0.952,-13.733,1786123
-0.288,-0.197,0.991,-17.334,1786127
-0.288,-0.197,0.991,-12.329,1786131
-0.055,-0.147,0.865,10.62,1786135
-0.055,-0.147,0.865,54.81,1786139
-0.055,-0.147,0.865,54.81,1786143
0.103,-0.114,0.834,116.028,1786147
0.103,-0.114,0.834,170.898,1786151
-0.204,-0.164,0.784,207.581,1786155
-0.204,-0.164,0.784,239.929,1786159
-0.586,-0.237,0.677,252.014,1786163
-0.586,-0.237,0.677,252.014,1786167
-0.586,-0.237,0.677,243.103,1786171
-0.966,-0.295,0.89,211.731,1786176
-0.966,-0.295,0.89,154.846,1786180
-1.085,-0.35,0.985,92.834,1786184
-1.085,-0.35,0.985,92.834,1786188
-1.085,-0.35,0.985,52.185,1786192
-0.765,-0.294,0.829,25.208,1786196
-0.765,-0.294,0.829,17.517,1786200
-0.454,-0.214,0.814,19.104,1786204
-0.454,-0.214,0.814,19.104,1786208
-0.454,-0.214,0.814,26.855,1786212
-0.298,-0.166,0.668,44.678,1786216
-0.298,-0.166,0.668,71.594,1786220
-0.382,-0.157,0.668,92.285,1786224
-0.382,-0.157,0.668,92.285,1786228
-0.382,-0.157,0.668,83.191,1786232
-0.534,-0.167,0.9,81.177,1786236
-0.534,-0.167,0.9,91.187,1786240
-0.581,-0.134,0.971,84.778,1786244
-0.581,-0.134,0.971,52.368,1786248
-0.581,-0.134,0.971,52.368,1786252
-0.592,-0.168,1.004,39.978,1786256
-0.592,-0.168,1.004,38.269,1786260
-0.501,-0.136,0.838,35.889,1786264
-0.501,-0.136,0.838,26.611,1786268
-0.501,-0.136,0.838,26.611,1786272
-0.42,-0.061,0.831,18.311,1786276
-0.42,-0.061,0.831,7.812,1786280
-0.286,0.0,0.894,6.47,1786284
-0.286,0.0,0.894,-3.113,1786288
-0.286,0.0,0.894,-3.113,1786292
-0.18,-0.022,0.88,16.296,1786296
-0.18,-0.022,0.88,42.725,1786300
-0.317,-0.127,0.8,74.524,1786304
-0.317,-0.127,0.8,115.601,1786308
-0.317,-0.127,0.8,115.601,1786312
-0.428,-0.043,0.897,109.985,1786316
-0.428,-0.043,0.897,110.229,1786320
-0.533,-0.131,0.859,118.713,1786324
-0.533,-0.131,0.859,114.807,1786328
-0.533,-0.131,0.859,114.807,1786332
-0.557,-0.058,0.808,113.342,1786336
-0.557,-0.058,0.808,110.535,1786340
-0.76,-0.151,1.111,98.633,1786344
-0.76,-0.151,1.111,30.212,1786348
-0.76,-0.151,1.111,30.212,1786352
-0.567,-0.111,0.871,49.316,1786356
-0.567,-0.111,0.871,70.557,1786360
-0.271,0.056,0.464,74.829,1786364
-0.271,0.056,0.464,58.594,1786368
-0.283,0.117,0.06,4.883,1786372
-0.283,0.117,0.06,4.883,1786376
-0.283,0.117,0.06,-152.283,1786380
0.098,0.4,-0.216,-443.726,1786384
0.098,0.4,-0.216,-655.884,1786388
-0.239,-0.572,1.225,142.09,1786392
-0.239,-0.572,1.225,142.09,1786396
-0.239,-0.572,1.225,369.568,1786400
-0.272,0.107,1.275,-138.367,1786404
-0.272,0.107,1.275,-224.365,1786408
0.004,-0.069,0.211,25.269,1786412
0.004,-0.069,0.211,25.269,1786416
0.004,-0.069,0.211,24.902,1786420
0.058,0.12,0.589,-1.831,1786424
0.058,0.12,0.589,26.245,1786428
-0.023,0.191,1.38,3.845,1786432
-0.023,0.191,1.38,3.845,1786436
-0.023,0.191,1.38,-33.691,1786440
0.028,0.029,1.164,-87.097,1786444
0.028,0.029,1.164,-52.612,1786448
-0.028,0.077,0.772,5.493,1786452
-0.028,0.077,0.772,5.493,1786456
-0.028,0.077,0.772,-2.991,1786460
-0.016,0.087,0.933,12.573,1786464
-0.016,0.087,0.933,28.442,1786468
0.007,0.026,1.1,6.775,1786472
0.007,0.026,1.1,6.775,1786476
0.007,0.026,1.1,-9.888,1786480
0.046,0.012,1.015,-7.263,1786484
0.046,0.012,1.015,-3.845,1786488
-0.005,0.063,0.987,-2.197,1786492
-0.005,0.063,0.987,-2.197,1786496
-0.005,0.063,0.987,-5.249,1786500
-0.016,0.052,0.992,-2.991,1786504
-0.016,0.052,0.992,-0.305,1786508
-0.002,0.048,0.999,-2.563,1786511
-0.002,0.048,0.999,-2.563,1786515
-0.002,0.048,0.999,-2.441,1786519
-0.012,0.062,0.985,0.0,1786523
-0.012,0.062,0.985,0.549,1786527
-0.011,0.057,0.999,2.625,1786531
-0.011,0.057,0.999,2.625,1786535
-0.011,0.057,0.999,2.014,1786539
0.002,0.045,1.01,-0.488,1786543
0.002,0.045,1.01,-0.488,1786547
-0.0,0.048,1.0,-0.732,1786551
-0.0,0.048,1.0,-0.732,1786555
-0.0,0.048,1.0,-2.991,1786559
-0.009,0.057,0.996,-2.136,1786563
-0.009,0.057,0.996,0.061,1786567
-0.005,0.056,0.991,0.0,1786571
-0.005,0.056,0.991,0.0,1786575
-0.005,0.056,0.991,-0.183,1786579
-0.003,0.052,1.003,-0.244,1786583
-0.003,0.052,1.003,-0.183,1786587
-0.004,0.052,1.0,-0.122,1786591
-0.004,0.052,1.0,-0.122,1786595
-0.004,0.052,1.0,-0.183,1786599
-0.005,0.053,0.993,-0.244,1786603
-0.005,0.053,0.993,-0.244,1786607
-0.004,0.053,0.998,-0.183,1786611
-0.004,0.053,0.998,-0.183,1786615
-0.004,0.053,0.998,-0.122,1786619
-0.005,0.052,0.996,-0.244,1786623
-0.005,0.052,0.996,-0.183,1786626
-0.004,0.052,1.002,-0.183,1786630
-0.004,0.052,1.002,-0.183,1786634
-0.004,0.052,1.002,-0.183,1786638
-0.003,0.054,0.998,-0.305,1786642
-0.003,0.054,0.998,-0.244,1786646
-0.004,0.053,0.999,0.0,1786650
-0.004,0.053,0.999,0.0,1786654
-0.004,0.053,0.999,-0.183,1786658
-0.006,0.053,1.0,-0.244,1786662
-0.006,0.053,1.0,-0.122,1786666
-0.004,0.054,1.001,-0.061,1786670
-0.004,0.054,1.001,-0.061,1786674
-0.004,0.054,1.001,-0.122,1786678
-0.006,0.052,0.999,-0.183,1786682
-0.006,0.052,0.999,-0.244,1786686
-0.005,0.053,0.997,-0.183,1786690
-0.005,0.053,0.997,-0.183,1786694
-0.005,0.053,0.997,-0.183,1786698
-0.006,0.054,0.999,-0.305,1786702
-0.006,0.054,0.999,-0.122,1786706
-0.007,0.053,0.996,-0.183,1786710
-0.007,0.053,0.996,-0.183,1786714
-0.007,0.053,0.996,-0.305,1786718
-0.006,0.054,0.999,-0.427,1786722
-0.006,0.054,0.999,-0.366,1786726
-0.007,0.054,0.999,-0.183,1786730
-0.007,0.054,0.999,-0.183,1786734
-0.007,0.054,0.999,-0.122,1786738
-0.007,0.054,0.998,-0.244,1786741
-0.007,0.054,0.998,-0.427,1786745
-0.007,0.054,0.998,-0.305,1786749
-0.007,0.054,0.998,-0.305,1786753
-0.007,0.054,0.998,-0.183,1786757
-0.007,0.053,1.0,-0.122,1786761
-0.007,0.053,1.0,-0.183,1786765
-0.006,0.052,0.998,-0.244,1786769
-0.006,0.052,0.998,-0.244,1786773
-0.006,0.052,0.998,-0.122,1786777
-0.005,0.052,0.997,-0.183,1786781
-0.005,0.052,0.997,-0.244,1786785
-0.007,0.053,0.999,-0.183,1786789
-0.007,0.053,0.999,-0.183,1786793
-0.007,0.053,0.999,-0.183,1786797
-0.005,0.054,0.998,-0.122,1786801
-0.005,0.054,0.998,-0.122,1786805
-0.004,0.053,0.996,-0.305,1786809
-0.004,0.053,0.996,-0.305,1786813
-0.004,0.053,0.996,-0.305,1786817
-0.005,0.052,0.998,-0.244,1786821
-0.005,0.052,0.998,-0.183,1786825
-0.005,0.052,1.0,-0.183,1786829
-0.005,0.052,1.0,-0.183,1786833
-0.005,0.052,1.0,-0.244,1786837
-0.004,0.054,0.997,-0.122,1786841
-0.004,0.054,0.997,-0.122,1786845
-0.005,0.053,0.999,-0.122,1786849
-0.005,0.053,0.999,-0.122,1786853
-0.005,0.053,0.999,-0.061,1786857
-0.002,0.054,0.997,-0.183,1786861
-0.002,0.054,0.997,-0.122,1786865
-0.003,0.054,0.998,-0.122,1786868
-0.003,0.054,0.998,-0.122,1786872
-0.003,0.054,0.998,-0.305,1786876
-0.003,0.053,0.998,-0.244,1786880
-0.003,0.053,0.998,-0.183,1786884
-0.004,0.052,1.0,-0.183,1786888
-0.004,0.052,1.0,-0.183,1786892
-0.004,0.052,1.0,-0.061,1786896
-0.003,0.051,0.999,-0.244,1786900
-0.003,0.051,0.999,-0.244,1786904
-0.003,0.052,0.999,0.0,1786908
-0.003,0.052,0.999,0.0,1786912
-0.003,0.052,0.999,-0.183,1786916
-0.005,0.053,0.997,-0.183,1786920
-0.005,0.053,0.997,-0.305,1786924
-0.007,0.054,0.999,-0.183,1786928
-0.007,0.054,0.999,-0.183,1786932
-0.007,0.054,0.999,-0.183,1786936
-0.006,0.054,1.0,-0.122,1786940
-0.006,0.054,1.0,-0.183,1786944
-0.007,0.052,0.998,-0.122,1786948
-0.007,0.052,0.998,-0.122,1786952
-0.007,0.052,0.998,-0.244,1786956
-0.006,0.053,0.998,-0.244,1786960
-0.006,0.053,0.998,-0.183,1786964
-0.005,0.053,0.997,-0.305,1786968
-0.005,0.053,0.997,-0.305,1786972
-0.005,0.053,0.997,-0.305,1786976
-0.006,0.054,0.995,-0.183,1786980
-0.006,0.054,0.995,-0.244,1786984
-0.006,0.053,0.998,-0.244,1786988
-0.006,0.053,0.998,-0.244,1786991
-0.006,0.053,0.998,-0.122,1786995
-0.005,0.054,1.0,-0.305,1786999
-0.005,0.054,1.0,-0.366,1787003
-0.006,0.053,0.997,-0.183,1787007
-0.006,0.053,0.997,-0.183,1787011
-0.006,0.053,0.997,-0.061,1787015
-0.007,0.052,0.997,-0.122,1787019
-0.007,0.052,0.997,-0.183,1787023
-0.004,0.053,0.997,-0.183,1787027
-0.004,0.053,0.997,-0.183,1787031
-0.004,0.053,0.997,-0.183,1787035
-0.005,0.055,0.996,-0.244,1787039
-0.005,0.055,0.996,-0.244,1787043
-0.006,0.053,0.996,-0.122,1787047
-0.006,0.053,0.996,-0.122,1787051
-0.006,0.053,0.996,-0.122,1787055
-0.004,0.054,0.998,-0.244,1787059
-0.004,0.054,0.998,-0.122,1787063
-0.004,0.055,0.999,-0.061,1787067
-0.004,0.055,0.999,-0.061,1787071
-0.004,0.055,0.999,-0.244,1787075
-0.005,0.055,0.998,-0.122,1787079
-0.005,0.055,0.998,-0.122,1787083
-0.003,0.052,1.0,-0.244,1787087
-0.003,0.052,1.0,-0.244,1787091
-0.003,0.052,1.0,-0.305,1787095
-0.003,0.052,1.0,-0.244,1787099
-0.003,0.052,1.0,-0.305,1787103
-0.004,0.054,1.0,-0.244,1787107
-0.004,0.054,1.0,-0.244,1787111
-0.004,0.054,1.0,-0.244,1787115
-0.004,0.052,1.0,-0.183,1787119
-0.004,0.052,1.0,-0.183,1787123
-0.003,0.051,1.0,-0.183,1787126
-0.003,0.051,1.0,-0.183,1787130
-0.003,0.051,1.0,-0.183,1787134
-0.003,0.052,0.998,-0.305,1787138
-0.003,0.052,0.998,-0.244,1787142
-0.004,0.053,0.997,-0.244,1787146
-0.004,0.053,0.997,-0.244,1787150
-0.004,0.053,0.997,-0.183,1787154
-0.006,0.052,0.998,-0.244,1787158
-0.006,0.052,0.998,-0.122,1787162
-0.005,0.052,0.999,-0.244,1787166
-0.005,0.052,0.999,-0.244,1787170
-0.005,0.052,0.999,-0.366,1787174
-0.005,0.053,0.997,-0.244,1787178
-0.005,0.053,0.997,-0.122,1787182
-0.004,0.053,0.998,-0.183,1787186
-0.004,0.053,0.998,-0.183,1787190
-0.004,0.053,0.998,-0.122,1787194
-0.005,0.054,0.999,-0.122,1787198
-0.005,0.054,0.999,0.0,1787202
-0.005,0.054,1.0,-0.183,1787206
-0.005,0.054,1.0,-0.183,1787210
-0.005,0.054,1.0,-0.183,1787214
-0.004,0.054,0.997,-0.122,1787218
-0.004,0.054,0.997,-0.183,1787222
-0.005,0.054,0.998,-0.244,1787226
-0.005,0.054,0.998,-0.244,1787230
-0.005,0.054,0.998,-0.122,1787234
-0.007,0.055,0.998,-0.061,1787238
-0.007,0.055,0.998,-0.122,1787242
-0.006,0.055,0.998,-0.366,1787246
-0.006,0.055,0.998,-0.366,1787250
-0.006,0.055,0.998,-0.244,1787254
-0.005,0.054,0.997,-0.244,1787257
-0.005,0.054,0.997,-0.427,1787261
-0.007,0.054,1.0,-0.305,1787265
-0.007,0.054,1.0,-0.305,1787269
-0.007,0.054,1.0,-0.244,1787273
-0.008,0.055,0.998,-0.305,1787277
-0.008,0.055,0.998,-0.122,1787281
-0.006,0.055,0.999,-0.122,1787285
-0.006,0.055,0.999,-0.122,1787289
-0.006,0.055,0.999,-0.244,1787293
-0.006,0.052,0.997,-0.244,1787297
-0.006,0.052,0.997,-0.183,1787301
-0.006,0.053,0.995,-0.244,1787305
-0.006,0.053,0.995,-0.244,1787309
-0.006,0.053,0.995,-0.183,1787313
-0.005,0.054,0.997,-0.122,1787317
-0.005,0.054,0.997,-0.122,1787321
-0.005,0.053,0.998,-0.122,1787325
-0.005,0.053,0.998,-0.122,1787329
-0.005,0.053,0.998,-0.061,1787333
-0.007,0.051,0.998,-0.183,1787337
-0.007,0.051,0.998,-0.122,1787341
-0.006,0.052,0.999,-0.244,1787345
-0.006,0.052,0.999,-0.305,1787349
-0.006,0.052,0.999,-0.305,1787353
-0.003,0.052,0.999,-0.122,1787357
-0.003,0.052,0.999,-0.061,1787361
-0.002,0.052,0.998,-0.122,1787365
-0.002,0.052,0.998,-0.305,1787369
-0.002,0.052,0.998,-0.305,1787373
-0.004,0.052,0.999,-0.183,1787377
-0.004,0.052,0.999,-0.122,1787381
-0.005,0.052,0.998,-0.244,1787385
-0.005,0.052,0.998,-0.183,1787389
-0.005,0.052,0.998,-0.183,1787392
-0.006,0.054,0.998,-0.305,1787396
-0.006,0.054,0.998,-0.244,1787400
-0.005,0.054,0.999,-0.061,1787404
-0.005,0.054,0.999,-0.244,1787408
-0.005,0.054,0.999,-0.244,1787412
-0.006,0.053,0.996,-0.366,1787416
-0.006,0.053,0.996,-0.549,1787420
-0.001,0.053,1.0,-1.16,1787424
-0.001,0.053,1.0,-1.099,1787428
-0.001,0.053,1.0,-1.099,1787432
-0.006,0.055,0.998,-0.549,1787436
-0.006,0.055,0.998,-0.244,1787440
-0.007,0.055,0.996,-0.183,1787444
-0.007,0.055,0.996,-0.183,1787448
-0.007,0.055,0.996,-0.183,1787452
-0.005,0.053,0.997,-0.244,1787456
-0.005,0.053,0.997,-0.183,1787460
-0.004,0.054,0.995,-0.244,1787464
-0.004,0.054,0.995,-0.244,1787468
-0.004,0.054,0.995,-0.183,1787472
-0.005,0.054,1.0,-0.183,1787476
-0.005,0.054,1.0,-0.244,1787480
-0.006,0.055,1.0,-0.122,1787484
-0.006,0.055,1.0,-0.122,1787488
-0.006,0.055,1.0,-0.122,1787492
-0.007,0.054,0.996,-0.122,1787496
-0.007,0.054,0.996,-0.122,1787500
-0.006,0.054,0.997,-0.244,1787504
-0.006,0.054,0.997,-0.305,1787508
-0.006,0.054,0.997,-0.305,1787511
-0.009,0.055,0.998,-0.122,1787515
-0.009,0.055,0.998,-0.122,1787519
-0.009,0.056,0.998,-0.305,1787523
-0.009,0.056,0.998,-0.305,1787527
-0.009,0.056,0.998,-0.305,1787531
-0.005,0.054,0.998,0.0,1787535
-0.005,0.054,0.998,-0.183,1787539
-0.005,0.055,0.998,-0.244,1787543
-0.005,0.055,0.998,-0.244,1787547
-0.005,0.055,0.998,-0.122,1787551
-0.006,0.053,0.999,-0.183,1787555
-0.006,0.053,0.999,-0.305,1787559
-0.006,0.053,0.997,-0.183,1787563
-0.006,0.053,0.997,-0.183,1787567
-0.006,0.053,0.997,-0.122,1787571
-0.006,0.054,0.998,-0.183,1787575
-0.006,0.054,0.998,-0.183,1787579
-0.004,0.052,0.999,-0.183,1787583
-0.004,0.052,0.999,-0.183,1787587
-0.004,0.052,0.999,-0.122,1787591
-0.004,0.054,0.999,-0.061,1787595
-0.004,0.054,0.999,-0.244,1787599
-0.004,0.053,0.998,-0.244,1787603
-0.004,0.053,0.998,-0.183,1787607
-0.004,0.053,0.998,-0.183,1787611
-0.004,0.054,0.998,-0.183,1787615
-0.004,0.054,0.998,-0.183,1787619
-0.004,0.054,0.999,-0.183,1787623
-0.004,0.054,0.999,-0.244,1787627
-0.004,0.054,0.999,-0.244,1787631
-0.005,0.053,0.998,-0.183,1787635
-0.005,0.053,0.998,-0.244,1787638
-0.005,0.055,0.999,-0.122,1787642
-0.005,0.055,0.999,0.0,1787646
-0.005,0.055,0.999,0.0,1787650
-0.004,0.054,0.996,-0.061,1787654
-0.004,0.054,0.996,-0.122,1787658
-0.002,0.052,0.997,-0.183,1787662
-0.002,0.052,0.997,-0.183,1787666
-0.002,0.052,0.997,-0.244,1787670
-0.004,0.053,1.0,-0.061,1787674
-0.004,0.053,1.0,-0.122,1787678
-0.004,0.053,0.999,-0.183,1787682
-0.004,0.053,0.999,-0.183,1787686
-0.004,0.053,0.999,-0.244,1787690
-0.006,0.052,0.998,-0.305,1787694
-0.006,0.052,0.998,-0.305,1787698
-0.006,0.053,0.996,-0.244,1787702
-0.006,0.053,0.996,-0.244,1787706
-0.006,0.053,0.996,-0.305,1787710
-0.004,0.054,0.999,-0.183,1787714
-0.004,0.054,0.999,-0.305,1787718
-0.005,0.053,1.0,-0.305,1787722
-0.005,0.053,1.0,-0.305,1787726
-0.005,0.053,1.0,-0.244,1787730
-0.005,0.054,0.998,-0.183,1787734
-0.005,0.054,0.998,-0.183,1787738
-0.007,0.055,0.997,-0.183,1787742
-0.007,0.055,0.997,-0.183,1787746
-0.007,0.055,0.997,-0.122,1787749
-0.006,0.053,0.995,-0.244,1787753
-0.006,0.053,0.995,-0.183,1787757
-0.006,0.055,0.997,-0.244,1787761
-0.006,0.055,0.997,-0.244,1787765
-0.006,0.055,0.997,-0.122,1787769
-0.007,0.055,0.998,-0.061,1787773
-0.007,0.055,0.998,-0.244,1787777
-0.007,0.054,0.997,-0.183,1787781
-0.007,0.054,0.997,-0.183,1787785
-0.007,0.054,0.997,-0.305,1787789
-0.004,0.055,0.998,-0.244,1787793
-0.004,0.055,0.998,-0.183,1787797
-0.005,0.056,0.999,-0.122,1787801
-0.005,0.056,0.999,-0.122,1787805
-0.005,0.056,0.999,-0.122,1787809
-0.006,0.055,0.999,-0.183,1787813
-0.006,0.055,0.999,-0.366,1787817
-0.005,0.054,0.998,-0.305,1787821
-0.005,0.054,0.998,-0.305,1787825
-0.005,0.054,0.998,-0.183,1787829
-0.005,0.055,0.996,-0.244,1787833
-0.005,0.055,0.996,-0.244,1787837
-0.004,0.054,0.997,-0.122,1787841
-0.004,0.054,0.997,-0.122,1787845
-0.004,0.054,0.997,-0.183,1787849
-0.005,0.054,0.999,-0.183,1787853
-0.005,0.054,0.999,-0.122,1787857
-0.003,0.053,0.998,-0.061,1787861
-0.003,0.053,0.998,-0.183,1787865
-0.003,0.053,0.998,-0.183,1787869
-0.005,0.052,0.998,-0.183,1787873
-0.005,0.052,0.998,-0.122,1787877
-0.005,0.053,0.999,-0.061,1787881
-0.005,0.053,0.999,-0.183,1787885
-0.005,0.053,0.999,-0.183,1787888
-0.005,0.053,0.999,0.0,1787892
-0.005,0.053,0.999,-0.244,1787896
-0.005,0.053,0.998,-0.244,1787900
-0.005,0.053,0.998,-0.244,1787904
-0.005,0.053,0.998,-0.244,1787908
-0.003,0.053,0.997,-0.183,1787912
-0.003,0.053,0.997,-0.183,1787916
-0.005,0.054,1.0,-0.244,1787920
-0.005,0.054,1.0,-0.244,1787924
-0.005,0.054,1.0,-0.183,1787928
-0.006,0.054,1.001,-0.183,1787932
-0.006,0.054,1.001,-0.244,1787936
-0.005,0.052,0.999,-0.183,1787940
-0.005,0.052,0.999,-0.183,1787944
-0.005,0.052,0.999,-0.183,1787948
-0.006,0.054,0.995,-0.244,1787952
-0.006,0.054,0.995,-0.244,1787956
-0.006,0.055,0.996,-0.244,1787960
-0.006,0.055,0.996,-0.244,1787964
-0.006,0.055,0.996,-0.244,1787968
-0.004,0.055,0.999,-0.244,1787972
-0.004,0.055,0.999,-0.305,1787976
-0.005,0.056,0.996,-0.183,1787980
-0.005,0.056,0.996,-0.122,1787984
-0.005,0.056,0.996,-0.122,1787988
-0.004,0.054,0.997,-0.122,1787992
-0.004,0.054,0.997,-0.183,1787996
-0.004,0.054,0.998,-0.244,1788000
-0.004,0.054,0.998,-0.183,1788004
-0.004,0.054,0.998,-0.183,1788008
-0.007,0.055,0.998,-0.244,1788012
-0.007,0.055,0.998,-0.183,1788015
-0.005,0.054,0.998,-0.183,1788019
-0.005,0.054,0.998,-0.122,1788023
-0.005,0.054,0.998,-0.122,1788027
-0.004,0.054,0.998,-0.305,1788031
-0.004,0.054,0.998,-0.244,1788035
-0.006,0.055,0.998,-0.305,1788039
-0.006,0.055,0.998,-0.183,1788043
-0.006,0.055,0.998,-0.183,1788047
-0.005,0.055,0.997,0.0,1788051
-0.005,0.055,0.997,-0.183,1788055
-0.005,0.055,0.996,-0.183,1788059
-0.005,0.055,0.996,-0.305,1788063
-0.005,0.055,0.996,-0.305,1788067
-0.007,0.055,0.997,-0.244,1788071
-0.007,0.055,0.997,-0.183,1788075
-0.006,0.055,0.997,-0.244,1788079
-0.006,0.055,0.997,-0.183,1788083
-0.006,0.055,0.997,-0.183,1788087
-0.005,0.053,0.996,-0.122,1788091
-0.005,0.053,0.996,-0.061,1788095
-0.005,0.054,0.996,-0.061,1788099
-0.005,0.054,0.996,-0.183,1788103
-0.005,0.054,0.996,-0.183,1788107
-0.005,0.054,0.998,-0.183,1788111
-0.005,0.054,0.998,-0.244,1788115
-0.006,0.056,1.0,-0.366,1788119
-0.006,0.056,1.0,-0.305,1788123
-0.006,0.056,1.0,-0.305,1788127
-0.005,0.056,0.997,-0.305,1788131
-0.005,0.056,0.997,-0.305,1788134
-0.005,0.055,0.993,-0.244,1788138
-0.005,0.055,0.993,-0.244,1788142
-0.005,0.055,0.993,-0.244,1788146
-0.006,0.054,0.997,-0.183,1788150
-0.006,0.054,0.997,-0.244,1788154
-0.006,0.053,1.002,-0.244,1788158
-0.006,0.053,1.002,-0.061,1788162
-0.006,0.053,1.002,-0.061,1788166
-0.004,0.053,1.0,-0.183,1788170
-0.004,0.053,1.0,-0.244,1788174
-0.004,0.053,0.997,-0.122,1788178
-0.004,0.053,0.997,-0.183,1788182
-0.004,0.053,0.997,-0.183,1788186
-0.004,0.055,0.999,-0.183,1788190
-0.004,0.055,0.999,-0.061,1788194
-0.005,0.055,1.0,-0.122,1788198
-0.005,0.055,1.0,-0.183,1788202
-0.005,0.055,1.0,-0.183,1788206
-0.007,0.055,0.998,-0.122,1788210
-0.007,0.055,0.998,-0.122,1788214
-0.006,0.054,0.996,-0.244,1788218
-0.006,0.054,0.996,-0.244,1788222
-0.006,0.054,0.996,-0.244,1788226
-0.003,0.053,0.999,-0.244,1788230
-0.003,0.053,0.999,-0.305,1788234
-0.004,0.054,1.0,-0.122,1788238
-0.004,0.054,1.0,-0.183,1788242
-0.004,0.054,1.0,-0.183,1788246
-0.006,0.054,0.997,-0.244,1788250
-0.006,0.054,0.997,-0.244,1788254
-0.005,0.052,0.997,-0.183,1788258
-0.005,0.052,0.997,-0.061,1788262
-0.005,0.052,0.997,-0.061,1788266
-0.006,0.054,1.0,-0.122,1788269
-0.006,0.054,1.0,-0.183,1788273
-0.004,0.053,0.996,-0.122,1788277
-0.004,0.053,0.996,-0.122,1788281
-0.004,0.053,0.996,-0.122,1788285
-0.003,0.051,0.99,-0.244,1788289
-0.003,0.051,0.99,-0.244,1788293
-0.004,0.053,1.003,-0.183,1788297
-0.004,0.053,1.003,-0.244,1788301
-0.004,0.053,1.003,-0.244,1788305
-0.004,0.053,1.003,-0.244,1788309
-0.004,0.053,1.003,-0.244,1788313
-0.004,0.055,0.992,-0.122,1788317
-0.004,0.055,0.992,-0.305,1788321
-0.004,0.055,0.992,-0.305,1788325
-0.004,0.055,1.005,-0.305,1788329
-0.004,0.055,1.005,-0.183,1788333
-0.004,0.053,1.001,-0.183,1788337
-0.004,0.053,1.001,-0.183,1788341
-0.004,0.053,1.001,-0.183,1788345
-0.005,0.055,0.992,-0.183,1788349
-0.005,0.055,0.992,-0.183,1788353
-0.006,0.054,1.007,-0.122,1788357
-0.006,0.054,1.007,-0.122,1788361
-0.006,0.054,1.007,-0.122,1788365
-0.006,0.054,1.001,-0.122,1788369
-0.006,0.054,1.001,-0.122,1788373
-0.004,0.053,0.989,-0.122,1788377
-0.004,0.053,0.989,-0.122,1788381
-0.004,0.053,0.989,-0.122,1788385
-0.005,0.053,0.997,-0.061,1788389
-0.005,0.053,0.997,0.0,1788392
-0.006,0.054,1.004,-0.122,1788396
-0.006,0.054,1.004,-0.122,1788400
-0.006,0.054,1.004,-0.122,1788404
-0.005,0.054,0.997,-0.122,1788408
-0.005,0.054,0.997,-0.244,1788412
-0.004,0.054,0.991,-0.244,1788416
-0.004,0.054,0.991,-0.305,1788420
-0.004,0.054,0.991,-0.305,1788424
-0.005,0.054,1.0,-0.183,1788428
-0.005,0.054,1.0,-0.305,1788432
-0.005,0.056,0.998,-0.183,1788436
-0.005,0.056,0.998,-0.122,1788440
-0.005,0.056,0.998,-0.122,1788444
-0.007,0.055,0.994,-0.183,1788448
-0.007,0.055,0.994,-0.122,1788452
-0.005,0.054,1.001,-0.244,1788456
-0.005,0.054,1.001,-0.244,1788460
-0.005,0.054,1.001,-0.244,1788464
-0.006,0.055,0.998,-0.183,1788468
-0.006,0.055,0.998,-0.183,1788472
-0.005,0.055,0.994,-0.183,1788476
-0.005,0.055,0.994,-0.244,1788480
-0.005,0.055,0.994,-0.244,1788484
-0.005,0.052,0.996,-0.122,1788488
-0.005,0.052,0.996,-0.122,1788492
-0.007,0.055,1.003,-0.183,1788496
-0.007,0.055,1.003,-0.183,1788500
-0.007,0.055,1.003,-0.183,1788504
-0.004,0.055,1.0,-0.244,1788508
-0.004,0.055,1.0,-0.244,1788512
-0.003,0.053,0.996,-0.183,1788515
-0.003,0.053,0.996,-0.183,1788519
-0.003,0.053,0.996,-0.183,1788523
-0.004,0.052,1.001,-0.183,1788527
-0.004,0.052,1.001,-0.183,1788531
-0.005,0.053,1.0,-0.183,1788535
-0.005,0.053,1.0,-0.183,1788539
-0.005,0.053,1.0,-0.183,1788543
-0.005,0.054,0.995,-0.183,1788547
-0.005,0.054,0.995,-0.305,1788551
-0.004,0.052,0.998,-0.061,1788555
-0.004,0.052,0.998,0.122,1788559
-0.004,0.052,0.998,0.122,1788563
-0.004,0.052,1.0,-0.122,1788567
-0.004,0.052,1.0,-0.305,1788571
-0.005,0.053,0.995,-0.122,1788575
-0.005,0.053,0.995,-0.183,1788579
-0.005,0.053,0.995,-0.183,1788583
-0.005,0.053,0.996,-0.305,1788587
-0.005,0.053,0.996,-0.183,1788591
-0.005,0.053,1.0,-0.122,1788595
-0.005,0.053,1.0,-0.122,1788599
-0.005,0.053,1.0,-0.122,1788603
-0.003,0.052,1.0,-0.244,1788607
-0.003,0.052,1.0,-0.305,1788611
-0.003,0.052,1.0,-0.122,1788615
-0.003,0.052,1.0,-0.061,1788619
-0.003,0.052,1.0,-0.061,1788623
-0.003,0.052,0.999,-0.183,1788627
-0.003,0.052,0.999,-0.183,1788631
-0.003,0.053,1.0,-0.183,1788635
-0.003,0.053,1.0,-0.244,1788639
-0.003,0.053,1.0,-0.244,1788642
-0.002,0.053,0.999,-0.061,1788646
-0.002,0.053,0.999,-0.183,1788650
-0.003,0.054,1.0,-0.122,1788654
-0.003,0.054,1.0,-0.183,1788658
-0.003,0.054,1.0,-0.183,1788662
-0.004,0.053,1.0,-0.183,1788666
-0.004,0.053,1.0,-0.183,1788670
-0.003,0.052,0.997,-0.305,1788674
-0.003,0.052,0.997,-0.183,1788678
-0.003,0.052,0.997,-0.183,1788682
-0.001,0.054,0.997,-0.061,1788686
-0.001,0.054,0.997,-0.183,1788690
-0.002,0.055,1.001,-0.183,1788694
-0.002,0.055,1.001,-0.183,1788698
-0.002,0.055,1.001,-0.183,1788702
-0.006,0.055,1.001,-0.061,1788706
-0.006,0.055,1.001,-0.183,1788710
-0.005,0.055,0.995,-0.183,1788714
-0.005,0.055,0.995,-0.244,1788718
-0.005,0.055,0.995,-0.244,1788722
-0.006,0.055,0.996,-0.122,1788726
-0.006,0.055,0.996,-0.122,1788730
-0.005,0.054,1.0,-0.061,1788734
-0.005,0.054,1.0,-0.122,1788738
-0.005,0.054,1.0,-0.122,1788742
-0.007,0.055,0.998,-0.244,1788746
-0.007,0.055,0.998,-0.244,1788750
-0.005,0.054,0.993,-0.122,1788754
-0.005,0.054,0.993,-0.122,1788758
-0.005,0.054,0.993,-0.122,1788762
-0.007,0.054,0.997,-0.244,1788766
-0.007,0.054,0.997,-0.244,1788770
-0.009,0.055,0.997,-0.122,1788774
-0.009,0.055,0.997,-0.244,1788778
-0.009,0.055,0.997,-0.244,1788781
-0.007,0.056,0.993,-0.244,1788785
-0.007,0.056,0.993,-0.244,1788789
-0.007,0.056,0.995,-0.183,1788793
-0.007,0.056,0.995,-0.244,1788797
-0.007,0.056,0.995,-0.244,1788801
-0.008,0.057,0.995,-0.305,1788805
-0.008,0.057,0.995,-0.244,1788809
-0.006,0.056,0.997,-0.183,1788813
-0.006,0.056,0.997,-0.183,1788817
-0.006,0.056,0.997,-0.183,1788821
-0.007,0.055,0.997,-0.183,1788825
-0.007,0.055,0.997,-0.122,1788829
-0.007,0.053,0.998,-0.244,1788833
-0.007,0.053,0.998,-0.244,1788837
-0.007,0.053,0.998,-0.244,1788841
-0.006,0.054,0.997,-0.183,1788845
-0.006,0.054,0.997,-0.183,1788849
-0.007,0.055,0.992,-0.305,1788853
-0.007,0.055,0.992,-0.244,1788857
-0.007,0.055,0.992,-0.244,1788861
-0.01,0.055,0.989,-0.122,1788865
-0.01,0.055,0.989,-0.183,1788869
-0.008,0.055,1.006,-0.122,1788873
-0.008,0.055,1.006,-0.183,1788877
-0.008,0.055,1.006,-0.183,1788881
-0.002,0.051,1.019,-0.122,1788885
-0.002,0.051,1.019,-0.183,1788889
-0.002,0.051,0.993,-0.305,1788893
-0.002,0.051,0.993,-0.183,1788897
-0.002,0.051,0.993,-0.183,1788901
-0.002,0.054,0.986,-0.183,1788905
-0.002,0.054,0.986,-0.305,1788909
-0.001,0.056,0.998,-0.244,1788913
-0.001,0.056,0.998,-0.122,1788917
-0.001,0.056,0.998,-0.122,1788920
-0.003,0.057,1.009,-0.122,1788924
-0.003,0.057,1.009,-0.366,1788928
-0.004,0.054,0.997,-0.305,1788932
-0.004,0.054,0.997,-0.122,1788936
-0.004,0.054,0.997,-0.122,1788940
-0.002,0.052,0.991,-0.122,1788944
-0.002,0.052,0.991,-0.183,1788948
-0.0,0.051,1.003,-0.183,1788952
-0.0,0.051,1.003,-0.244,1788956
-0.0,0.051,1.003,-0.244,1788960
0.0,0.053,1.004,-0.122,1788964
0.0,0.053,1.004,-0.061,1788968
-0.003,0.053,1.004,-0.122,1788972
-0.003,0.053,1.004,-0.305,1788976
-0.003,0.053,1.004,-0.305,1788980
-0.006,0.054,0.999,-0.427,1788984
-0.006,0.054,0.999,-0.183,1788988
-0.003,0.052,0.995,-0.122,1788992
-0.003,0.052,0.995,-0.305,1788996
-0.003,0.052,0.995,-0.305,1789000
-0.003,0.05,0.999,-0.122,1789004
-0.003,0.05,0.999,-0.061,1789008
-0.003,0.051,0.995,-0.122,1789012
-0.003,0.051,0.995,-0.183,1789016
-0.003,0.051,0.995,-0.183,1789020
-0.005,0.053,0.996,-0.244,1789024
-0.005,0.053,0.996,-0.305,1789028
-0.008,0.052,0.999,-0.366,1789032
-0.008,0.052,0.999,-0.244,1789036
-0.008,0.052,0.999,-0.244,1789040
-0.006,0.053,0.999,-0.305,1789044
-0.006,0.053,0.999,-0.244,1789047
-0.006,0.051,1.001,-0.244,1789051
-0.006,0.051,1.001,-0.183,1789055
-0.006,0.051,1.001,-0.183,1789059
-0.007,0.049,0.997,-0.122,1789063
-0.007,0.049,0.997,-0.183,1789067
-0.006,0.051,0.994,-0.244,1789071
-0.006,0.051,0.994,-0.244,1789075
-0.006,0.051,0.994,-0.244,1789079
-0.007,0.052,0.996,-0.305,1789083
-0.007,0.052,0.996,-0.244,1789087
-0.01,0.056,0.997,-0.305,1789091
-0.01,0.056,0.997,-0.122,1789095
-0.01,0.056,0.997,-0.122,1789099
-0.008,0.056,0.998,-0.122,1789103
-0.008,0.056,0.998,-0.183,1789107
-0.006,0.056,0.996,-0.244,1789111
-0.006,0.056,0.996,-0.183,1789115
-0.006,0.056,0.996,-0.183,1789119
-0.006,0.056,0.996,-0.183,1789123
-0.006,0.056,0.996,-0.244,1789127
-0.005,0.06,0.997,-0.122,1789131
-0.005,0.06,0.997,-0.122,1789135
-0.005,0.06,0.997,-0.122,1789139
-0.004,0.062,0.995,-0.183,1789143
-0.004,0.062,0.995,-0.183,1789147
-0.006,0.062,0.997,-0.244,1789151
-0.006,0.062,0.997,-0.183,1789155
-0.006,0.062,0.997,-0.183,1789159
-0.004,0.059,0.995,-0.427,1789163
-0.004,0.059,0.995,-0.366,1789167
-0.006,0.057,0.997,-0.122,1789171
-0.006,0.057,0.997,-0.244,1789175
-0.006,0.057,0.997,-0.244,1789178
-0.005,0.056,0.999,-0.183,1789182
-0.005,0.056,0.999,-0.183,1789186
-0.003,0.055,0.999,-0.183,1789190
-0.003,0.055,0.999,-0.122,1789194
-0.003,0.055,0.999,-0.122,1789198
-0.006,0.056,1.0,-0.244,1789202
-0.006,0.056,1.0,-0.366,1789206
-0.006,0.055,0.997,-0.244,1789210
-0.006,0.055,0.997,-0.183,1789214
-0.006,0.055,0.997,-0.183,1789218
-0.008,0.053,0.997,-0.183,1789222
-0.008,0.053,0.997,-0.183,1789226
-0.007,0.051,0.996,-0.244,1789230
-0.007,0.051,0.996,-0.122,1789234
-0.007,0.051,0.996,-0.122,1789238
-0.008,0.05,0.997,-0.061,1789242
-0.008,0.05,0.997,-0.122,1789246
-0.006,0.05,1.0,-0.183,1789250
-0.006,0.05,1.0,-0.244,1789254
-0.006,0.05,1.0,-0.244,1789258
-0.006,0.049,1.0,-0.305,1789262
-0.006,0.049,1.0,-0.122,1789266
-0.005,0.048,0.998,-0.244,1789270
-0.005,0.048,0.998,-0.183,1789274
-0.005,0.048,0.998,-0.183,1789278
-0.005,0.05,0.998,-0.183,1789282
-0.005,0.05,0.998,-0.244,1789286
-0.003,0.049,0.998,-0.061,1789290
-0.003,0.049,0.998,-0.122,1789294
-0.003,0.049,0.998,-0.122,1789298
-0.002,0.05,0.998,-0.122,1789302
-0.002,0.05,0.998,-0.183,1789306
-0.001,0.051,0.996,-0.061,1789309
-0.001,0.051,0.996,-0.183,1789313
-0.001,0.051,0.996,-0.183,1789317
-0.002,0.053,0.998,-0.122,1789321
-0.002,0.053,0.998,-0.183,1789325
-0.0,0.052,1.006,-0.183,1789329
-0.0,0.052,1.006,-0.244,1789333
-0.0,0.052,1.006,-0.244,1789337
-0.001,0.053,0.991,-0.305,1789341
-0.001,0.053,0.991,-0.244,1789345
-0.001,0.055,0.997,-0.183,1789349
-0.001,0.055,0.997,-0.122,1789353
-0.001,0.055,0.997,-0.122,1789357
-0.001,0.054,1.003,-0.244,1789361
-0.001,0.054,1.003,-0.244,1789365
-0.003,0.059,0.996,-0.305,1789369
-0.003,0.059,0.996,-0.244,1789373
-0.003,0.059,0.996,-0.244,1789377
-0.004,0.055,1.003,-0.122,1789381
-0.004,0.055,1.003,-0.183,1789385
-0.004,0.055,0.993,-0.183,1789389
-0.004,0.055,0.993,-0.244,1789393
-0.004,0.055,0.993,-0.244,1789397
-0.004,0.055,1.001,-0.244,1789401
-0.004,0.055,1.001,-0.244,1789405
-0.008,0.055,0.994,-0.244,1789409
-0.008,0.055,0.994,-0.61,1789413
-0.008,0.055,0.994,-0.61,1789417
-0.007,0.056,0.997,-0.671,1789421
-0.007,0.056,0.997,-0.427,1789425
-0.009,0.056,1.001,-0.488,1789429
-0.009,0.056,1.001,-0.732,1789433
-0.009,0.056,1.001,-0.732,1789437
-0.011,0.056,0.99,-1.282,1789441
-0.011,0.056,0.99,-0.793,1789444
-0.011,0.055,0.993,-0.183,1789448
-0.011,0.055,0.993,-0.183,1789452
-0.011,0.055,0.993,-0.183,1789456
-0.01,0.056,0.996,-0.305,1789460
-0.01,0.056,0.996,-0.244,1789464
-0.01,0.057,0.998,-0.183,1789468
-0.01,0.057,0.998,-0.061,1789472
-0.01,0.057,0.998,-0.061,1789476
-0.009,0.056,0.996,-0.183,1789480
-0.009,0.056,0.996,-0.061,1789484
-0.008,0.055,0.997,-0.244,1789488
-0.008,0.055,0.997,-0.305,1789492
-0.008,0.055,0.997,-0.305,1789496
-0.006,0.054,1.001,-0.244,1789500
-0.006,0.054,1.001,-0.244,1789504
-0.005,0.055,0.996,-0.183,1789508
-0.005,0.055,0.996,-0.061,1789512
-0.005,0.055,0.996,-0.061,1789516
-0.002,0.054,0.994,-0.244,1789520
-0.002,0.054,0.994,-0.183,1789524
-0.002,0.053,1.0,-0.305,1789528
-0.002,0.053,1.0,-0.305,1789532
-0.002,0.053,1.0,-0.305,1789536
-0.002,0.053,1.0,-0.244,1789540
-0.002,0.053,1.0,-0.183,1789544
0.001,0.052,0.998,-0.244,1789548
0.001,0.052,0.998,-0.183,1789552
0.001,0.052,0.998,-0.183,1789556
0.0,0.052,0.997,-0.305,1789560
0.0,0.052,0.997,-0.305,1789564
-0.001,0.055,1.0,-0.244,1789568
-0.001,0.055,1.0,-0.061,1789572
-0.001,0.055,1.0,-0.061,1789576
-0.001,0.053,0.998,-0.183,1789580
-0.001,0.053,0.998,-0.183,1789584
-0.002,0.055,0.998,-0.061,1789588
-0.002,0.055,0.998,-0.244,1789591
-0.002,0.055,0.998,-0.244,1789595
-0.005,0.056,0.999,-0.244,1789599
-0.005,0.056,0.999,-0.122,1789603
-0.007,0.058,0.999,-0.061,1789607
-0.007,0.058,0.999,-0.183,1789611
-0.007,0.058,0.999,-0.183,1789615
-0.007,0.057,1.001,-0.244,1789619
-0.007,0.057,1.001,-0.366,1789623
-0.006,0.053,1.0,-0.305,1789627
-0.006,0.053,1.0,-0.366,1789631
-0.006,0.053,1.0,-0.366,1789635
-0.008,0.05,0.987,-0.305,1789639
-0.008,0.05,0.987,-0.244,1789643
-0.009,0.051,0.992,-0.122,1789647
-0.009,0.051,0.992,-0.244,1789651
-0.009,0.051,0.992,-0.244,1789655
-0.01,0.05,1.004,-0.122,1789659
-0.01,0.05,1.004,-0.244,1789663
-0.012,0.051,0.999,-0.122,1789667
-0.012,0.051,0.999,-0.183,1789671
-0.012,0.051,0.999,-0.183,1789675
-0.011,0.052,0.992,-0.122,1789679
-0.011,0.052,0.992,-0.183,1789683
-0.013,0.055,0.998,-0.061,1789687
-0.013,0.055,0.998,-0.061,1789691
-0.013,0.055,0.998,-0.061,1789695
-0.01,0.053,1.001,-0.244,1789699
-0.01,0.053,1.001,-0.305,1789703
-0.007,0.049,0.998,-0.061,1789707
-0.007,0.049,0.998,-0.061,1789711
-0.007,0.049,0.998,-0.061,1789714
-0.004,0.048,0.995,-0.061,1789718
-0.004,0.048,0.995,-0.183,1789722
-0.002,0.047,0.996,-0.183,1789726
-0.002,0.047,0.996,-0.122,1789730
-0.002,0.047,0.996,-0.122,1789734
-0.0,0.048,1.001,-0.061,1789738
-0.0,0.048,1.001,-0.122,1789742
0.003,0.049,0.999,-0.122,1789746
0.003,0.049,0.999,-0.244,1789750
0.003,0.049,0.999,-0.244,1789754
0.004,0.052,0.995,-0.183,1789758
0.004,0.052,0.995,-0.183,1789762
0.004,0.05,1.004,-0.183,1789766
0.004,0.05,1.004,-0.183,1789770
0.004,0.05,1.004,-0.183,1789774
0.002,0.05,1.004,-0.122,1789778
0.002,0.05,1.004,-0.122,1789782
0.003,0.05,1.0,-0.183,1789786
0.003,0.05,1.0,-0.122,1789790
0.003,0.05,1.0,-0.122,1789794
0.0,0.051,1.006,-0.122,1789798
0.0,0.051,1.006,-0.061,1789802
0.0,0.051,1.001,-0.183,1789806
0.0,0.051,1.001,-0.183,1789810
0.0,0.051,1.001,-0.183,1789814
-0.005,0.055,0.984,-0.183,1789818
-0.005,0.055,0.984,-0.244,1789822
-0.007,0.056,0.999,-0.244,1789826
-0.007,0.056,0.999,-0.122,1789830
-0.007,0.056,0.999,-0.122,1789834
-0.004,0.055,1.025,-0.183,1789838
-0.004,0.055,1.025,-0.183,1789842
-0.001,0.055,1.009,-0.183,1789845
-0.001,0.055,1.009,-0.183,1789849
-0.001,0.055,1.009,-0.183,1789853
0.001,0.058,0.981,-0.122,1789857
0.001,0.058,0.981,-0.061,1789861
-0.003,0.067,0.985,-0.183,1789865
-0.003,0.067,0.985,-0.061,1789869
-0.003,0.067,0.985,-0.061,1789873
-0.009,0.071,1.008,-0.183,1789877
-0.009,0.071,1.008,-0.061,1789881
-0.014,0.072,0.994,-0.183,1789885
-0.014,0.072,0.994,-0.366,1789889
-0.014,0.072,0.994,-0.366,1789893
-0.018,0.067,0.973,-0.366,1789897
-0.018,0.067,0.973,-0.305,1789901
-0.017,0.065,0.98,-0.427,1789905
-0.017,0.065,0.98,-0.305,1789909
-0.017,0.065,0.98,-0.305,1789913
-0.015,0.063,1.005,-0.305,1789917
-0.015,0.063,1.005,-0.366,1789921
-0.016,0.059,1.01,-0.488,1789925
-0.016,0.059,1.01,-0.305,1789929
-0.016,0.059,1.01,-0.305,1789933
-0.014,0.055,1.002,-0.244,1789937
-0.014,0.055,1.002,-0.305,1789941
-0.012,0.051,1.0,-0.305,1789945
-0.012,0.051,1.0,-0.183,1789949
-0.012,0.051,1.0,-0.183,1789953
-0.01,0.049,0.99,-0.183,1789957
-0.01,0.049,0.99,-0.183,1789961
-0.007,0.048,0.994,-0.183,1789965
-0.007,0.048,0.994,-0.244,1789969
-0.007,0.048,0.994,-0.244,1789973
-0.003,0.046,0.995,-0.244,1789977
-0.003,0.046,0.995,-0.305,1789980
0.0,0.048,0.995,-0.183,1789984
0.0,0.048,0.995,-0.244,1789988
0.0,0.048,0.995,-0.244,1789992
0.006,0.047,1.014,-0.244,1789996
0.006,0.047,1.014,-0.305,1790000
0.011,0.044,1.017,-0.183,1790004
0.011,0.044,1.017,-0.122,1790008
0.014,0.043,1.008,-0.244,1790012
0.014,0.043,1.008,-0.244,1790016
0.014,0.043,1.008,-0.305,1790020
0.013,0.042,0.998,-0.183,1790024
0.013,0.042,0.998,-0.122,1790028
0.01,0.047,1.004,-0.122,1790032
0.01,0.047,1.004,-0.122,1790036
0.01,0.047,1.004,-0.244,1790040
0.007,0.046,1.016,-0.244,1790044
0.007,0.046,1.016,-0.122,1790048
0.008,0.048,0.986,-0.183,1790052
0.008,0.048,0.986,-0.183,1790056
0.008,0.048,0.986,-0.122,1790060
0.006,0.048,0.984,-0.183,1790064
0.006,0.048,0.984,0.0,1790068
0.001,0.051,1.002,-0.061,1790072
0.001,0.051,1.002,-0.061,1790076
0.001,0.051,1.002,-0.122,1790080
-0.001,0.055,1.016,0.0,1790084
-0.001,0.055,1.016,-0.061,1790088
-0.001,0.057,1.023,0.061,1790092
-0.001,0.057,1.023,0.061,1790096
-0.001,0.057,1.023,0.0,1790099
-0.001,0.059,1.003,0.0,1790103
-0.001,0.059,1.003,-0.122,1790107
-0.001,0.059,1.003,-0.122,1790111
-0.004,0.062,0.985,-0.061,1790115
-0.004,0.062,0.985,-0.061,1790119
-0.011,0.063,0.991,0.0,1790123
-0.011,0.063,0.991,-0.366,1790127
-0.011,0.063,0.991,-0.366,1790131
-0.019,0.066,0.983,-0.427,1790135
-0.019,0.066,0.983,-0.427,1790139
-0.023,0.064,0.972,-0.549,1790143
-0.023,0.064,0.972,-0.732,1790147
-0.023,0.064,0.972,-0.732,1790151
-0.025,0.06,0.983,-0.61,1790155
-0.025,0.06,0.983,-0.427,1790159
-0.02,0.056,1.001,-0.244,1790163
-0.02,0.056,1.001,-0.305,1790167
-0.02,0.056,1.001,-0.305,1790171
-0.014,0.054,1.015,-0.183,1790175
-0.014,0.054,1.015,-0.244,1790179
-0.014,0.054,0.997,-0.061,1790183
-0.014,0.054,0.997,0.061,1790187
-0.014,0.054,0.997,0.061,1790191
-0.018,0.057,0.99,0.0,1790195
-0.018,0.057,0.99,0.0,1790199
-0.021,0.062,0.994,-0.061,1790202
-0.021,0.062,0.994,-0.122,1790206
-0.021,0.062,0.994,-0.122,1790210
-0.021,0.065,0.981,-0.122,1790214
-0.021,0.065,0.981,-0.244,1790218
-0.015,0.062,0.971,-0.366,1790222
-0.015,0.062,0.971,-0.305,1790226
-0.015,0.062,0.971,-0.305,1790230
-0.005,0.057,0.997,-0.244,1790234
-0.005,0.057,0.997,-0.427,1790238
0.003,0.05,1.021,-0.427,1790242
0.003,0.05,1.021,-0.366,1790246
0.003,0.05,1.021,-0.366,1790250
0.007,0.048,1.004,-0.305,1790254
0.007,0.048,1.004,-0.305,1790258
0.006,0.047,1.006,-0.244,1790262
0.006,0.047,1.006,-0.183,1790266
0.006,0.047,1.006,-0.183,1790270
0.003,0.047,1.011,0.0,1790274
0.003,0.047,1.011,0.0,1790278
0.005,0.049,0.992,-0.122,1790282
0.005,0.049,0.992,-0.122,1790286
0.005,0.049,0.992,-0.122,1790290
0.004,0.049,0.992,0.0,1790294
0.004,0.049,0.992,-0.061,1790298
0.006,0.049,1.0,-0.244,1790302
0.006,0.049,1.0,-0.122,1790306
0.006,0.049,1.0,-0.122,1790310
0.009,0.051,1.003,-0.183,1790314
0.009,0.051,1.003,-0.122,1790318
0.005,0.051,1.007,0.0,1790322
0.005,0.051,1.007,-0.244,1790326
0.005,0.051,1.007,-0.244,1790330
0.002,0.052,1.005,-0.366,1790333
0.002,0.052,1.005,-0.183,1790337
-0.0,0.05,1.01,-0.183,1790341
-0.0,0.05,1.01,-0.183,1790345
-0.0,0.05,1.01,-0.183,1790349
-0.003,0.048,0.998,-0.061,1790353
-0.003,0.048,0.998,-0.061,1790357
-0.008,0.049,0.986,-0.305,1790361
-0.008,0.049,0.986,-0.244,1790365
-0.008,0.049,0.986,-0.244,1790369
-0.009,0.052,0.991,-0.183,1790373
-0.009,0.052,0.991,-0.244,1790377
-0.011,0.055,0.994,-0.183,1790381
-0.011,0.055,0.994,-0.061,1790385
-0.011,0.055,0.994,-0.061,1790389
-0.014,0.058,0.991,-0.183,1790393
-0.014,0.058,0.991,-0.183,1790397
-0.016,0.06,0.994,-0.244,1790401
-0.016,0.06,0.994,-0.122,1790405
-0.016,0.06,0.994,-0.122,1790409
-0.014,0.063,0.999,-0.122,1790413
-0.014,0.063,0.999,-0.244,1790417
-0.015,0.063,1.0,-0.061,1790421
-0.015,0.063,1.0,-0.244,1790425
-0.015,0.063,1.0,-0.244,1790429
-0.015,0.065,0.992,-0.122,1790433
-0.015,0.065,0.992,-0.122,1790437
-0.014,0.065,0.988,-0.183,1790441
-0.014,0.065,0.988,-0.183,1790445
-0.014,0.065,0.988,-0.183,1790449
-0.015,0.063,0.986,-0.305,1790453
-0.015,0.063,0.986,-0.427,1790457
-0.013,0.059,0.988,-0.366,1790461
-0.013,0.059,0.988,-0.244,1790465
-0.009,0.056,0.993,-0.244,1790469
-0.009,0.056,0.993,-0.244,1790473
-0.009,0.056,0.993,-0.305,1790477
-0.004,0.052,1.001,-0.305,1790481
-0.004,0.052,1.001,-0.305,1790485
-0.001,0.052,1.006,-0.183,1790488
-0.001,0.052,1.006,-0.183,1790492
-0.001,0.052,1.006,-0.183,1790496
0.001,0.051,1.006,-0.061,1790500
0.001,0.051,1.006,-0.183,1790504
0.002,0.051,1.004,-0.244,1790508
0.002,0.051,1.004,-0.244,1790512
0.002,0.051,1.004,-0.183,1790516
0.003,0.05,1.001,-0.244,1790520
0.003,0.05,1.001,-0.183,1790524
0.004,0.051,0.997,-0.061,1790528
0.004,0.051,0.997,-0.061,1790532
0.004,0.051,0.997,-0.122,1790536
0.006,0.05,1.0,-0.183,1790540
0.006,0.05,1.0,-0.244,1790544
0.007,0.048,1.0,-0.183,1790548
0.007,0.048,1.0,-0.183,1790552
0.007,0.048,1.0,-0.305,1790556
0.007,0.048,1.002,-0.305,1790560
0.007,0.048,1.002,-0.244,1790564
0.004,0.047,1.006,-0.305,1790568
0.004,0.047,1.006,-0.305,1790572
0.004,0.047,1.006,-0.244,1790576
0.003,0.046,1.005,-0.244,1790580
0.003,0.046,1.005,-0.122,1790584
-0.0,0.046,1.004,-0.061,1790588
-0.0,0.046,1.004,-0.061,1790592
-0.0,0.046,1.004,-0.183,1790596
-0.002,0.047,1.001,-0.183,1790600
-0.002,0.047,1.001,0.061,1790604
-0.004,0.051,0.998,-0.061,1790608
-0.004,0.051,0.998,-0.061,1790611
-0.004,0.051,0.998,0.0,1790615
-0.005,0.053,0.994,-0.061,1790619
-0.005,0.053,0.994,-0.122,1790623
-0.005,0.053,0.994,-0.122,1790627
-0.009,0.057,0.99,-0.122,1790631
-0.009,0.057,0.99,-0.122,1790635
-0.011,0.059,0.995,-0.183,1790639
-0.011,0.059,0.995,-0.183,1790643
-0.012,0.063,0.996,-0.122,1790647
-0.012,0.063,0.996,-0.122,1790651
-0.012,0.063,0.996,-0.244,1790655
-0.012,0.063,0.994,-0.244,1790659
-0.012,0.063,0.994,-0.183,1790663
-0.012,0.063,0.994,-0.183,1790667
-0.012,0.061,0.994,-0.183,1790671
-0.012,0.061,0.994,-0.183,1790675
-0.014,0.062,0.993,-0.244,1790679
-0.014,0.062,0.993,-0.305,1790683
-0.016,0.062,0.99,-0.244,1790687
-0.016,0.062,0.99,-0.244,1790691
-0.016,0.062,0.99,-0.183,1790695
-0.016,0.061,0.99,-0.183,1790699
-0.016,0.061,0.99,-0.122,1790703
-0.013,0.062,0.991,-0.122,1790707
-0.013,0.062,0.991,-0.122,1790711
-0.013,0.062,0.991,-0.122,1790715
-0.011,0.061,0.995,-0.122,1790719
-0.011,0.061,0.995,-0.061,1790723
-0.008,0.06,0.996,-0.244,1790727
-0.008,0.06,0.996,-0.244,1790731
-0.008,0.06,0.996,-0.244,1790735
-0.007,0.059,0.998,-0.122,1790739
-0.007,0.059,0.998,-0.244,1790742
-0.006,0.056,1.0,-0.244,1790746
-0.006,0.056,1.0,-0.244,1790750
-0.006,0.056,1.0,-0.244,1790754
-0.005,0.052,0.998,-0.244,1790758
-0.005,0.052,0.998,-0.244,1790762
-0.002,0.05,0.998,-0.244,1790766
-0.002,0.05,0.998,-0.244,1790770
-0.002,0.05,0.998,-0.305,1790774
0.001,0.047,1.0,-0.244,1790778
0.001,0.047,1.0,-0.244,1790782
0.002,0.045,1.003,-0.183,1790786
0.002,0.045,1.003,-0.183,1790790
0.002,0.045,1.003,-0.183,1790794
0.004,0.045,1.005,-0.244,1790798
0.004,0.045,1.005,-0.122,1790802
0.003,0.045,1.005,-0.061,1790806
0.003,0.045,1.005,-0.061,1790810
0.003,0.045,1.005,-0.061,1790814
0.005,0.046,1.007,-0.122,1790818
0.005,0.046,1.007,-0.244,1790822
0.006,0.047,1.005,-0.244,1790826
0.006,0.047,1.005,-0.244,1790830
0.006,0.047,1.005,-0.183,1790834
0.003,0.049,1.0,0.0,1790838
0.003,0.049,1.0,-0.122,1790842
0.004,0.052,1.0,-0.183,1790846
0.004,0.052,1.0,-0.183,1790850
0.004,0.052,1.0,-0.183,1790854
0.0,0.054,0.998,-0.183,1790857
0.0,0.054,0.998,-0.122,1790861
0.0,0.054,0.998,-0.122,1790865
-0.002,0.054,0.997,-0.183,1790869
-0.002,0.054,0.997,-0.061,1790873
-0.004,0.053,0.999,-0.122,1790877
-0.004,0.053,0.999,-0.183,1790881
-0.004,0.053,0.999,-0.183,1790885
-0.005,0.056,1.002,-0.183,1790889
-0.005,0.056,1.002,-0.183,1790893
-0.007,0.056,1.0,-0.122,1790897
-0.007,0.056,1.0,-0.122,1790901
-0.007,0.056,1.0,-0.122,1790905
-0.01,0.058,0.989,-0.183,1790909
-0.01,0.058,0.989,-0.244,1790913
-0.016,0.062,0.981,-0.183,1790917
-0.016,0.062,0.981,-0.244,1790921
-0.016,0.062,0.981,-0.244,1790925
-0.019,0.065,0.995,-0.061,1790929
-0.019,0.065,0.995,-0.244,1790933
-0.021,0.063,1.002,-0.366,1790937
-0.021,0.063,1.002,-0.366,1790941
-0.021,0.063,1.002,-0.366,1790945
-0.018,0.061,0.988,-0.183,1790949
-0.018,0.061,0.988,-0.305,1790953
-0.016,0.061,0.982,-0.366,1790957
-0.016,0.061,0.982,-0.366,1790961
-0.017,0.061,0.995,-0.305,1790965
-0.017,0.061,0.995,-0.305,1790969
-0.017,0.061,0.995,-0.183,1790973
-0.018,0.062,0.998,-0.122,1790977
-0.018,0.062,0.998,-0.183,1790981
-0.017,0.061,0.99,-0.183,1790985
-0.017,0.061,0.99,-0.183,1790988
-0.017,0.061,0.99,-0.244,1790992
-0.01,0.056,0.995,-0.305,1790996
-0.01,0.056,0.995,-0.183,1791000
-0.005,0.052,1.005,-0.183,1791004
-0.005,0.052,1.005,-0.183,1791008
-0.005,0.052,1.005,-0.244,1791012
0.001,0.051,1.002,-0.122,1791016
0.001,0.051,1.002,-0.183,1791020
0.008,0.052,1.006,-0.061,1791024
0.008,0.052,1.006,-0.061,1791028
0.008,0.052,1.006,-0.244,1791032
0.008,0.05,1.012,-0.183,1791036
0.008,0.05,1.012,-0.122,1791040
0.013,0.048,1.005,-0.183,1791044
0.013,0.048,1.005,-0.183,1791048
0.013,0.048,1.005,-0.183,1791052
0.014,0.048,1.0,-0.122,1791056
0.014,0.048,1.0,-0.183,1791060
0.011,0.046,0.998,-0.122,1791064
0.011,0.046,0.998,-0.122,1791068
0.011,0.046,0.998,-0.183,1791072
0.01,0.048,0.997,-0.183,1791076
0.01,0.048,0.997,-0.183,1791080
0.007,0.049,0.998,-0.244,1791084
0.007,0.049,0.998,-0.244,1791088
0.007,0.049,0.998,-0.305,1791092
0.002,0.048,1.003,-0.366,1791096
0.002,0.048,1.003,-0.183,1791100
0.0,0.045,1.008,-0.244,1791104
0.0,0.045,1.008,-0.244,1791108
0.0,0.045,1.008,-0.244,1791112
-0.003,0.046,1.001,-0.061,1791116
-0.003,0.046,1.001,-0.183,1791120
-0.005,0.048,0.998,-0.183,1791124
-0.005,0.048,0.998,-0.183,1791128
-0.005,0.048,0.998,-0.122,1791132
-0.01,0.053,1.004,-0.061,1791136
-0.01,0.053,1.004,-0.061,1791139
-0.012,0.056,0.996,-0.122,1791143
-0.012,0.056,0.996,-0.122,1791147
-0.012,0.056,0.996,-0.122,1791151
-0.012,0.059,0.989,-0.122,1791155
-0.012,0.059,0.989,-0.122,1791159
-0.01,0.061,0.988,-0.122,1791163
-0.01,0.061,0.988,-0.122,1791167
-0.01,0.061,0.988,-0.183,1791171
-0.013,0.06,0.995,-0.305,1791175
-0.013,0.06,0.995,-0.305,1791179
-0.013,0.062,0.999,-0.305,1791183
-0.013,0.062,0.999,-0.305,1791187
-0.013,0.062,0.999,-0.183,1791191
-0.013,0.062,0.994,-0.305,1791195
-0.013,0.062,0.994,-0.244,1791199
-0.015,0.065,0.993,-0.244,1791203
-0.015,0.065,0.993,-0.244,1791207
-0.015,0.065,0.993,-0.122,1791211
-0.015,0.065,0.992,0.0,1791215
-0.015,0.065,0.992,-0.122,1791219
-0.016,0.065,0.99,-0.122,1791223
-0.016,0.065,0.99,-0.122,1791227
-0.016,0.065,0.99,-0.061,1791231
-0.014,0.065,0.989,-0.122,1791235
-0.014,0.065,0.989,-0.122,1791239
-0.01,0.063,0.991,-0.122,1791243
-0.01,0.063,0.991,-0.122,1791247
-0.01,0.063,0.991,-0.122,1791251
-0.006,0.061,0.996,-0.183,1791255
-0.006,0.061,0.996,-0.244,1791259
-0.001,0.059,1.0,-0.183,1791263
-0.001,0.059,1.0,-0.183,1791267
-0.001,0.059,1.0,-0.244,1791271
0.003,0.053,1.002,-0.305,1791275
0.003,0.053,1.002,-0.488,1791279
0.002,0.048,1.004,-0.366,1791282
0.002,0.048,1.004,-0.366,1791286
0.002,0.048,1.004,-0.183,1791290
0.006,0.045,1.0,-0.366,1791294
0.006,0.045,1.0,-0.366,1791298
0.008,0.043,1.003,-0.244,1791302
0.008,0.043,1.003,-0.244,1791306
0.008,0.043,1.003,-0.244,1791310
0.007,0.042,1.005,-0.244,1791314
0.007,0.042,1.005,-0.244,1791318
0.007,0.044,1.005,-0.183,1791322
0.007,0.044,1.005,-0.183,1791326
0.007,0.044,1.005,-0.061,1791330
0.006,0.045,1.004,-0.122,1791334
0.006,0.045,1.004,-0.122,1791338
0.004,0.045,1.006,-0.061,1791342
0.004,0.045,1.006,-0.061,1791346
0.004,0.045,1.006,-0.183,1791350
0.002,0.047,1.005,-0.122,1791354
0.002,0.047,1.005,-0.061,1791358
-0.0,0.05,1.001,-0.244,1791362
-0.0,0.05,1.001,-0.244,1791366
-0.0,0.05,1.001,-0.244,1791370
-0.001,0.052,0.998,-0.122,1791374
-0.001,0.052,0.998,-0.122,1791378
-0.003,0.052,0.998,-0.061,1791382
-0.003,0.052,0.998,-0.061,1791386
-0.003,0.052,0.998,-0.122,1791390
-0.006,0.055,0.998,-0.244,1791394
-0.006,0.055,0.998,-0.183,1791398
-0.006,0.056,0.994,-0.183,1791402
-0.006,0.056,0.994,-0.183,1791406
-0.006,0.056,0.994,-0.244,1791409
-0.009,0.057,0.997,-0.183,1791413
-0.009,0.057,0.997,-0.122,1791417
-0.01,0.06,0.999,-0.122,1791421
-0.01,0.06,0.999,-0.122,1791425
-0.01,0.06,0.999,-0.061,1791429
-0.01,0.065,0.995,-0.122,1791433
-0.01,0.065,0.995,-0.183,1791437
-0.013,0.067,0.993,-0.244,1791441
-0.013,0.067,0.993,-0.244,1791445
-0.013,0.067,0.993,-0.122,1791449
-0.013,0.068,0.99,-0.122,1791453
-0.013,0.068,0.99,-0.244,1791457
-0.016,0.068,0.989,-0.122,1791461
-0.016,0.068,0.989,-0.122,1791465
-0.016,0.068,0.989,-0.183,1791469
-0.017,0.067,0.99,-0.244,1791473
-0.017,0.067,0.99,-0.427,1791477
-0.015,0.064,0.99,-0.183,1791481
-0.015,0.064,0.99,-0.183,1791485
-0.015,0.064,0.99,-0.305,1791489
-0.013,0.06,0.994,-0.244,1791493
-0.013,0.06,0.994,-0.305,1791497
-0.011,0.056,0.996,-0.305,1791501
-0.011,0.056,0.996,-0.305,1791505
-0.011,0.056,0.996,-0.244,1791509
-0.009,0.053,0.995,-0.183,1791513
-0.009,0.053,0.995,-0.183,1791517
-0.008,0.048,1.002,-0.122,1791521
-0.008,0.048,1.002,-0.122,1791525
-0.008,0.048,1.002,-0.061,1791529
-0.004,0.046,1.0,0.0,1791533
-0.004,0.046,1.0,-0.183,1791537
0.0,0.045,0.999,-0.183,1791541
0.0,0.045,0.999,-0.183,1791544
0.0,0.045,0.999,-0.244,1791548
0.003,0.047,1.0,-0.244,1791552
0.003,0.047,1.0,-0.183,1791556
0.003,0.047,1.004,-0.183,1791560
0.003,0.047,1.004,-0.183,1791564
0.003,0.047,1.004,-0.244,1791568
0.007,0.051,1.006,-0.122,1791572
0.007,0.051,1.006,-0.244,1791576
0.008,0.051,1.001,-0.244,1791580
0.008,0.051,1.001,-0.244,1791584
0.008,0.051,1.001,-0.122,1791588
0.006,0.051,1.002,-0.122,1791592
0.006,0.051,1.002,-0.122,1791596
0.006,0.053,1.006,-0.244,1791600
0.006,0.053,1.006,-0.244,1791604
0.006,0.053,1.006,-0.183,1791608
0.005,0.052,1.004,-0.122,1791612
0.005,0.052,1.004,-0.183,1791616
0.006,0.049,1.004,-0.183,1791620
0.006,0.049,1.004,-0.183,1791624
0.006,0.049,1.004,-0.061,1791628
0.004,0.049,1.004,-0.122,1791632
0.004,0.049,1.004,-0.122,1791636
0.004,0.051,1.002,-0.122,1791640
0.004,0.051,1.002,-0.122,1791644
0.004,0.051,1.002,-0.183,1791648
0.001,0.052,1.002,-0.183,1791652
0.001,0.052,1.002,-0.183,1791656
-0.002,0.054,1.0,-0.122,1791660
-0.002,0.054,1.0,-0.122,1791664
-0.002,0.054,1.0,-0.061,1791668
-0.004,0.057,0.995,-0.122,1791672
-0.004,0.057,0.995,-0.061,1791676
-0.006,0.058,0.993,-0.244,1791680
-0.006,0.058,0.993,-0.244,1791683
-0.006,0.058,0.993,-0.183,1791687
-0.01,0.058,0.992,-0.122,1791691
-0.01,0.058,0.992,-0.244,1791695
-0.014,0.059,0.993,-0.305,1791699
-0.014,0.059,0.993,-0.305,1791703
-0.014,0.059,0.993,-0.244,1791707
-0.016,0.056,0.992,-0.244,1791711
-0.016,0.056,0.992,-0.305,1791715
-0.017,0.058,0.994,-0.122,1791719
-0.017,0.058,0.994,-0.122,1791723
-0.017,0.058,0.994,-0.183,1791727
-0.019,0.059,0.994,-0.244,1791731
-0.019,0.059,0.994,-0.122,1791735
-0.017,0.059,0.994,-0.122,1791739
-0.017,0.059,0.994,-0.122,1791743
-0.017,0.059,0.994,-0.122,1791747
-0.017,0.058,0.992,-0.061,1791751
-0.017,0.058,0.992,-0.061,1791755
-0.015,0.058,0.992,-0.122,1791759
-0.015,0.058,0.992,-0.122,1791763
-0.015,0.058,0.992,-0.061,1791767
-0.013,0.059,0.993,-0.244,1791771
-0.013,0.059,0.993,-0.244,1791775
-0.01,0.058,0.996,-0.183,1791779
-0.01,0.058,0.996,-0.183,1791783
-0.01,0.058,0.996,-0.183,1791787
-0.008,0.059,0.995,-0.305,1791791
-0.008,0.059,0.995,-0.244,1791795
-0.005,0.054,1.0,-0.183,1791799
-0.005,0.054,1.0,-0.183,1791803
-0.005,0.054,1.0,-0.305,1791807
-0.002,0.055,1.0,-0.366,1791811
-0.002,0.055,1.0,-0.244,1791815
-0.0,0.056,1.001,-0.183,1791819
-0.0,0.056,1.001,-0.183,1791823
-0.0,0.056,1.001,-0.244,1791827
0.001,0.055,1.002,-0.183,1791831
0.001,0.055,1.002,-0.122,1791835
0.003,0.054,1.004,-0.122,1791838
0.003,0.054,1.004,-0.122,1791842
0.003,0.054,1.004,-0.183,1791846
0.003,0.053,1.001,-0.183,1791850
0.003,0.053,1.001,-0.122,1791854
0.004,0.052,1.002,-0.122,1791858
0.004,0.052,1.002,-0.122,1791862
0.004,0.052,1.002,-0.305,1791866
0.005,0.05,1.002,-0.183,1791870
0.005,0.05,1.002,-0.061,1791874
0.001,0.05,1.002,-0.305,1791878
0.001,0.05,1.002,-0.305,1791882
0.001,0.05,1.002,-0.305,1791886
0.002,0.047,1.002,-0.244,1791890
0.002,0.047,1.002,-0.305,1791894
0.002,0.046,1.002,-0.183,1791898
0.002,0.046,1.002,-0.183,1791902
0.002,0.046,1.002,-0.183,1791906
0.0,0.047,1.001,-0.061,1791910
0.0,0.047,1.001,-0.183,1791914
-0.004,0.047,1.003,-0.183,1791918
-0.004,0.047,1.003,-0.183,1791922
-0.004,0.047,1.003,-0.061,1791926
-0.006,0.05,0.999,-0.122,1791930
-0.006,0.05,0.999,-0.122,1791934
-0.007,0.052,0.999,-0.122,1791938
-0.007,0.052,0.999,-0.122,1791942
-0.007,0.052,0.999,-0.122,1791946
-0.009,0.053,0.996,-0.061,1791950
-0.009,0.053,0.996,-0.061,1791954
-0.008,0.056,0.992,0.0,1791958
-0.008,0.056,0.992,0.0,1791961
-0.008,0.056,0.992,-0.183,1791965
-0.011,0.059,0.996,-0.183,1791969
-0.011,0.059,0.996,-0.244,1791973
-0.013,0.061,0.993,-0.244,1791977
-0.013,0.061,0.993,-0.244,1791981
-0.013,0.061,0.993,-0.305,1791985
-0.015,0.062,0.992,-0.122,1791989
-0.015,0.062,0.992,-0.183,1791993
-0.014,0.062,0.992,-0.244,1791997
-0.014,0.062,0.992,-0.244,1792001
-0.014,0.062,0.992,-0.244,1792005
-0.013,0.064,0.996,-0.122,1792009
-0.013,0.064,0.996,-0.183,1792013
-0.012,0.064,0.995,-0.122,1792017
-0.012,0.064,0.995,-0.122,1792021
-0.012,0.064,0.995,-0.183,1792025
-0.01,0.062,0.99,-0.183,1792029
-0.01,0.062,0.99,-0.244,1792033
-0.009,0.062,0.993,-0.244,1792037
-0.009,0.062,0.993,-0.244,1792041
-0.009,0.062,0.993,-0.183,1792045
-0.008,0.061,1.002,-0.061,1792049
-0.008,0.061,1.002,-0.122,1792053
-0.008,0.059,0.997,-0.305,1792057
-0.008,0.059,0.997,-0.305,1792061
-0.008,0.059,0.997,-0.305,1792065
-0.006,0.056,0.991,-0.305,1792069
-0.006,0.056,0.991,-0.122,1792073
-0.003,0.054,0.999,-0.122,1792077
-0.003,0.054,0.999,-0.122,1792081
-0.003,0.054,0.999,-0.305,1792085
-0.002,0.05,1.002,-0.244,1792089
-0.002,0.05,1.002,-0.122,1792093
0.0,0.05,1.0,-0.122,1792096
0.0,0.05,1.0,-0.122,1792100
0.0,0.05,1.0,-0.061,1792104
0.001,0.05,0.998,-0.244,1792108
0.001,0.05,0.998,-0.366,1792112
0.001,0.051,1.002,-0.183,1792116
0.001,0.051,1.002,-0.183,1792120
0.001,0.051,1.002,-0.122,1792124
0.001,0.049,1.008,-0.183,1792128
0.001,0.049,1.008,-0.183,1792132
0.003,0.046,0.999,-0.183,1792136
0.003,0.046,0.999,-0.183,1792140
0.003,0.046,0.999,-0.122,1792144
0.003,0.046,1.002,-0.244,1792148
0.003,0.046,1.002,-0.061,1792152
0.001,0.047,1.003,-0.183,1792156
0.001,0.047,1.003,-0.183,1792160
0.001,0.047,1.003,-0.244,1792164
0.0,0.05,1.0,-0.122,1792168
0.0,0.05,1.0,-0.122,1792172
-0.001,0.052,1.001,-0.244,1792176
-0.001,0.052,1.001,-0.244,1792180
-0.001,0.052,1.001,-0.061,1792184
-0.003,0.056,0.995,-0.183,1792188
-0.003,0.056,0.995,-0.244,1792192
-0.006,0.057,0.998,-0.183,1792196
-0.006,0.057,0.998,-0.183,1792200
-0.006,0.057,0.998,-0.183,1792204
-0.008,0.057,1.0,-0.244,1792208
-0.008,0.057,1.0,-0.244,1792212
-0.008,0.058,0.996,-0.183,1792216
-0.008,0.058,0.996,-0.183,1792220
-0.008,0.058,0.996,-0.061,1792223
-0.009,0.058,0.998,-0.183,1792227
-0.009,0.058,0.998,-0.061,1792231
-0.011,0.058,0.993,-0.061,1792235
-0.011,0.058,0.993,-0.061,1792239
-0.011,0.058,0.993,-0.183,1792243
-0.011,0.06,0.995,-0.061,1792247
-0.011,0.06,0.995,-0.183,1792251
-0.011,0.062,0.995,-0.183,1792255
-0.011,0.062,0.995,-0.122,1792259
-0.011,0.062,0.995,-0.122,1792263
-0.011,0.063,0.992,-0.305,1792267
-0.011,0.063,0.992,-0.244,1792271
-0.012,0.061,0.993,-0.244,1792275
-0.012,0.061,0.993,-0.183,1792279
-0.012,0.061,0.993,-0.183,1792283
-0.012,0.059,0.995,-0.183,1792287
-0.012,0.059,0.995,-0.305,1792291
-0.01,0.059,0.996,-0.366,1792295
-0.01,0.059,0.996,-0.244,1792299
-0.01,0.059,0.996,-0.244,1792303
-0.008,0.056,0.995,-0.183,1792307
-0.008,0.056,0.995,-0.305,1792311
-0.006,0.054,0.995,-0.244,1792315
-0.006,0.054,0.995,-0.305,1792319
-0.006,0.054,0.995,-0.305,1792323
-0.007,0.055,1.0,-0.244,1792327
-0.007,0.055,1.0,-0.183,1792331
-0.006,0.054,1.0,-0.183,1792335
-0.006,0.054,1.0,-0.122,1792339
-0.006,0.054,1.0,-0.122,1792343
-0.003,0.052,0.997,-0.122,1792347
-0.003,0.052,0.997,-0.244,1792351
-0.001,0.051,1.0,-0.244,1792355
-0.001,0.051,1.0,-0.244,1792359
-0.001,0.051,1.0,-0.244,1792362
-0.0,0.05,1.003,-0.183,1792366
-0.0,0.05,1.003,-0.305,1792370
0.001,0.049,1.001,-0.183,1792374
0.001,0.049,1.001,-0.305,1792378
0.001,0.049,1.001,-0.305,1792382
0.003,0.049,1.002,-0.305,1792386
0.003,0.049,1.002,-0.122,1792390
0.002,0.05,1.001,-0.061,1792394
0.002,0.05,1.001,-0.122,1792398
0.002,0.05,1.001,-0.122,1792402
0.001,0.052,1.0,-0.122,1792406
0.001,0.052,1.0,-0.061,1792410
-0.001,0.053,1.001,-0.061,1792414
-0.001,0.053,1.001,-0.305,1792418
-0.001,0.053,1.001,-0.305,1792422
-0.001,0.055,1.004,-0.244,1792426
-0.001,0.055,1.004,-0.305,1792430
-0.001,0.055,1.0,-0.183,1792434
-0.001,0.055,1.0,-0.183,1792438
-0.001,0.055,1.0,-0.183,1792442
-0.001,0.054,0.997,-0.183,1792446
-0.001,0.054,0.997,-0.183,1792450
-0.003,0.054,0.998,-0.305,1792454
-0.003,0.054,0.998,-0.122,1792458
-0.003,0.054,0.998,-0.122,1792462
-0.006,0.053,0.999,0.0,1792466
-0.006,0.053,0.999,-0.183,1792470
-0.007,0.056,0.996,-0.305,1792474
-0.007,0.056,0.996,-0.244,1792478
-0.007,0.056,0.996,-0.244,1792481
-0.008,0.059,0.996,-0.244,1792485
-0.008,0.059,0.996,0.0,1792489
-0.01,0.058,0.999,-0.061,1792493
-0.01,0.058,0.999,-0.061,1792497
-0.01,0.058,0.999,-0.122,1792501
-0.01,0.059,0.996,-0.244,1792505
-0.01,0.059,0.996,-0.183,1792509
-0.011,0.059,0.993,-0.183,1792513
-0.011,0.059,0.993,-0.244,1792517
-0.011,0.059,0.993,-0.244,1792521
-0.013,0.059,0.994,-0.183,1792525
-0.013,0.059,0.994,-0.122,1792529
-0.011,0.058,0.997,-0.122,1792533
-0.011,0.058,0.997,-0.122,1792537
-0.011,0.058,0.997,-0.122,1792541
-0.011,0.058,0.994,-0.122,1792545
-0.011,0.058,0.994,-0.183,1792549
-0.01,0.056,0.996,-0.244,1792553
-0.01,0.056,0.996,-0.305,1792557
-0.01,0.056,0.996,-0.305,1792561
-0.008,0.056,0.998,-0.183,1792565
-0.008,0.056,0.998,-0.305,1792569
-0.007,0.056,0.996,-0.305,1792573
-0.007,0.056,0.996,-0.305,1792577
-0.007,0.056,0.996,-0.305,1792581
-0.005,0.053,0.997,-0.122,1792585
-0.005,0.053,0.997,-0.244,1792589
-0.004,0.054,1.0,-0.305,1792593
-0.004,0.054,1.0,-0.305,1792597
-0.004,0.054,1.0,-0.305,1792601
-0.002,0.054,0.999,-0.244,1792605
-0.002,0.054,0.999,-0.244,1792609
-0.002,0.054,0.998,-0.183,1792613
-0.002,0.054,0.998,-0.061,1792617
-0.002,0.054,0.998,-0.061,1792621
-0.002,0.053,1.0,-0.122,1792625
-0.002,0.053,1.0,-0.061,1792629
-0.0,0.054,1.002,-0.122,1792632
-0.0,0.054,1.002,-0.122,1792636
-0.0,0.054,1.002,-0.122,1792640
0.002,0.052,1.0,-0.122,1792644
0.002,0.052,1.0,-0.122,1792648
0.001,0.052,1.0,-0.183,1792652
0.001,0.052,1.0,-0.488,1792656
0.001,0.052,1.0,-0.488,1792660
0.002,0.052,1.002,-0.183,1792664
0.002,0.052,1.002,-0.122,1792668
0.001,0.052,1.0,-0.183,1792672
0.001,0.052,1.0,-0.061,1792676
0.001,0.052,1.0,-0.061,1792680
-0.001,0.053,1.001,-0.183,1792684
-0.001,0.053,1.001,-0.244,1792688
-0.003,0.053,1.0,-0.244,1792692
-0.003,0.053,1.0,-0.183,1792696
-0.003,0.053,1.0,-0.183,1792700
-0.002,0.052,1.001,-0.244,1792704
-0.002,0.052,1.001,-0.183,1792708
-0.004,0.053,0.999,-0.183,1792712
-0.004,0.053,0.999,-0.183,1792716
-0.004,0.053,0.999,-0.183,1792720
-0.005,0.054,0.998,-0.122,1792724
-0.005,0.054,0.998,-0.122,1792728
-0.009,0.055,0.997,-0.122,1792732
-0.009,0.055,0.997,-0.183,1792736
-0.009,0.055,0.997,-0.183,1792740
-0.007,0.056,0.997,-0.061,1792744
-0.007,0.056,0.997,0.0,1792748
-0.009,0.059,0.996,-0.061,1792752
-0.009,0.059,0.996,-0.244,1792755
-0.009,0.059,0.996,-0.244,1792759
-0.013,0.059,0.997,-0.183,1792763
-0.013,0.059,0.997,-0.122,1792767
-0.011,0.059,0.995,-0.244,1792771
-0.011,0.059,0.995,-0.183,1792775
-0.011,0.059,0.995,-0.183,1792779
-0.011,0.058,0.994,-0.244,1792783
-0.011,0.058,0.994,-0.183,1792787
-0.011,0.059,0.995,-0.122,1792791
-0.011,0.059,0.995,-0.305,1792795
-0.011,0.059,0.995,-0.305,1792799
-0.009,0.06,0.997,-0.305,1792803
-0.009,0.06,0.997,-0.183,1792807
-0.008,0.059,0.996,-0.183,1792811
-0.008,0.059,0.996,-0.183,1792815
-0.008,0.059,0.996,-0.183,1792819
-0.007,0.058,0.997,0.0,1792823
-0.007,0.058,0.997,-0.183,1792827
-0.005,0.059,0.997,-0.244,1792831
-0.005,0.059,0.997,-0.427,1792835
-0.005,0.059,0.997,-0.427,1792839
-0.005,0.056,0.999,-0.427,1792843
-0.005,0.056,0.999,-0.305,1792847
-0.003,0.053,0.998,-0.244,1792851
-0.003,0.053,0.998,-0.244,1792855
-0.003,0.053,0.998,-0.244,1792859
-0.003,0.053,1.0,-0.122,1792863
-0.003,0.053,1.0,-0.061,1792867
-0.001,0.052,1.001,-0.061,1792871
-0.001,0.052,1.001,-0.122,1792875
-0.001,0.052,1.001,-0.122,1792879
-0.001,0.051,0.998,-0.183,1792883
-0.001,0.051,0.998,-0.183,1792887
0.0,0.051,1.0,0.0,1792891
0.0,0.051,1.0,-0.122,1792894
0.0,0.051,1.0,-0.122,1792898
0.002,0.051,1.001,-0.305,1792902
0.002,0.051,1.001,-0.244,1792906
-0.001,0.052,1.0,-0.244,1792910
-0.001,0.052,1.0,-0.244,1792914
-0.001,0.052,1.0,-0.244,1792918
-0.002,0.051,1.0,0.0,1792922
-0.002,0.051,1.0,-0.183,1792926
-0.002,0.051,1.001,-0.305,1792930
-0.002,0.051,1.001,-0.122,1792934
-0.002,0.051,1.001,-0.122,1792938
-0.001,0.05,1.0,-0.122,1792942
-0.001,0.05,1.0,-0.122,1792946
-0.002,0.052,1.0,-0.122,1792950
-0.002,0.052,1.0,-0.183,1792954
-0.002,0.052,1.0,-0.183,1792958
-0.002,0.053,1.0,-0.122,1792962
-0.002,0.053,1.0,-0.183,1792966
-0.004,0.055,0.999,-0.183,1792970
-0.004,0.055,0.999,0.0,1792974
-0.004,0.055,0.999,0.0,1792978
-0.004,0.055,0.997,-0.305,1792982
-0.004,0.055,0.997,-0.366,1792985
-0.007,0.058,0.997,-0.122,1792989
-0.007,0.058,0.997,-0.122,1792993
-0.007,0.058,0.997,-0.122,1792997
-0.009,0.059,0.996,-0.122,1793001
-0.009,0.059,0.996,-0.122,1793005
-0.009,0.06,0.996,-0.183,1793009
-0.009,0.06,0.996,-0.183,1793013
-0.009,0.06,0.996,-0.183,1793017
-0.01,0.059,0.997,-0.183,1793021
-0.01,0.059,0.997,-0.122,1793025
-0.01,0.06,0.995,-0.183,1793029
-0.01,0.06,0.995,-0.183,1793033
-0.01,0.06,0.995,-0.183,1793037
-0.009,0.058,0.995,-0.183,1793041
-0.009,0.058,0.995,-0.244,1793045
-0.011,0.059,0.994,-0.183,1793049
-0.011,0.059,0.994,-0.183,1793053
-0.011,0.059,0.994,-0.183,1793057
-0.009,0.058,0.995,-0.122,1793061
-0.009,0.058,0.995,-0.122,1793065
-0.008,0.056,0.996,-0.244,1793069
-0.008,0.056,0.996,0.0,1793073
-0.008,0.056,0.996,0.0,1793077
-0.007,0.056,0.996,-0.183,1793081
-0.007,0.056,0.996,-0.427,1793085
-0.006,0.056,0.997,-0.244,1793089
-0.006,0.056,0.997,-0.305,1793093
-0.006,0.056,0.997,-0.305,1793097
-0.005,0.055,0.999,-0.305,1793100
-0.005,0.055,0.999,-0.244,1793104
-0.005,0.054,0.999,-0.122,1793108
-0.005,0.054,0.999,-0.244,1793112
-0.005,0.054,0.999,-0.244,1793116
-0.004,0.052,1.0,-0.183,1793120
-0.004,0.052,1.0,-0.244,1793124
-0.003,0.052,1.0,-0.183,1793128
-0.003,0.052,1.0,-0.183,1793132
-0.003,0.052,1.0,-0.183,1793136
-0.001,0.05,1.0,-0.122,1793140
-0.001,0.05,1.0,-0.244,1793144
-0.001,0.052,1.0,-0.305,1793148
-0.001,0.052,1.0,-0.305,1793152
-0.001,0.052,1.0,-0.183,1793156
-0.001,0.051,1.002,-0.305,1793160
-0.001,0.051,1.002,-0.061,1793164
-0.001,0.05,1.002,-0.183,1793168
-0.001,0.05,1.002,-0.183,1793172
-0.001,0.05,1.002,-0.183,1793176
0.0,0.052,1.002,-0.244,1793180
0.0,0.052,1.002,-0.061,1793184
0.0,0.052,1.0,-0.122,1793188
0.0,0.052,1.0,-0.122,1793192
0.0,0.052,1.0,-0.183,1793196
-0.0,0.052,1.001,-0.122,1793200
-0.0,0.052,1.001,-0.183,1793204
-0.003,0.055,0.997,-0.183,1793208
-0.003,0.055,0.997,-0.183,1793212
-0.003,0.055,0.997,-0.183,1793215
-0.002,0.054,1.003,-0.183,1793219
-0.002,0.054,1.003,-0.183,1793223
-0.003,0.054,1.0,-0.183,1793227
-0.003,0.054,1.0,-0.183,1793231
-0.003,0.054,1.0,-0.183,1793235
-0.004,0.056,0.994,-0.122,1793239
-0.004,0.056,0.994,-0.122,1793243
-0.005,0.055,0.999,-0.244,1793247
-0.005,0.055,0.999,-0.244,1793251
-0.005,0.055,0.999,-0.244,1793255
-0.008,0.057,0.993,-0.244,1793259
-0.008,0.057,0.993,-0.122,1793263
-0.009,0.057,1.004,-0.305,1793267
-0.009,0.057,1.004,-0.305,1793271
-0.009,0.057,1.004,-0.427,1793275
-0.009,0.057,0.994,-0.183,1793279
-0.009,0.057,0.994,-0.183,1793283
-0.009,0.057,0.992,-0.183,1793287
-0.009,0.057,0.992,-0.122,1793291
-0.009,0.057,0.992,-0.122,1793295
-0.012,0.057,0.997,-0.122,1793299
-0.012,0.057,0.997,-0.183,1793303
-0.011,0.057,0.998,-0.305,1793307
-0.011,0.057,0.998,-0.305,1793311
-0.011,0.057,0.998,-0.305,1793315
-0.01,0.056,0.999,-0.183,1793319
-0.01,0.056,0.999,-0.183,1793323
-0.01,0.057,0.992,-0.122,1793327
-0.01,0.057,0.992,-0.122,1793331
-0.01,0.057,0.992,-0.122,1793335
-0.01,0.058,0.993,-0.122,1793339
-0.01,0.058,0.993,-0.183,1793343
-0.009,0.055,1.003,0.0,1793347
-0.009,0.055,1.003,-0.122,1793350
-0.009,0.055,1.003,-0.122,1793354
-0.005,0.055,0.998,-0.244,1793358
-0.005,0.055,0.998,-0.244,1793362
-0.004,0.056,0.996,-0.122,1793366
-0.004,0.056,0.996,-0.244,1793370
-0.004,0.056,0.996,-0.244,1793374
-0.002,0.054,1.001,-0.244,1793378
-0.002,0.054,1.001,-0.183,1793382
-0.002,0.054,0.999,-0.183,1793386
-0.002,0.054,0.999,-0.244,1793390
-0.002,0.054,0.999,-0.244,1793394
-0.0,0.054,1.001,-0.244,1793398
-0.0,0.054,1.001,-0.183,1793402
0.002,0.054,0.999,-0.244,1793406
0.002,0.054,0.999,-0.183,1793410
0.002,0.054,0.999,-0.183,1793414
0.001,0.051,1.001,-0.305,1793418
0.001,0.051,1.001,-0.183,1793422
0.0,0.052,1.003,-0.061,1793426
0.0,0.052,1.003,-0.244,1793430
0.0,0.052,1.003,-0.244,1793434
0.0,0.051,0.999,-0.244,1793438
0.0,0.051,0.999,-0.183,1793442
0.001,0.053,1.001,-0.061,1793446
0.001,0.053,1.001,-0.122,1793450
0.001,0.053,1.001,-0.122,1793454
-0.0,0.052,1.001,-0.061,1793458
-0.0,0.052,1.001,-0.183,1793462
-0.002,0.052,0.999,-0.183,1793466
-0.002,0.052,0.999,-0.244,1793470
-0.002,0.052,0.999,-0.244,1793474
-0.004,0.052,1.0,-0.122,1793477
-0.004,0.052,1.0,-0.061,1793481
-0.003,0.052,0.999,-0.122,1793485
-0.003,0.052,0.999,-0.122,1793489
-0.003,0.052,0.999,-0.122,1793493
-0.006,0.054,0.997,-0.244,1793497
-0.006,0.054,0.997,-0.183,1793501
-0.008,0.053,0.997,0.061,1793505
-0.008,0.053,0.997,-0.183,1793509
-0.008,0.053,0.997,-0.183,1793513
-0.008,0.055,0.997,-0.366,1793517
-0.008,0.055,0.997,-0.366,1793521
-0.008,0.056,0.997,-0.183,1793525
-0.008,0.056,0.997,-0.183,1793529
-0.008,0.056,0.997,-0.183,1793533
-0.009,0.057,0.995,-0.305,1793537
-0.009,0.057,0.995,-0.183,1793541
-0.011,0.057,0.995,-0.061,1793545
-0.011,0.057,0.995,-0.122,1793549
-0.011,0.057,0.995,-0.122,1793553
-0.012,0.059,0.998,-0.183,1793557
-0.012,0.059,0.998,-0.061,1793561
-0.01,0.058,0.995,-0.122,1793565
-0.01,0.058,0.995,-0.183,1793569
-0.01,0.058,0.995,-0.183,1793573
-0.01,0.059,0.996,-0.305,1793577
-0.01,0.059,0.996,-0.244,1793581
-0.008,0.058,0.997,-0.122,1793585
-0.008,0.058,0.997,-0.122,1793589
-0.008,0.058,0.997,-0.122,1793593
-0.006,0.059,0.995,-0.122,1793597
-0.006,0.059,0.995,-0.244,1793601
-0.008,0.057,0.998,-0.183,1793605
-0.008,0.057,0.998,-0.244,1793609
-0.008,0.057,0.998,-0.244,1793613
-0.006,0.057,0.998,-0.244,1793617
-0.006,0.057,0.998,-0.244,1793621
-0.005,0.059,0.996,-0.305,1793624
-0.005,0.059,0.996,-0.244,1793628
-0.005,0.059,0.996,-0.244,1793632
-0.003,0.055,1.0,-0.122,1793636
-0.003,0.055,1.0,-0.183,1793640
-0.002,0.053,0.998,-0.183,1793644
-0.002,0.053,0.998,-0.244,1793648
-0.002,0.053,0.998,-0.244,1793652
-0.001,0.05,1.0,-0.244,1793656
-0.001,0.05,1.0,-0.244,1793660
-0.002,0.051,0.998,-0.183,1793664
-0.002,0.051,0.998,-0.305,1793668
-0.002,0.051,0.998,-0.305,1793672
-0.0,0.051,0.999,-0.183,1793676
-0.0,0.051,0.999,-0.061,1793680
0.0,0.05,1.005,-0.305,1793684
0.0,0.05,1.005,-0.183,1793688
0.0,0.05,1.005,-0.183,1793692
-0.001,0.05,0.996,-0.061,1793696
-0.001,0.05,0.996,-0.244,1793700
-0.002,0.05,0.998,-0.244,1793704
-0.002,0.05,0.998,-0.122,1793708
-0.002,0.05,0.998,-0.122,1793712
-0.003,0.051,1.001,-0.122,1793716
-0.003,0.051,1.001,-0.122,1793720
-0.004,0.051,1.004,-0.183,1793724
-0.004,0.051,1.004,-0.183,1793728
-0.004,0.051,1.004,-0.183,1793732
-0.006,0.052,0.998,-0.122,1793736
-0.006,0.052,0.998,-0.183,1793740
-0.004,0.054,0.995,-0.183,1793744
-0.004,0.054,0.995,-0.244,1793748
-0.004,0.054,0.995,-0.244,1793752
-0.005,0.057,1.001,-0.061,1793755
-0.005,0.057,1.001,-0.183,1793759
-0.006,0.056,1.002,-0.305,1793763
-0.006,0.056,1.002,-0.061,1793767
-0.006,0.056,1.002,-0.061,1793771
-0.006,0.057,0.99,-0.122,1793775
-0.006,0.057,0.99,-0.244,1793779
-0.007,0.059,0.996,-0.244,1793783
-0.007,0.059,0.996,-0.122,1793787
-0.007,0.059,0.996,-0.122,1793791
-0.008,0.06,1.0,-0.122,1793795
-0.008,0.06,1.0,-0.244,1793799
-0.008,0.06,0.997,-0.244,1793803
-0.008,0.06,0.997,-0.183,1793807
-0.008,0.06,0.997,-0.183,1793811
-0.007,0.06,0.991,-0.183,1793815
-0.007,0.06,0.991,-0.183,1793819
-0.007,0.058,0.995,-0.244,1793823
-0.007,0.058,0.995,-0.122,1793827
-0.007,0.058,0.995,-0.122,1793831
-0.009,0.058,1.0,-0.305,1793835
-0.009,0.058,1.0,-0.122,1793839
-0.009,0.059,0.995,-0.305,1793843
-0.009,0.059,0.995,-0.122,1793847
-0.009,0.059,0.995,-0.122,1793851
-0.009,0.056,0.994,-0.122,1793855
-0.009,0.056,0.994,-0.244,1793859
-0.007,0.054,1.001,-0.244,1793863
-0.007,0.054,1.001,0.0,1793867
-0.007,0.054,1.001,0.0,1793871
-0.007,0.054,0.997,-0.244,1793875
-0.007,0.054,0.997,-0.305,1793878
-0.005,0.053,0.998,-0.183,1793882
-0.005,0.053,0.998,-0.122,1793886
-0.005,0.053,0.998,-0.122,1793890
-0.005,0.053,0.999,-0.183,1793894
-0.005,0.053,0.999,-0.122,1793898
-0.005,0.051,0.998,-0.122,1793902
-0.005,0.051,0.998,-0.122,1793906
-0.005,0.051,0.998,-0.122,1793910
-0.004,0.051,1.0,-0.183,1793914
-0.004,0.051,1.0,-0.122,1793918
-0.003,0.051,1.0,-0.244,1793922
-0.003,0.051,1.0,-0.244,1793926
-0.003,0.051,1.0,-0.244,1793930
-0.002,0.051,1.0,-0.122,1793934
-0.002,0.051,1.0,-0.305,1793938
-0.0,0.052,0.999,-0.244,1793942
-0.0,0.052,0.999,-0.244,1793946
-0.0,0.052,0.999,-0.244,1793950
-0.002,0.052,1.0,0.0,1793954
-0.002,0.052,1.0,0.0,1793958
-0.001,0.052,1.0,-0.244,1793962
-0.001,0.052,1.0,-0.244,1793966
-0.001,0.052,1.0,-0.244,1793970
-0.001,0.053,1.0,-0.122,1793974
-0.001,0.053,1.0,-0.122,1793978
-0.0,0.053,1.0,-0.244,1793982
-0.0,0.053,1.0,-0.244,1793986
-0.0,0.053,1.0,-0.244,1793990
-0.002,0.056,1.0,-0.183,1793994
-0.002,0.056,1.0,-0.183,1793998
-0.003,0.057,0.999,-0.122,1794002
-0.003,0.057,0.999,-0.244,1794005
-0.003,0.057,0.999,-0.244,1794009
-0.004,0.057,0.999,-0.183,1794013
-0.004,0.057,0.999,0.061,1794017
-0.006,0.058,0.999,-0.122,1794021
-0.006,0.058,0.999,-0.183,1794025
-0.006,0.058,0.999,-0.183,1794029
-0.005,0.057,0.998,-0.183,1794033
-0.005,0.057,0.998,-0.122,1794037
-0.006,0.057,0.997,-0.122,1794041
-0.006,0.057,0.997,-0.122,1794045
-0.006,0.057,0.997,-0.122,1794049
-0.008,0.056,0.997,-0.122,1794053
-0.008,0.056,0.997,-0.183,1794057
-0.009,0.055,0.997,-0.244,1794061
-0.009,0.055,0.997,-0.183,1794065
-0.009,0.055,0.997,-0.183,1794069
-0.01,0.056,0.997,-0.183,1794073
-0.01,0.056,0.997,-0.244,1794077
-0.009,0.056,0.997,-0.244,1794081
-0.009,0.056,0.997,-0.244,1794085
-0.009,0.056,0.997,-0.244,1794089
-0.009,0.054,0.996,-0.122,1794093
-0.009,0.054,0.996,-0.061,1794097
-0.01,0.053,0.997,-0.244,1794101
-0.01,0.053,0.997,-0.122,1794105
-0.01,0.053,0.997,-0.122,1794109
-0.008,0.054,0.999,-0.244,1794113
-0.008,0.054,0.999,-0.305,1794117
-0.009,0.055,0.999,-0.305,1794121
-0.009,0.055,0.999,-0.183,1794125
-0.009,0.055,0.999,-0.183,1794129
-0.005,0.054,0.997,-0.183,1794133
-0.005,0.054,0.997,-0.183,1794137
-0.004,0.053,0.999,-0.061,1794141
-0.004,0.053,0.999,-0.122,1794144
-0.004,0.053,0.999,-0.122,1794148
-0.004,0.054,0.998,-0.244,1794152
-0.004,0.054,0.998,-0.183,1794156
-0.001,0.054,0.999,-0.244,1794160
-0.001,0.054,0.999,-0.061,1794164
-0.001,0.054,0.999,-0.061,1794168
-0.001,0.053,1.0,-0.122,1794172
-0.001,0.053,1.0,-0.183,1794176
-0.001,0.054,0.999,-0.244,1794180
-0.001,0.054,0.999,-0.183,1794184
-0.001,0.054,0.999,-0.183,1794188
-0.002,0.054,1.001,-0.183,1794192
-0.002,0.054,1.001,-0.061,1794196
-0.001,0.054,1.002,-0.305,1794200
-0.001,0.054,1.002,-0.183,1794204
-0.001,0.054,1.002,-0.183,1794208
-0.0,0.052,1.0,-0.244,1794212
-0.0,0.052,1.0,-0.061,1794216
-0.002,0.052,0.998,-0.183,1794220
-0.002,0.052,0.998,-0.305,1794224
-0.002,0.052,0.998,-0.305,1794228
-0.002,0.053,0.999,-0.183,1794232
-0.002,0.053,0.999,-0.305,1794236
-0.003,0.053,1.0,-0.122,1794240
-0.003,0.053,1.0,-0.061,1794244
-0.003,0.053,1.0,-0.061,1794248
-0.003,0.053,0.999,-0.244,1794252
-0.003,0.053,0.999,-0.183,1794256
-0.005,0.053,0.997,-0.244,1794260
-0.005,0.053,0.997,-0.244,1794264
-0.005,0.053,0.997,-0.244,1794268
-0.007,0.054,0.997,-0.122,1794272
-0.007,0.054,0.997,-0.183,1794275
-0.006,0.055,0.999,-0.061,1794279
-0.006,0.055,0.999,-0.122,1794283
-0.006,0.055,0.999,-0.122,1794287
-0.006,0.056,0.996,-0.183,1794291
-0.006,0.056,0.996,-0.183,1794295
-0.009,0.055,1.0,-0.061,1794299
-0.009,0.055,1.0,-0.061,1794303
-0.009,0.055,1.0,-0.061,1794307
-0.009,0.056,0.994,-0.122,1794311
-0.009,0.056,0.994,-0.183,1794315
-0.008,0.056,0.997,-0.122,1794319
-0.008,0.056,0.997,-0.122,1794323
-0.008,0.056,0.997,-0.122,1794327
-0.009,0.057,0.993,-0.183,1794331
-0.009,0.057,0.993,-0.244,1794335
-0.008,0.058,0.996,-0.183,1794339
-0.008,0.058,0.996,-0.122,1794343
-0.008,0.058,0.996,-0.122,1794347
-0.006,0.058,1.0,-0.183,1794351
-0.006,0.058,1.0,-0.244,1794355
-0.006,0.057,0.993,-0.183,1794359
-0.006,0.057,0.993,-0.244,1794363
-0.006,0.057,0.993,-0.244,1794367
-0.006,0.057,0.994,-0.183,1794371
-0.006,0.057,0.994,-0.305,1794375
-0.005,0.058,0.999,-0.305,1794379
-0.005,0.058,0.999,-0.244,1794383
-0.005,0.058,0.999,-0.244,1794387
-0.004,0.056,1.003,-0.122,1794391
-0.004,0.056,1.003,-0.183,1794395
-0.004,0.055,0.997,-0.183,1794399
-0.004,0.055,0.997,-0.244,1794403
-0.004,0.055,0.997,-0.244,1794407
-0.003,0.052,0.995,-0.244,1794410
-0.003,0.052,0.995,-0.061,1794414
-0.001,0.053,1.005,-0.122,1794418
-0.001,0.053,1.005,-0.183,1794422
-0.001,0.053,1.005,-0.183,1794426
-0.003,0.054,1.002,-0.183,1794430
-0.003,0.054,1.002,-0.122,1794434
-0.001,0.053,0.992,-0.244,1794438
-0.001,0.053,0.992,-0.244,1794442
-0.001,0.053,0.992,-0.244,1794446
-0.001,0.053,1.0,-0.183,1794450
-0.001,0.053,1.0,-0.122,1794454
-0.007,0.052,1.003,-0.244,1794458
-0.007,0.052,1.003,-0.122,1794462
-0.007,0.052,1.003,-0.122,1794466
-0.004,0.052,1.001,-0.122,1794470
-0.004,0.052,1.001,-0.244,1794474
-0.003,0.051,0.997,-0.244,1794478
-0.003,0.051,0.997,-0.183,1794482
-0.003,0.051,0.997,-0.183,1794486
-0.003,0.052,1.002,-0.183,1794490
-0.003,0.052,1.002,-0.122,1794494
-0.003,0.054,1.001,-0.183,1794498
-0.003,0.054,1.001,-0.183,1794502
-0.003,0.054,1.001,-0.183,1794506
-0.006,0.053,0.997,-0.183,1794510
-0.006,0.053,0.997,-0.061,1794514
-0.004,0.054,0.999,-0.061,1794518
-0.004,0.054,0.999,-0.244,1794522
-0.004,0.054,0.999,-0.244,1794526
-0.006,0.055,1.0,-0.183,1794530
-0.006,0.055,1.0,-0.061,1794534
-0.006,0.057,0.998,-0.183,1794537
-0.006,0.057,0.998,-0.122,1794541
-0.006,0.057,0.998,-0.122,1794545
-0.006,0.058,0.997,-0.061,1794549
-0.006,0.058,0.997,-0.183,1794553
-0.007,0.058,0.997,-0.244,1794557
-0.007,0.058,0.997,-0.244,1794561
-0.007,0.058,0.997,-0.244,1794565
-0.008,0.058,0.994,-0.183,1794569
-0.008,0.058,0.994,-0.183,1794573
-0.008,0.058,0.997,-0.183,1794577
-0.008,0.058,0.997,-0.183,1794581
-0.008,0.058,0.997,-0.183,1794585
-0.007,0.058,0.996,-0.122,1794589
-0.007,0.058,0.996,-0.061,1794593
-0.008,0.058,0.997,-0.183,1794597
-0.008,0.058,0.997,-0.183,1794601
-0.008,0.058,0.997,-0.183,1794605
-0.007,0.059,0.997,-0.305,1794609
-0.007,0.059,0.997,-0.244,1794613
-0.005,0.056,0.998,-0.244,1794617
-0.005,0.056,0.998,-0.183,1794621
-0.005,0.056,0.998,-0.183,1794625
-0.008,0.056,0.998,-0.244,1794629
-0.008,0.056,0.998,-0.183,1794633
-0.007,0.055,0.997,-0.244,1794637
-0.007,0.055,0.997,-0.244,1794641
-0.007,0.055,0.997,-0.244,1794645
-0.006,0.054,0.997,-0.183,1794649
-0.006,0.054,0.997,-0.122,1794653
-0.006,0.053,0.999,-0.244,1794657
-0.006,0.053,0.999,-0.183,1794661
-0.006,0.053,0.999,-0.183,1794665
-0.005,0.054,0.999,-0.244,1794669
-0.005,0.054,0.999,-0.244,1794673
-0.003,0.054,0.997,-0.244,1794676
-0.003,0.054,0.997,-0.244,1794680
-0.003,0.054,0.997,-0.244,1794684
-0.002,0.055,0.997,-0.183,1794688
-0.002,0.055,0.997,-0.122,1794692
-0.002,0.052,1.0,-0.183,1794696
-0.002,0.052,1.0,-0.061,1794700
-0.002,0.052,1.0,-0.061,1794704
-0.003,0.052,1.001,-0.244,1794708
-0.003,0.052,1.001,-0.305,1794712
-0.003,0.053,0.997,-0.366,1794716
-0.003,0.053,0.997,-0.122,1794720
-0.003,0.053,0.997,-0.122,1794724
-0.002,0.053,1.0,-0.305,1794728
-0.002,0.053,1.0,-0.305,1794732
-0.002,0.053,1.001,-0.183,1794736
-0.002,0.053,1.001,-0.183,1794740
-0.002,0.053,1.001,-0.183,1794744
-0.001,0.055,0.999,-0.366,1794748
-0.001,0.055,0.999,-0.305,1794752
-0.004,0.054,0.997,-0.183,1794756
-0.004,0.054,0.997,-0.122,1794760
-0.004,0.054,0.997,-0.122,1794764
-0.004,0.055,0.999,-0.244,1794768
-0.004,0.055,0.999,-0.122,1794772
-0.004,0.056,0.998,-0.244,1794776
-0.004,0.056,0.998,-0.122,1794780
-0.004,0.056,0.998,-0.122,1794784
-0.006,0.057,0.998,-0.183,1794788
-0.006,0.057,0.998,-0.244,1794792
-0.006,0.056,0.997,-0.122,1794796
-0.006,0.056,0.997,0.0,1794800
-0.006,0.056,0.997,0.0,1794803
-0.005,0.056,0.996,-0.061,1794807
-0.005,0.056,0.996,-0.183,1794811
-0.007,0.057,0.998,-0.183,1794815
-0.007,0.057,0.998,-0.183,1794819
-0.007,0.057,0.998,-0.183,1794823
-0.009,0.056,0.997,-0.183,1794827
-0.009,0.056,0.997,-0.183,1794831
-0.009,0.057,0.995,-0.183,1794835
-0.009,0.057,0.995,-0.244,1794839
-0.009,0.057,0.995,-0.244,1794843
-0.01,0.057,1.0,-0.183,1794847
-0.01,0.057,1.0,-0.244,1794851
-0.01,0.055,0.998,-0.305,1794855
-0.01,0.055,0.998,-0.305,1794859
-0.01,0.055,0.998,-0.305,1794863
-0.009,0.055,0.997,-0.183,1794867
-0.009,0.055,0.997,-0.061,1794871
-0.008,0.055,0.997,-0.183,1794875
-0.008,0.055,0.997,-0.244,1794879
-0.008,0.055,0.997,-0.244,1794883
-0.008,0.054,0.998,0.0,1794887
-0.008,0.054,0.998,0.0,1794891
-0.006,0.055,0.997,-0.122,1794895
-0.006,0.055,0.997,-0.122,1794899
-0.006,0.055,0.997,-0.122,1794903
