Acc_X,Acc_Y,Acc_Z,Rot_Z,Millis
-0.007,0.237,0.967,-0.183,2441114
-0.007,0.237,0.967,-0.183,2441118
-0.006,0.238,0.969,-0.183,2441122
-0.006,0.238,0.969,-0.183,2441126
-0.006,0.237,0.968,-0.122,2441130
-0.006,0.237,0.968,-0.183,2441134
-0.006,0.237,0.968,-0.183,2441138
-0.006,0.237,0.968,-0.183,2441142
-0.006,0.237,0.968,-0.061,2441146
-0.004,0.237,0.967,-0.183,2441150
-0.004,0.237,0.967,-0.183,2441154
-0.004,0.237,0.967,-0.183,2441158
-0.006,0.237,0.966,-0.244,2441162
-0.006,0.237,0.966,-0.305,2441166
-0.006,0.239,0.968,-0.122,2441170
-0.006,0.239,0.968,-0.061,2441174
-0.006,0.239,0.968,-0.061,2441178
-0.005,0.237,0.967,-0.122,2441182
-0.005,0.237,0.967,-0.122,2441186
-0.004,0.236,0.966,-0.244,2441190
-0.004,0.236,0.966,-0.183,2441194
-0.004,0.236,0.966,-0.183,2441198
-0.004,0.239,0.968,-0.122,2441202
-0.004,0.239,0.968,-0.305,2441206
-0.005,0.238,0.968,-0.366,2441210
-0.005,0.238,0.968,-0.244,2441214
-0.005,0.238,0.968,-0.244,2441218
-0.004,0.239,0.969,-0.183,2441222
-0.004,0.239,0.969,-0.183,2441226
-0.005,0.239,0.968,-0.183,2441230
-0.005,0.239,0.968,-0.183,2441234
-0.005,0.239,0.968,-0.183,2441238
-0.006,0.24,0.966,-0.122,2441242
-0.006,0.24,0.966,-0.305,2441246
-0.004,0.238,0.969,-0.122,2441250
-0.004,0.238,0.969,-0.244,2441254
-0.004,0.238,0.969,-0.244,2441258
-0.007,0.238,0.967,-0.366,2441262
-0.007,0.238,0.967,-0.244,2441265
-0.007,0.238,0.966,-0.244,2441269
-0.007,0.238,0.966,-0.305,2441273
-0.007,0.238,0.966,-0.305,2441277
-0.004,0.238,0.967,-0.244,2441281
-0.004,0.238,0.967,-0.244,2441285
-0.006,0.238,0.97,-0.183,2441289
-0.006,0.238,0.97,-0.183,2441293
-0.006,0.238,0.97,-0.183,2441297
-0.006,0.237,0.968,-0.183,2441301
-0.006,0.237,0.968,-0.244,2441305
-0.008,0.238,0.968,-0.244,2441309
-0.008,0.238,0.968,-0.305,2441313
-0.008,0.238,0.968,-0.305,2441317
-0.007,0.237,0.968,-0.305,2441321
-0.007,0.237,0.968,-0.244,2441325
-0.005,0.24,0.967,0.0,2441329
-0.005,0.24,0.967,-0.061,2441333
-0.005,0.24,0.967,-0.061,2441337
-0.006,0.236,0.966,-0.122,2441341
-0.006,0.236,0.966,-0.244,2441345
-0.008,0.236,0.968,-0.122,2441349
-0.008,0.236,0.968,-0.061,2441353
-0.008,0.236,0.968,-0.061,2441357
-0.006,0.237,0.969,-0.122,2441361
-0.006,0.237,0.969,-0.183,2441365
-0.006,0.239,0.966,-0.244,2441369
-0.006,0.239,0.966,-0.122,2441373
-0.006,0.239,0.966,-0.122,2441377
-0.007,0.239,0.966,-0.122,2441381
-0.007,0.239,0.966,-0.122,2441385
-0.007,0.238,0.969,-0.244,2441389
-0.007,0.238,0.969,-0.244,2441393
-0.007,0.238,0.969,-0.244,2441397
-0.006,0.238,0.968,-0.244,2441401
-0.006,0.238,0.968,-0.183,2441405
-0.006,0.238,0.967,-0.183,2441409
-0.006,0.238,0.967,-0.183,2441413
-0.006,0.238,0.967,-0.183,2441416
-0.008,0.238,0.967,-0.244,2441420
-0.008,0.238,0.967,-0.122,2441424
-0.006,0.237,0.968,-0.244,2441428
-0.006,0.237,0.968,-0.305,2441432
-0.006,0.237,0.968,-0.305,2441436
-0.005,0.237,0.967,-0.122,2441440
-0.005,0.237,0.967,-0.244,2441444
-0.005,0.238,0.967,-0.244,2441448
-0.005,0.238,0.967,-0.244,2441452
-0.005,0.238,0.967,-0.244,2441456
-0.006,0.238,0.967,-0.244,2441460
-0.006,0.238,0.967,-0.305,2441464
-0.006,0.237,0.968,-0.122,2441468
-0.006,0.237,0.968,-0.122,2441472
-0.006,0.237,0.968,-0.122,2441476
-0.004,0.238,0.968,-0.305,2441480
-0.004,0.238,0.968,-0.305,2441484
-0.003,0.239,0.968,-0.244,2441488
-0.003,0.239,0.968,-0.122,2441492
-0.003,0.239,0.968,-0.122,2441496
-0.005,0.238,0.97,-0.183,2441500
-0.005,0.238,0.97,-0.244,2441504
-0.004,0.237,0.969,-0.244,2441508
-0.004,0.237,0.969,-0.366,2441512
-0.006,0.237,0.968,-0.305,2441516
-0.006,0.237,0.968,-0.305,2441520
-0.006,0.237,0.968,-0.122,2441524
-0.005,0.238,0.969,-0.122,2441528
-0.005,0.238,0.969,-0.244,2441532
-0.005,0.237,0.969,-0.305,2441536
-0.005,0.237,0.969,-0.305,2441540
-0.005,0.237,0.969,-0.122,2441544
-0.006,0.237,0.967,-0.183,2441548
-0.006,0.237,0.967,-0.305,2441552
-0.006,0.236,0.969,-0.244,2441556
-0.006,0.236,0.969,-0.244,2441560
-0.006,0.236,0.969,-0.183,2441564
-0.005,0.239,0.969,-0.183,2441568
-0.005,0.239,0.969,-0.244,2441571
-0.005,0.238,0.968,-0.244,2441575
-0.005,0.238,0.968,-0.244,2441579
-0.005,0.238,0.968,-0.244,2441583
-0.007,0.235,0.967,-0.122,2441587
-0.007,0.235,0.967,-0.061,2441591
-0.007,0.238,0.967,-0.183,2441595
-0.007,0.238,0.967,-0.183,2441599
-0.007,0.238,0.967,-0.305,2441603
-0.009,0.239,0.966,-0.183,2441607
-0.009,0.239,0.966,-0.183,2441611
-0.008,0.238,0.967,-0.183,2441615
-0.008,0.238,0.967,-0.183,2441619
-0.008,0.238,0.967,-0.183,2441623
-0.005,0.236,0.966,-0.183,2441627
-0.005,0.236,0.966,-0.122,2441631
-0.006,0.239,0.967,-0.305,2441635
-0.006,0.239,0.967,-0.305,2441639
-0.006,0.239,0.967,-0.183,2441643
-0.006,0.237,0.965,-0.122,2441647
-0.006,0.237,0.965,-0.244,2441651
-0.007,0.239,0.968,-0.183,2441655
-0.007,0.239,0.968,-0.183,2441659
-0.007,0.239,0.968,-0.183,2441663
-0.006,0.239,0.967,-0.183,2441667
-0.006,0.239,0.967,-0.183,2441671
-0.007,0.238,0.967,-0.244,2441675
-0.007,0.238,0.967,-0.244,2441679
-0.007,0.238,0.967,-0.061,2441683
-0.007,0.238,0.967,-0.305,2441687
-0.007,0.238,0.967,-0.244,2441691
-0.007,0.239,0.966,-0.244,2441695
-0.007,0.239,0.966,-0.244,2441699
-0.007,0.239,0.966,-0.122,2441703
-0.006,0.239,0.968,-0.122,2441707
-0.006,0.239,0.968,-0.305,2441711
-0.008,0.238,0.969,-0.244,2441715
-0.008,0.238,0.969,-0.244,2441719
-0.008,0.238,0.969,-0.183,2441723
-0.005,0.237,0.967,-0.244,2441726
-0.005,0.237,0.967,-0.244,2441730
-0.007,0.238,0.967,-0.244,2441734
-0.007,0.238,0.967,-0.244,2441738
-0.007,0.238,0.967,-0.244,2441742
-0.006,0.237,0.968,-0.122,2441746
-0.006,0.237,0.968,-0.122,2441750
-0.006,0.238,0.969,-0.183,2441754
-0.006,0.238,0.969,-0.183,2441758
-0.006,0.238,0.969,-0.122,2441762
-0.007,0.237,0.969,-0.366,2441766
-0.007,0.237,0.969,-0.122,2441770
-0.005,0.236,0.969,-0.183,2441774
-0.005,0.236,0.969,-0.183,2441778
-0.005,0.236,0.969,-0.244,2441782
-0.006,0.239,0.967,-0.183,2441786
-0.006,0.239,0.967,-0.122,2441790
-0.005,0.239,0.971,-0.122,2441794
-0.005,0.239,0.971,-0.122,2441798
-0.005,0.239,0.971,-0.244,2441802
-0.005,0.238,0.967,-0.305,2441806
-0.005,0.238,0.967,-0.122,2441810
-0.006,0.238,0.967,-0.061,2441814
-0.006,0.238,0.967,-0.061,2441818
-0.006,0.238,0.967,-0.244,2441822
-0.005,0.238,0.964,-0.244,2441826
-0.005,0.238,0.964,-0.244,2441830
-0.006,0.238,0.966,-0.305,2441834
-0.006,0.238,0.966,-0.305,2441838
-0.006,0.238,0.966,-0.061,2441842
-0.006,0.236,0.968,-0.122,2441846
-0.006,0.236,0.968,-0.183,2441850
-0.006,0.236,0.966,-0.183,2441854
-0.006,0.236,0.966,-0.183,2441858
-0.006,0.236,0.966,-0.122,2441862
-0.005,0.238,0.967,-0.122,2441866
-0.005,0.238,0.967,-0.061,2441870
-0.007,0.239,0.968,-0.122,2441874
-0.007,0.239,0.968,-0.122,2441878
-0.007,0.239,0.968,-0.122,2441882
-0.007,0.238,0.967,-0.122,2441886
-0.007,0.238,0.967,-0.183,2441889
-0.007,0.237,0.966,-0.244,2441893
-0.007,0.237,0.966,-0.244,2441897
-0.007,0.237,0.966,-0.244,2441901
-0.005,0.239,0.969,-0.244,2441905
-0.005,0.239,0.969,-0.183,2441909
-0.003,0.24,0.968,-0.183,2441913
-0.003,0.24,0.968,-0.183,2441917
-0.003,0.24,0.968,-0.061,2441921
-0.005,0.242,0.968,-0.122,2441925
-0.005,0.242,0.968,-0.122,2441929
-0.005,0.241,0.968,-0.305,2441933
-0.005,0.241,0.968,-0.305,2441937
-0.005,0.241,0.968,-0.244,2441941
-0.005,0.24,0.966,-0.305,2441945
-0.005,0.24,0.966,-0.305,2441949
-0.004,0.241,0.968,-0.244,2441953
-0.004,0.241,0.968,-0.244,2441957
-0.004,0.241,0.968,-0.183,2441961
-0.003,0.241,0.967,-0.244,2441965
-0.003,0.241,0.967,-0.244,2441969
-0.003,0.24,0.968,-0.183,2441973
-0.003,0.24,0.968,-0.183,2441977
-0.003,0.24,0.968,-0.305,2441981
-0.001,0.239,0.967,-0.305,2441985
-0.001,0.239,0.967,-0.305,2441989
-0.003,0.237,0.967,-0.244,2441993
-0.003,0.237,0.967,-0.244,2441997
-0.003,0.237,0.967,-0.244,2442001
-0.004,0.234,0.968,-0.244,2442005
-0.004,0.234,0.968,-0.244,2442009
-0.005,0.234,0.971,-0.244,2442013
-0.005,0.234,0.971,-0.244,2442017
-0.005,0.234,0.971,-0.183,2442021
-0.005,0.236,0.968,-0.183,2442025
-0.005,0.236,0.968,-0.305,2442029
-0.006,0.234,0.966,-0.183,2442032
-0.006,0.234,0.966,-0.183,2442036
-0.006,0.234,0.966,-0.061,2442040
-0.007,0.234,0.966,-0.061,2442044
-0.007,0.234,0.966,-0.061,2442048
-0.008,0.235,0.968,-0.061,2442052
-0.008,0.235,0.968,-0.061,2442056
-0.008,0.235,0.968,0.0,2442060
-0.009,0.234,0.969,-0.122,2442064
-0.009,0.234,0.969,-0.122,2442068
-0.01,0.234,0.967,-0.183,2442072
-0.01,0.234,0.967,-0.183,2442076
-0.01,0.234,0.967,-0.244,2442080
-0.009,0.234,0.967,-0.122,2442084
-0.009,0.234,0.967,-0.183,2442088
-0.009,0.235,0.968,-0.244,2442092
-0.009,0.235,0.968,-0.244,2442096
-0.009,0.235,0.968,-0.244,2442100
-0.01,0.237,0.967,-0.183,2442104
-0.01,0.237,0.967,-0.183,2442108
-0.009,0.236,0.967,-0.183,2442112
-0.009,0.236,0.967,-0.183,2442116
-0.009,0.236,0.967,-0.183,2442120
-0.008,0.237,0.966,-0.122,2442124
-0.008,0.237,0.966,0.061,2442128
-0.007,0.239,0.967,-0.061,2442132
-0.007,0.239,0.967,-0.061,2442136
-0.007,0.239,0.967,-0.122,2442140
-0.007,0.239,0.966,-0.244,2442144
-0.007,0.239,0.966,-0.183,2442148
-0.007,0.24,0.966,-0.244,2442152
-0.007,0.24,0.966,-0.244,2442156
-0.007,0.24,0.966,-0.183,2442160
-0.005,0.239,0.967,-0.122,2442164
-0.005,0.239,0.967,-0.244,2442168
-0.007,0.241,0.968,-0.244,2442171
-0.007,0.241,0.968,-0.244,2442175
-0.007,0.241,0.968,-0.183,2442179
-0.005,0.242,0.967,-0.183,2442183
-0.005,0.242,0.967,-0.061,2442187
-0.002,0.243,0.966,-0.183,2442191
-0.002,0.243,0.966,-0.183,2442195
-0.002,0.243,0.966,-0.122,2442199
-0.003,0.243,0.965,-0.061,2442203
-0.003,0.243,0.965,-0.061,2442207
-0.003,0.244,0.973,-0.122,2442211
-0.003,0.244,0.973,-0.122,2442215
-0.003,0.244,0.973,-0.183,2442219
-0.002,0.243,0.97,-0.244,2442223
-0.002,0.243,0.97,-0.305,2442227
-0.001,0.241,0.963,-0.305,2442231
-0.001,0.241,0.963,-0.305,2442235
-0.001,0.241,0.963,-0.183,2442239
-0.003,0.24,0.968,-0.122,2442243
-0.003,0.24,0.968,-0.183,2442247
-0.002,0.236,0.968,-0.244,2442251
-0.002,0.236,0.968,-0.122,2442255
-0.002,0.236,0.968,-0.122,2442259
-0.002,0.236,0.971,-0.305,2442263
-0.002,0.236,0.971,-0.244,2442267
-0.004,0.235,0.968,-0.061,2442271
-0.004,0.235,0.968,-0.305,2442275
-0.004,0.235,0.968,-0.305,2442279
-0.004,0.233,0.972,-0.366,2442283
-0.004,0.233,0.972,-0.366,2442287
-0.005,0.231,0.971,-0.183,2442291
-0.005,0.231,0.971,-0.183,2442295
-0.005,0.231,0.971,-0.183,2442299
-0.006,0.231,0.969,-0.244,2442303
-0.006,0.231,0.969,-0.244,2442307
-0.006,0.229,0.969,-0.244,2442311
-0.006,0.229,0.969,-0.244,2442315
-0.006,0.229,0.969,-0.244,2442319
-0.005,0.233,0.968,-0.244,2442323
-0.005,0.233,0.968,-0.122,2442326
-0.007,0.233,0.969,-0.061,2442330
-0.007,0.233,0.969,-0.244,2442334
-0.007,0.233,0.969,-0.244,2442338
-0.007,0.234,0.969,-0.183,2442342
-0.007,0.234,0.969,-0.122,2442346
-0.007,0.236,0.966,-0.183,2442350
-0.007,0.236,0.966,-0.183,2442354
-0.007,0.236,0.966,-0.183,2442358
-0.006,0.239,0.965,-0.305,2442362
-0.006,0.239,0.965,-0.183,2442366
-0.007,0.24,0.968,-0.061,2442370
-0.007,0.24,0.968,-0.183,2442374
-0.007,0.24,0.968,-0.183,2442378
-0.01,0.24,0.967,-0.183,2442382
-0.01,0.24,0.967,-0.305,2442386
-0.009,0.24,0.965,-0.122,2442390
-0.009,0.24,0.965,-0.061,2442394
-0.009,0.24,0.965,-0.061,2442398
-0.009,0.242,0.965,-0.122,2442402
-0.009,0.242,0.965,-0.183,2442406
-0.009,0.243,0.965,-0.244,2442410
-0.009,0.243,0.965,-0.244,2442414
-0.009,0.243,0.965,-0.244,2442418
-0.009,0.241,0.966,-0.244,2442422
-0.009,0.241,0.966,-0.244,2442426
-0.007,0.242,0.966,-0.122,2442430
-0.007,0.242,0.966,-0.183,2442434
-0.007,0.242,0.966,-0.183,2442438
-0.007,0.24,0.965,-0.183,2442442
-0.007,0.24,0.965,-0.122,2442446
-0.008,0.24,0.966,-0.122,2442450
-0.008,0.24,0.966,-0.122,2442454
-0.008,0.24,0.966,-0.122,2442458
-0.008,0.24,0.965,-0.061,2442462
-0.008,0.24,0.965,-0.061,2442466
-0.005,0.238,0.968,-0.244,2442470
-0.005,0.238,0.968,-0.244,2442474
-0.005,0.238,0.968,-0.244,2442478
-0.005,0.24,0.967,-0.244,2442482
-0.005,0.24,0.967,-0.244,2442486
-0.004,0.24,0.968,-0.183,2442489
-0.004,0.24,0.968,-0.183,2442493
-0.004,0.24,0.968,-0.183,2442497
-0.003,0.238,0.968,-0.122,2442501
-0.003,0.238,0.968,-0.183,2442505
-0.001,0.236,0.969,-0.122,2442509
-0.001,0.236,0.969,-0.183,2442513
-0.001,0.236,0.969,-0.183,2442517
-0.002,0.235,0.969,-0.244,2442521
-0.002,0.235,0.969,-0.183,2442525
-0.003,0.236,0.969,-0.183,2442529
-0.003,0.236,0.969,-0.366,2442533
-0.003,0.236,0.969,-0.366,2442537
-0.002,0.233,0.97,-0.122,2442541
-0.002,0.233,0.97,-0.061,2442545
-0.003,0.234,0.971,-0.122,2442549
-0.003,0.234,0.971,-0.305,2442553
-0.003,0.234,0.971,-0.305,2442557
-0.004,0.233,0.968,-0.244,2442561
-0.004,0.233,0.968,-0.183,2442565
-0.003,0.232,0.971,0.0,2442569
-0.003,0.232,0.971,-0.122,2442573
-0.003,0.232,0.971,-0.122,2442577
-0.004,0.234,0.969,-0.244,2442581
-0.004,0.234,0.969,-0.122,2442585
-0.005,0.235,0.969,-0.061,2442589
-0.005,0.235,0.969,-0.122,2442593
-0.005,0.235,0.969,-0.122,2442597
-0.004,0.238,0.968,-0.244,2442601
-0.004,0.238,0.968,-0.244,2442605
-0.004,0.238,0.967,0.0,2442609
-0.004,0.238,0.967,-0.244,2442612
-0.004,0.238,0.967,-0.244,2442616
-0.004,0.24,0.967,-0.183,2442620
-0.004,0.24,0.967,0.0,2442624
-0.005,0.241,0.966,-0.244,2442628
-0.005,0.241,0.966,-0.183,2442632
-0.005,0.241,0.966,-0.183,2442636
-0.006,0.242,0.967,-0.305,2442640
-0.006,0.242,0.967,-0.244,2442644
-0.007,0.24,0.966,-0.183,2442648
-0.007,0.24,0.966,-0.244,2442652
-0.007,0.24,0.966,-0.244,2442656
-0.006,0.24,0.965,-0.305,2442660
-0.006,0.24,0.965,-0.244,2442664
-0.008,0.24,0.966,-0.244,2442668
-0.008,0.24,0.966,-0.183,2442672
-0.008,0.24,0.966,-0.183,2442676
-0.008,0.24,0.967,-0.244,2442680
-0.008,0.24,0.967,-0.305,2442684
-0.009,0.24,0.967,-0.183,2442688
-0.009,0.24,0.967,-0.244,2442692
-0.009,0.24,0.967,-0.244,2442696
-0.009,0.239,0.967,-0.183,2442700
-0.009,0.239,0.967,-0.305,2442704
-0.009,0.239,0.966,-0.366,2442708
-0.009,0.239,0.966,-0.122,2442712
-0.009,0.239,0.966,-0.122,2442716
-0.007,0.237,0.965,-0.305,2442720
-0.007,0.237,0.965,-0.244,2442724
-0.005,0.237,0.967,-0.244,2442728
-0.005,0.237,0.967,-0.244,2442732
-0.005,0.237,0.967,-0.244,2442736
-0.006,0.236,0.968,-0.122,2442740
-0.006,0.236,0.968,-0.183,2442744
-0.007,0.236,0.968,-0.305,2442748
-0.007,0.236,0.968,-0.061,2442752
-0.007,0.236,0.968,-0.061,2442755
-0.004,0.238,0.969,-0.183,2442759
-0.004,0.238,0.969,-0.183,2442763
-0.006,0.235,0.968,-0.183,2442767
-0.006,0.235,0.968,-0.183,2442771
-0.006,0.235,0.968,-0.183,2442775
-0.007,0.236,0.968,-0.183,2442779
-0.007,0.236,0.968,-0.244,2442783
-0.004,0.236,0.969,-0.366,2442787
-0.004,0.236,0.969,-0.183,2442791
-0.004,0.236,0.969,-0.183,2442795
-0.004,0.235,0.97,-0.061,2442799
-0.004,0.235,0.97,-0.244,2442803
-0.005,0.236,0.968,-0.122,2442807
-0.005,0.236,0.968,-0.183,2442811
-0.005,0.236,0.968,-0.183,2442815
-0.003,0.237,0.967,-0.183,2442819
-0.003,0.237,0.967,0.0,2442823
-0.004,0.238,0.969,-0.061,2442827
-0.004,0.238,0.969,-0.183,2442831
-0.004,0.238,0.969,-0.183,2442835
-0.004,0.238,0.97,-0.183,2442839
-0.004,0.238,0.97,-0.122,2442843
-0.002,0.24,0.969,-0.122,2442847
-0.002,0.24,0.969,-0.244,2442851
-0.002,0.24,0.969,-0.244,2442855
-0.004,0.239,0.969,-0.305,2442859
-0.004,0.239,0.969,-0.366,2442863
-0.003,0.237,0.967,-0.061,2442867
-0.003,0.237,0.967,-0.061,2442871
-0.003,0.237,0.967,-0.061,2442875
-0.002,0.239,0.968,-0.183,2442879
-0.002,0.239,0.968,0.0,2442883
-0.002,0.239,0.969,-0.061,2442886
-0.002,0.239,0.969,-0.183,2442890
-0.002,0.239,0.969,-0.183,2442894
-0.003,0.238,0.968,-0.244,2442898
-0.003,0.238,0.968,-0.183,2442902
-0.006,0.238,0.967,-0.183,2442906
-0.006,0.238,0.967,-0.122,2442910
-0.006,0.238,0.967,-0.122,2442914
-0.006,0.239,0.968,-0.183,2442918
-0.006,0.239,0.968,-0.244,2442922
-0.008,0.238,0.968,-0.244,2442926
-0.008,0.238,0.968,-0.183,2442930
-0.008,0.238,0.968,-0.183,2442934
-0.01,0.24,0.968,-0.122,2442938
-0.01,0.24,0.968,-0.122,2442942
-0.01,0.24,0.967,-0.122,2442946
-0.01,0.24,0.967,-0.305,2442950
-0.01,0.24,0.967,-0.305,2442954
-0.008,0.238,0.967,-0.366,2442958
-0.008,0.238,0.967,-0.122,2442962
-0.009,0.237,0.967,-0.305,2442966
-0.009,0.237,0.967,-0.244,2442970
-0.009,0.237,0.967,-0.244,2442974
-0.007,0.237,0.965,-0.122,2442978
-0.007,0.237,0.965,-0.305,2442982
-0.007,0.236,0.959,-0.305,2442986
-0.007,0.236,0.959,-0.244,2442990
-0.007,0.236,0.959,-0.244,2442994
-0.008,0.238,0.98,-0.244,2442998
-0.008,0.238,0.98,-0.183,2443002
-0.006,0.236,0.97,-0.244,2443006
-0.006,0.236,0.97,-0.305,2443010
-0.006,0.236,0.97,-0.305,2443014
-0.003,0.239,0.96,-0.122,2443018
-0.003,0.239,0.96,-0.183,2443022
-0.003,0.238,0.969,-0.183,2443026
-0.003,0.238,0.969,-0.122,2443030
-0.003,0.238,0.969,-0.122,2443034
-0.006,0.24,0.968,-0.122,2443038
-0.006,0.24,0.968,0.0,2443041
-0.004,0.238,0.972,-0.183,2443045
-0.004,0.238,0.972,-0.305,2443049
-0.004,0.238,0.972,-0.305,2443053
-0.004,0.237,0.963,-0.183,2443057
-0.004,0.237,0.963,-0.061,2443061
-0.006,0.239,0.971,-0.122,2443065
-0.006,0.239,0.971,-0.183,2443069
-0.006,0.239,0.971,-0.183,2443073
-0.004,0.238,0.968,-0.122,2443077
-0.004,0.238,0.968,0.061,2443081
-0.004,0.236,0.968,-0.183,2443085
-0.004,0.236,0.968,-0.244,2443089
-0.004,0.236,0.968,-0.244,2443093
-0.004,0.236,0.968,-0.061,2443097
-0.004,0.236,0.968,-0.122,2443101
-0.005,0.236,0.969,-0.183,2443105
-0.005,0.236,0.969,-0.305,2443109
-0.005,0.236,0.969,-0.305,2443113
-0.005,0.234,0.972,-0.183,2443117
-0.005,0.234,0.972,-0.244,2443121
-0.006,0.234,0.969,-0.183,2443125
-0.006,0.234,0.969,-0.183,2443129
-0.006,0.234,0.969,-0.183,2443133
-0.004,0.235,0.968,-0.122,2443137
-0.004,0.235,0.968,-0.183,2443141
-0.005,0.236,0.969,-0.244,2443145
-0.005,0.236,0.969,-0.122,2443149
-0.005,0.236,0.969,-0.122,2443153
-0.004,0.237,0.969,-0.244,2443157
-0.004,0.237,0.969,-0.061,2443161
-0.006,0.237,0.967,-0.183,2443165
-0.006,0.237,0.967,-0.305,2443169
-0.006,0.237,0.967,-0.305,2443173
-0.007,0.239,0.964,-0.183,2443177
-0.007,0.239,0.964,-0.122,2443180
-0.007,0.24,0.966,-0.183,2443184
-0.007,0.24,0.966,-0.122,2443188
-0.007,0.24,0.966,-0.122,2443192
-0.007,0.241,0.968,-0.244,2443196
-0.007,0.241,0.968,-0.183,2443200
-0.007,0.24,0.969,-0.122,2443204
-0.007,0.24,0.969,-0.183,2443208
-0.007,0.24,0.969,-0.183,2443212
-0.005,0.241,0.966,-0.183,2443216
-0.005,0.241,0.966,-0.244,2443220
-0.004,0.241,0.966,-0.183,2443224
-0.004,0.241,0.966,-0.122,2443228
-0.004,0.241,0.966,-0.122,2443232
-0.006,0.241,0.969,-0.183,2443236
-0.006,0.241,0.969,-0.183,2443240
-0.005,0.241,0.968,-0.061,2443244
-0.005,0.241,0.968,-0.183,2443248
-0.005,0.241,0.968,-0.183,2443252
-0.007,0.24,0.968,-0.183,2443256
-0.007,0.24,0.968,-0.244,2443260
-0.007,0.239,0.965,-0.183,2443264
-0.007,0.239,0.965,-0.122,2443268
-0.007,0.239,0.965,-0.122,2443272
-0.007,0.239,0.968,-0.244,2443276
-0.007,0.239,0.968,-0.183,2443280
-0.007,0.238,0.968,-0.061,2443284
-0.007,0.238,0.968,-0.122,2443288
-0.008,0.238,0.968,-0.244,2443292
-0.008,0.238,0.968,-0.244,2443296
-0.008,0.238,0.968,-0.305,2443300
-0.008,0.235,0.967,-0.244,2443304
-0.008,0.235,0.967,-0.183,2443308
-0.007,0.234,0.966,-0.183,2443312
-0.007,0.234,0.966,-0.183,2443316
-0.007,0.234,0.966,-0.244,2443320
-0.008,0.235,0.967,-0.244,2443324
-0.008,0.235,0.967,-0.244,2443327
-0.005,0.233,0.969,-0.183,2443331
-0.005,0.233,0.969,-0.183,2443335
-0.005,0.233,0.969,-0.244,2443339
-0.004,0.235,0.969,-0.183,2443343
-0.004,0.235,0.969,-0.183,2443347
-0.006,0.235,0.968,-0.183,2443351
-0.006,0.235,0.968,-0.183,2443355
-0.006,0.235,0.968,-0.305,2443359
-0.005,0.235,0.968,-0.122,2443363
-0.005,0.235,0.968,-0.122,2443367
-0.005,0.237,0.968,-0.122,2443371
-0.005,0.237,0.968,-0.122,2443375
-0.005,0.237,0.968,-0.122,2443379
-0.004,0.237,0.967,0.0,2443383
-0.004,0.237,0.967,-0.122,2443387
-0.004,0.239,0.967,-0.122,2443391
-0.004,0.239,0.967,-0.122,2443395
-0.004,0.239,0.967,-0.061,2443399
-0.005,0.24,0.967,-0.183,2443403
-0.005,0.24,0.967,-0.122,2443407
-0.004,0.239,0.966,-0.183,2443411
-0.004,0.239,0.966,-0.183,2443415
-0.004,0.239,0.966,-0.305,2443419
-0.003,0.241,0.967,-0.122,2443423
-0.003,0.241,0.967,-0.122,2443427
-0.005,0.24,0.969,-0.244,2443431
-0.005,0.24,0.969,-0.244,2443435
-0.005,0.24,0.969,-0.183,2443439
-0.006,0.24,0.968,-0.305,2443443
-0.006,0.24,0.968,-0.244,2443447
-0.005,0.24,0.966,-0.183,2443451
-0.005,0.24,0.966,-0.183,2443455
-0.005,0.24,0.966,-0.183,2443459
-0.006,0.241,0.968,-0.183,2443463
-0.006,0.241,0.968,-0.183,2443467
-0.006,0.241,0.968,-0.061,2443471
-0.006,0.241,0.968,-0.061,2443475
-0.006,0.241,0.968,-0.122,2443479
-0.005,0.24,0.968,-0.244,2443483
-0.005,0.24,0.968,-0.305,2443487
-0.007,0.24,0.967,-0.183,2443490
-0.007,0.24,0.967,-0.183,2443494
-0.007,0.24,0.967,-0.122,2443498
-0.007,0.239,0.967,-0.244,2443502
-0.007,0.239,0.967,-0.366,2443506
-0.008,0.237,0.967,-0.244,2443510
-0.008,0.237,0.967,-0.244,2443514
-0.008,0.237,0.967,-0.244,2443518
-0.008,0.237,0.967,-0.366,2443522
-0.008,0.237,0.967,-0.305,2443526
-0.008,0.236,0.967,-0.183,2443530
-0.008,0.236,0.967,-0.183,2443534
-0.008,0.236,0.967,-0.061,2443538
-0.008,0.237,0.966,-0.244,2443542
-0.008,0.237,0.966,-0.244,2443546
-0.007,0.235,0.968,-0.244,2443550
-0.007,0.235,0.968,-0.244,2443554
-0.007,0.235,0.968,-0.244,2443558
-0.008,0.234,0.968,-0.122,2443562
-0.008,0.234,0.968,-0.061,2443566
-0.007,0.234,0.968,-0.244,2443570
-0.007,0.234,0.968,-0.244,2443574
-0.007,0.234,0.968,-0.183,2443578
-0.007,0.235,0.969,-0.061,2443582
-0.007,0.235,0.969,-0.183,2443586
-0.007,0.234,0.968,-0.122,2443590
-0.007,0.234,0.968,-0.122,2443594
-0.007,0.234,0.968,-0.183,2443598
-0.006,0.236,0.967,-0.122,2443602
-0.006,0.236,0.967,-0.183,2443606
-0.006,0.239,0.969,-0.183,2443610
-0.006,0.239,0.969,-0.183,2443614
-0.006,0.239,0.969,-0.305,2443618
-0.006,0.239,0.969,-0.122,2443622
-0.006,0.239,0.969,-0.183,2443626
-0.006,0.24,0.968,-0.244,2443629
-0.006,0.24,0.968,-0.244,2443633
-0.006,0.24,0.968,-0.122,2443637
-0.003,0.239,0.966,-0.183,2443641
-0.003,0.239,0.966,-0.183,2443645
-0.002,0.239,0.967,-0.305,2443649
-0.002,0.239,0.967,-0.305,2443653
-0.002,0.239,0.967,-0.183,2443657
-0.005,0.24,0.968,-0.244,2443661
-0.005,0.24,0.968,-0.183,2443665
-0.003,0.239,0.968,-0.244,2443669
-0.003,0.239,0.968,-0.244,2443673
-0.003,0.239,0.968,-0.305,2443677
-0.002,0.24,0.966,-0.061,2443681
-0.002,0.24,0.966,-0.061,2443685
-0.003,0.239,0.968,-0.183,2443689
-0.003,0.239,0.968,-0.183,2443693
-0.003,0.239,0.968,-0.061,2443697
-0.003,0.241,0.968,-0.122,2443701
-0.003,0.241,0.968,-0.183,2443705
-0.005,0.241,0.968,-0.183,2443709
-0.005,0.241,0.968,-0.183,2443713
-0.005,0.241,0.968,-0.061,2443717
-0.004,0.238,0.967,-0.122,2443721
-0.004,0.238,0.967,-0.183,2443725
-0.006,0.238,0.969,-0.183,2443729
-0.006,0.238,0.969,-0.183,2443733
-0.006,0.238,0.969,-0.183,2443737
-0.006,0.237,0.968,-0.183,2443741
-0.006,0.237,0.968,-0.183,2443745
-0.007,0.237,0.967,-0.183,2443749
-0.007,0.237,0.967,-0.183,2443753
-0.007,0.237,0.967,-0.305,2443757
-0.008,0.235,0.968,-0.183,2443761
-0.008,0.235,0.968,-0.061,2443765
-0.006,0.237,0.966,-0.122,2443769
-0.006,0.237,0.966,-0.122,2443773
-0.006,0.237,0.966,-0.244,2443777
-0.007,0.237,0.968,-0.244,2443781
-0.007,0.237,0.968,-0.305,2443784
-0.008,0.236,0.969,-0.183,2443788
-0.008,0.236,0.969,-0.183,2443792
-0.008,0.236,0.969,-0.244,2443796
-0.008,0.235,0.968,-0.244,2443800
-0.008,0.235,0.968,-0.061,2443804
-0.009,0.236,0.968,-0.183,2443808
-0.009,0.236,0.968,-0.183,2443812
-0.009,0.236,0.968,-0.122,2443816
-0.009,0.235,0.968,-0.244,2443820
-0.009,0.235,0.968,-0.122,2443824
-0.009,0.236,0.967,-0.183,2443828
-0.009,0.236,0.967,-0.183,2443832
-0.009,0.236,0.967,-0.122,2443836
-0.008,0.238,0.966,-0.305,2443840
-0.008,0.238,0.966,-0.305,2443844
-0.007,0.237,0.967,-0.061,2443848
-0.007,0.237,0.967,-0.061,2443852
-0.007,0.237,0.967,-0.122,2443856
-0.007,0.238,0.968,-0.122,2443860
-0.007,0.238,0.968,-0.183,2443864
-0.005,0.24,0.967,-0.122,2443868
-0.005,0.24,0.967,-0.122,2443872
-0.005,0.24,0.967,-0.183,2443876
-0.004,0.239,0.968,-0.061,2443880
-0.004,0.239,0.968,-0.183,2443884
-0.005,0.24,0.967,-0.061,2443888
-0.005,0.24,0.967,-0.061,2443892
-0.005,0.24,0.967,-0.122,2443896
-0.006,0.239,0.968,-0.244,2443900
-0.006,0.239,0.968,-0.366,2443904
-0.002,0.239,0.968,-0.305,2443908
-0.002,0.239,0.968,-0.305,2443912
-0.002,0.239,0.968,-0.244,2443916
-0.004,0.24,0.968,-0.122,2443920
-0.004,0.24,0.968,-0.244,2443924
-0.003,0.239,0.967,-0.183,2443928
-0.003,0.239,0.967,-0.183,2443932
-0.003,0.239,0.967,-0.244,2443936
-0.004,0.237,0.967,-0.122,2443940
-0.004,0.237,0.967,-0.244,2443944
-0.005,0.237,0.968,-0.244,2443947
-0.005,0.237,0.968,-0.244,2443951
-0.005,0.237,0.968,-0.244,2443955
-0.007,0.238,0.969,-0.183,2443959
-0.007,0.238,0.969,-0.183,2443963
-0.006,0.238,0.969,-0.183,2443967
-0.006,0.238,0.969,-0.061,2443971
-0.006,0.238,0.969,-0.061,2443975
-0.004,0.235,0.968,-0.122,2443979
-0.004,0.235,0.968,-0.122,2443983
-0.003,0.236,0.969,-0.305,2443987
-0.003,0.236,0.969,-0.305,2443991
-0.003,0.236,0.969,-0.305,2443995
-0.004,0.238,0.969,-0.244,2443999
-0.004,0.238,0.969,-0.244,2444003
-0.006,0.237,0.97,-0.305,2444007
-0.006,0.237,0.97,-0.305,2444011
-0.006,0.237,0.97,-0.305,2444015
-0.005,0.236,0.969,-0.305,2444019
-0.005,0.236,0.969,-0.122,2444023
-0.005,0.236,0.967,-0.244,2444027
-0.005,0.236,0.967,-0.244,2444031
-0.005,0.236,0.967,-0.244,2444035
-0.005,0.236,0.968,-0.122,2444039
-0.005,0.236,0.968,-0.061,2444043
-0.006,0.238,0.968,-0.122,2444047
-0.006,0.238,0.968,-0.183,2444051
-0.006,0.238,0.968,-0.183,2444055
-0.007,0.238,0.967,-0.244,2444059
-0.007,0.238,0.967,-0.061,2444063
-0.005,0.236,0.966,-0.183,2444067
-0.005,0.236,0.966,-0.244,2444071
-0.005,0.236,0.966,-0.244,2444075
-0.006,0.238,0.968,-0.183,2444079
-0.006,0.238,0.968,-0.244,2444083
-0.007,0.24,0.968,-0.183,2444086
-0.007,0.24,0.968,-0.061,2444090
-0.007,0.24,0.968,-0.061,2444094
-0.006,0.238,0.966,-0.122,2444098
-0.006,0.238,0.966,-0.183,2444102
-0.007,0.237,0.966,-0.305,2444106
-0.007,0.237,0.966,-0.244,2444110
-0.007,0.237,0.966,-0.244,2444114
-0.006,0.239,0.967,-0.305,2444118
-0.006,0.239,0.967,-0.122,2444122
-0.006,0.24,0.967,-0.183,2444126
-0.006,0.24,0.967,-0.183,2444130
-0.006,0.24,0.967,-0.183,2444134
-0.005,0.239,0.968,-0.122,2444138
-0.005,0.239,0.968,-0.183,2444142
-0.004,0.239,0.968,-0.244,2444146
-0.004,0.239,0.968,-0.122,2444150
-0.004,0.239,0.968,-0.122,2444154
-0.003,0.239,0.967,-0.061,2444158
-0.003,0.239,0.967,-0.122,2444162
-0.007,0.238,0.969,-0.183,2444166
-0.007,0.238,0.969,-0.183,2444170
-0.007,0.238,0.969,-0.183,2444174
-0.006,0.237,0.969,-0.122,2444178
-0.006,0.237,0.969,-0.244,2444182
-0.006,0.238,0.968,-0.183,2444186
-0.006,0.238,0.968,-0.366,2444190
-0.006,0.238,0.968,-0.366,2444194
-0.007,0.237,0.968,-0.244,2444198
-0.007,0.237,0.968,-0.122,2444202
-0.005,0.237,0.967,-0.061,2444206
-0.005,0.237,0.967,-0.183,2444210
-0.005,0.237,0.967,-0.183,2444214
-0.005,0.237,0.967,-0.305,2444218
-0.005,0.237,0.967,-0.061,2444222
-0.005,0.237,0.969,-0.183,2444226
-0.005,0.237,0.969,-0.183,2444230
-0.005,0.237,0.969,-0.183,2444234
-0.007,0.237,0.969,-0.183,2444237
-0.007,0.237,0.969,-0.305,2444241
-0.006,0.235,0.969,-0.122,2444245
-0.006,0.235,0.969,-0.183,2444249
-0.006,0.235,0.969,-0.183,2444253
-0.004,0.236,0.969,-0.244,2444257
-0.004,0.236,0.969,-0.183,2444261
-0.004,0.239,0.969,-0.061,2444265
-0.004,0.239,0.969,-0.122,2444269
-0.004,0.239,0.969,-0.122,2444273
-0.005,0.238,0.969,-0.183,2444277
-0.005,0.238,0.969,-0.183,2444281
-0.005,0.236,0.968,-0.244,2444285
-0.005,0.236,0.968,-0.244,2444289
-0.005,0.236,0.968,-0.244,2444293
-0.006,0.238,0.969,-0.183,2444297
-0.006,0.238,0.969,-0.122,2444301
-0.006,0.239,0.966,-0.122,2444305
-0.006,0.239,0.966,-0.244,2444309
-0.006,0.239,0.966,-0.244,2444313
-0.005,0.239,0.968,-0.183,2444317
-0.005,0.239,0.968,-0.183,2444321
-0.007,0.239,0.968,-0.305,2444325
-0.007,0.239,0.968,0.0,2444329
-0.007,0.239,0.968,0.0,2444333
-0.007,0.24,0.969,-0.061,2444337
-0.007,0.24,0.969,-0.305,2444341
-0.007,0.24,0.968,-0.244,2444345
-0.007,0.24,0.968,-0.183,2444349
-0.007,0.24,0.968,-0.183,2444353
-0.007,0.237,0.967,-0.244,2444357
-0.007,0.237,0.967,-0.244,2444361
-0.007,0.239,0.967,-0.244,2444365
-0.007,0.239,0.967,-0.183,2444369
-0.007,0.239,0.967,-0.183,2444373
-0.006,0.238,0.966,-0.305,2444377
-0.006,0.238,0.966,-0.183,2444380
-0.007,0.238,0.967,-0.122,2444384
-0.007,0.238,0.967,-0.244,2444388
-0.007,0.238,0.967,-0.244,2444392
-0.007,0.238,0.968,-0.183,2444396
-0.007,0.238,0.968,-0.122,2444400
-0.006,0.237,0.966,-0.061,2444404
-0.006,0.237,0.966,-0.183,2444408
-0.006,0.237,0.966,-0.183,2444412
-0.007,0.238,0.967,-0.183,2444416
-0.007,0.238,0.967,-0.122,2444420
-0.008,0.239,0.968,-0.122,2444424
-0.008,0.239,0.968,-0.183,2444428
-0.008,0.239,0.968,-0.183,2444432
-0.008,0.237,0.968,-0.244,2444436
-0.008,0.237,0.968,-0.183,2444440
-0.007,0.238,0.968,-0.427,2444444
-0.007,0.238,0.968,-0.183,2444448
-0.007,0.238,0.968,-0.183,2444452
-0.005,0.238,0.967,-0.244,2444456
-0.005,0.238,0.967,-0.244,2444460
-0.005,0.236,0.968,-0.122,2444464
-0.005,0.236,0.968,-0.244,2444468
-0.005,0.236,0.968,-0.244,2444472
-0.005,0.237,0.969,-0.183,2444476
-0.005,0.237,0.969,-0.244,2444480
-0.004,0.238,0.969,-0.183,2444484
-0.004,0.238,0.969,-0.305,2444488
-0.004,0.238,0.969,-0.305,2444492
-0.005,0.238,0.967,-0.244,2444496
-0.005,0.238,0.967,-0.183,2444500
-0.005,0.237,0.967,-0.183,2444504
-0.005,0.237,0.967,-0.305,2444508
-0.005,0.237,0.967,-0.305,2444512
-0.004,0.237,0.967,-0.305,2444516
-0.004,0.237,0.967,0.0,2444520
-0.005,0.237,0.969,-0.183,2444523
-0.005,0.237,0.969,-0.244,2444527
-0.005,0.237,0.969,-0.244,2444531
-0.004,0.239,0.967,-0.183,2444535
-0.004,0.239,0.967,-0.183,2444539
-0.004,0.236,0.97,-0.183,2444543
-0.004,0.236,0.97,-0.244,2444547
-0.004,0.236,0.97,-0.244,2444551
-0.004,0.236,0.969,-0.183,2444555
-0.004,0.236,0.969,-0.122,2444559
-0.004,0.238,0.968,-0.122,2444563
-0.004,0.238,0.968,-0.061,2444567
-0.004,0.238,0.968,-0.061,2444571
-0.004,0.239,0.967,-0.244,2444575
-0.004,0.239,0.967,-0.244,2444579
-0.005,0.239,0.967,-0.122,2444583
-0.005,0.239,0.967,-0.122,2444587
-0.005,0.239,0.967,-0.122,2444591
-0.005,0.239,0.967,-0.183,2444595
-0.005,0.239,0.967,-0.183,2444599
-0.005,0.238,0.968,-0.305,2444603
-0.005,0.238,0.968,-0.244,2444607
-0.005,0.238,0.968,-0.244,2444611
-0.006,0.24,0.969,-0.183,2444615
-0.006,0.24,0.969,-0.183,2444619
-0.005,0.238,0.967,-0.244,2444623
-0.005,0.238,0.967,-0.244,2444627
-0.005,0.238,0.967,-0.244,2444631
-0.005,0.238,0.969,-0.244,2444635
-0.005,0.238,0.969,-0.183,2444639
-0.005,0.238,0.968,-0.183,2444643
-0.005,0.238,0.968,-0.183,2444647
-0.005,0.238,0.968,-0.183,2444651
-0.007,0.238,0.967,-0.183,2444655
-0.007,0.238,0.967,-0.305,2444659
-0.007,0.239,0.967,-0.244,2444663
-0.007,0.239,0.967,-0.183,2444667
-0.007,0.239,0.967,-0.183,2444671
-0.005,0.238,0.968,-0.183,2444675
-0.005,0.238,0.968,-0.183,2444679
-0.007,0.237,0.968,-0.122,2444683
-0.007,0.237,0.968,-0.183,2444687
-0.008,0.237,0.968,-0.244,2444691
-0.008,0.237,0.968,-0.244,2444694
-0.008,0.237,0.968,-0.244,2444698
-0.006,0.238,0.967,-0.244,2444702
-0.006,0.238,0.967,-0.183,2444706
-0.006,0.238,0.966,-0.244,2444710
-0.006,0.238,0.966,-0.244,2444714
-0.006,0.238,0.966,-0.183,2444718
-0.006,0.237,0.968,-0.244,2444722
-0.006,0.237,0.968,-0.244,2444726
-0.006,0.237,0.969,-0.244,2444730
-0.006,0.237,0.969,-0.244,2444734
-0.006,0.237,0.969,-0.122,2444738
-0.005,0.239,0.968,-0.244,2444742
-0.005,0.239,0.968,-0.244,2444746
-0.005,0.238,0.969,-0.183,2444750
-0.005,0.238,0.969,-0.183,2444754
-0.005,0.238,0.969,-0.183,2444758
-0.005,0.237,0.967,-0.183,2444762
-0.005,0.237,0.967,-0.366,2444766
-0.006,0.238,0.967,-0.183,2444770
-0.006,0.238,0.967,-0.183,2444774
-0.006,0.238,0.967,0.0,2444778
-0.005,0.237,0.967,-0.183,2444782
-0.005,0.237,0.967,-0.122,2444786
-0.004,0.24,0.967,-0.061,2444790
-0.004,0.24,0.967,-0.061,2444794
-0.004,0.24,0.967,-0.122,2444798
-0.007,0.239,0.966,-0.122,2444802
-0.007,0.239,0.966,-0.244,2444806
-0.006,0.238,0.968,-0.122,2444810
-0.006,0.238,0.968,-0.122,2444814
-0.006,0.238,0.968,-0.122,2444818
-0.004,0.238,0.969,-0.122,2444822
-0.004,0.238,0.969,-0.122,2444826
-0.004,0.239,0.968,-0.183,2444830
-0.004,0.239,0.968,-0.183,2444834
-0.004,0.239,0.968,-0.183,2444837
-0.004,0.238,0.967,-0.061,2444841
-0.004,0.238,0.967,-0.305,2444845
-0.005,0.238,0.967,-0.244,2444849
-0.005,0.238,0.967,-0.244,2444853
-0.005,0.238,0.967,-0.183,2444857
-0.006,0.238,0.969,0.0,2444861
-0.006,0.238,0.969,-0.122,2444865
-0.005,0.237,0.969,-0.305,2444869
-0.005,0.237,0.969,-0.305,2444873
-0.005,0.237,0.969,-0.183,2444877
-0.006,0.238,0.968,-0.183,2444881
-0.006,0.238,0.968,-0.305,2444885
-0.007,0.237,0.969,-0.183,2444889
-0.007,0.237,0.969,-0.183,2444893
-0.007,0.237,0.969,0.0,2444897
-0.006,0.238,0.969,-0.122,2444901
-0.006,0.238,0.969,-0.183,2444905
-0.007,0.238,0.968,-0.183,2444909
-0.007,0.238,0.968,-0.183,2444913
-0.007,0.238,0.968,-0.244,2444917
-0.007,0.24,0.967,-0.183,2444921
-0.007,0.24,0.967,-0.183,2444925
-0.006,0.238,0.969,-0.122,2444929
-0.006,0.238,0.969,-0.122,2444933
-0.006,0.238,0.969,-0.183,2444937
-0.008,0.238,0.969,-0.366,2444941
-0.008,0.238,0.969,-0.244,2444945
-0.007,0.238,0.968,-0.244,2444949
-0.007,0.238,0.968,-0.244,2444953
-0.007,0.238,0.968,-0.244,2444957
-0.006,0.238,0.966,-0.244,2444961
-0.006,0.238,0.966,-0.122,2444965
-0.007,0.238,0.968,-0.061,2444968
-0.007,0.238,0.968,-0.061,2444972
-0.007,0.238,0.968,-0.244,2444976
-0.007,0.239,0.968,-0.427,2444980
-0.007,0.239,0.968,-0.122,2444984
-0.005,0.24,0.968,-0.122,2444988
-0.005,0.24,0.968,-0.122,2444992
-0.005,0.24,0.968,-0.122,2444996
-0.005,0.239,0.966,-0.122,2445000
-0.005,0.239,0.966,-0.183,2445004
-0.007,0.236,0.966,-0.183,2445008
-0.007,0.236,0.966,-0.183,2445012
-0.007,0.236,0.966,-0.122,2445016
-0.007,0.239,0.967,-0.244,2445020
-0.007,0.239,0.967,-0.244,2445024
-0.006,0.239,0.967,-0.183,2445028
-0.006,0.239,0.967,-0.183,2445032
-0.006,0.239,0.967,-0.122,2445036
-0.007,0.239,0.968,-0.183,2445040
-0.007,0.239,0.968,-0.244,2445044
-0.006,0.238,0.967,-0.183,2445048
-0.006,0.238,0.967,-0.183,2445052
-0.006,0.238,0.967,-0.061,2445056
-0.006,0.237,0.967,-0.061,2445060
-0.006,0.237,0.967,-0.244,2445064
-0.006,0.237,0.969,-0.183,2445068
-0.006,0.237,0.969,-0.183,2445072
-0.006,0.237,0.969,-0.305,2445076
-0.005,0.237,0.968,-0.244,2445080
-0.005,0.237,0.968,-0.183,2445084
-0.004,0.238,0.969,-0.183,2445088
-0.004,0.238,0.969,-0.183,2445092
-0.004,0.238,0.969,-0.305,2445096
-0.006,0.237,0.968,-0.244,2445100
-0.006,0.237,0.968,-0.244,2445104
-0.005,0.238,0.968,-0.183,2445108
-0.005,0.238,0.968,-0.183,2445112
-0.005,0.238,0.968,-0.061,2445115
-0.007,0.237,0.967,0.0,2445119
-0.007,0.237,0.967,-0.061,2445123
-0.005,0.237,0.969,-0.061,2445127
-0.005,0.237,0.969,-0.061,2445131
-0.005,0.237,0.969,-0.183,2445135
-0.004,0.238,0.968,-0.183,2445139
-0.004,0.238,0.968,-0.183,2445143
-0.006,0.238,0.967,-0.244,2445147
-0.006,0.238,0.967,-0.244,2445151
-0.006,0.238,0.967,-0.305,2445155
-0.006,0.239,0.968,-0.183,2445159
-0.006,0.239,0.968,-0.122,2445163
-0.005,0.236,0.968,-0.183,2445167
-0.005,0.236,0.968,-0.183,2445171
-0.005,0.236,0.968,-0.244,2445175
-0.006,0.239,0.969,-0.244,2445179
-0.006,0.239,0.969,-0.244,2445183
-0.006,0.239,0.968,-0.244,2445187
-0.006,0.239,0.968,-0.244,2445191
-0.006,0.239,0.968,-0.244,2445195
-0.005,0.238,0.967,-0.183,2445199
-0.005,0.238,0.967,-0.122,2445203
-0.004,0.239,0.966,-0.183,2445207
-0.004,0.239,0.966,-0.183,2445211
-0.004,0.239,0.966,-0.427,2445215
-0.006,0.239,0.967,-0.244,2445219
-0.006,0.239,0.967,-0.244,2445223
-0.006,0.238,0.968,-0.183,2445227
-0.006,0.238,0.968,-0.183,2445231
-0.006,0.238,0.968,-0.122,2445235
-0.005,0.239,0.968,-0.122,2445239
-0.005,0.239,0.968,-0.183,2445243
-0.005,0.24,0.967,-0.183,2445247
-0.005,0.24,0.967,-0.183,2445251
-0.005,0.24,0.967,-0.183,2445254
-0.007,0.24,0.967,-0.183,2445258
-0.007,0.24,0.967,-0.183,2445262
-0.006,0.238,0.967,-0.122,2445266
-0.006,0.238,0.967,-0.122,2445270
-0.006,0.238,0.967,-0.366,2445274
-0.003,0.238,0.967,-0.305,2445278
-0.003,0.238,0.967,-0.061,2445282
-0.006,0.238,0.968,-0.122,2445286
-0.006,0.238,0.968,-0.122,2445290
-0.006,0.238,0.968,-0.183,2445294
-0.006,0.238,0.968,-0.183,2445298
-0.006,0.238,0.968,-0.305,2445302
-0.005,0.238,0.967,-0.122,2445306
-0.005,0.238,0.967,-0.122,2445310
-0.005,0.238,0.967,0.0,2445314
-0.008,0.238,0.967,-0.244,2445318
-0.008,0.238,0.967,-0.244,2445322
-0.005,0.237,0.966,-0.305,2445326
-0.005,0.237,0.966,-0.305,2445330
-0.005,0.237,0.966,-0.183,2445334
-0.005,0.237,0.968,-0.122,2445338
-0.005,0.237,0.968,-0.183,2445342
-0.005,0.237,0.967,-0.122,2445346
-0.005,0.237,0.967,-0.122,2445350
-0.005,0.237,0.967,-0.061,2445354
-0.006,0.237,0.967,-0.183,2445358
-0.006,0.237,0.967,-0.305,2445362
-0.004,0.238,0.968,-0.183,2445366
-0.004,0.238,0.968,-0.183,2445370
-0.004,0.238,0.968,-0.183,2445374
-0.006,0.239,0.968,-0.122,2445378
-0.006,0.239,0.968,-0.122,2445382
-0.006,0.237,0.967,-0.305,2445386
-0.006,0.237,0.967,-0.305,2445390
-0.006,0.237,0.967,-0.244,2445393
-0.005,0.239,0.966,-0.183,2445397
-0.005,0.239,0.966,-0.122,2445401
-0.004,0.238,0.967,-0.183,2445405
-0.004,0.238,0.967,-0.183,2445409
-0.004,0.238,0.967,-0.183,2445413
-0.006,0.238,0.968,-0.305,2445417
-0.006,0.238,0.968,-0.122,2445421
-0.007,0.238,0.968,-0.183,2445425
-0.007,0.238,0.968,-0.183,2445429
-0.007,0.238,0.968,-0.244,2445433
-0.006,0.237,0.969,-0.183,2445437
-0.006,0.237,0.969,-0.122,2445441
-0.006,0.238,0.968,-0.183,2445445
-0.006,0.238,0.968,-0.183,2445449
-0.006,0.238,0.968,-0.244,2445453
-0.006,0.238,0.969,-0.183,2445457
-0.006,0.238,0.969,-0.183,2445461
-0.006,0.237,0.969,-0.244,2445465
-0.006,0.237,0.969,-0.244,2445469
-0.006,0.237,0.969,-0.122,2445473
-0.006,0.236,0.969,-0.305,2445477
-0.006,0.236,0.969,-0.427,2445481
-0.007,0.238,0.967,-0.366,2445485
-0.007,0.238,0.967,-0.366,2445489
-0.007,0.238,0.967,-0.244,2445493
-0.005,0.238,0.967,-0.122,2445497
-0.005,0.238,0.967,-0.122,2445501
-0.006,0.237,0.969,-0.183,2445505
-0.006,0.237,0.969,-0.183,2445509
-0.006,0.237,0.969,-0.244,2445513
-0.006,0.239,0.969,-0.183,2445517
-0.006,0.239,0.969,-0.305,2445521
-0.007,0.24,0.968,-0.305,2445525
-0.007,0.24,0.968,-0.305,2445529
-0.007,0.24,0.968,-0.183,2445533
-0.006,0.239,0.968,-0.122,2445537
-0.006,0.239,0.968,-0.183,2445540
-0.004,0.237,0.969,-0.244,2445544
-0.004,0.237,0.969,-0.244,2445548
-0.004,0.237,0.969,-0.244,2445552
-0.006,0.238,0.966,-0.244,2445556
-0.006,0.238,0.966,-0.183,2445560
-0.007,0.237,0.968,-0.122,2445564
-0.007,0.237,0.968,-0.122,2445568
-0.007,0.237,0.968,-0.183,2445572
-0.006,0.238,0.966,-0.183,2445576
-0.006,0.238,0.966,0.0,2445580
-0.007,0.238,0.968,-0.183,2445584
-0.007,0.238,0.968,-0.183,2445588
-0.007,0.238,0.968,-0.305,2445592
-0.005,0.238,0.968,-0.244,2445596
-0.005,0.238,0.968,-0.305,2445600
-0.005,0.239,0.968,-0.244,2445604
-0.005,0.239,0.968,-0.244,2445608
-0.005,0.239,0.968,-0.183,2445612
-0.005,0.239,0.967,-0.183,2445616
-0.005,0.239,0.967,-0.183,2445620
-0.006,0.238,0.967,-0.122,2445624
-0.006,0.238,0.967,-0.122,2445628
-0.006,0.238,0.967,-0.122,2445632
-0.004,0.236,0.966,-0.122,2445636
-0.004,0.236,0.966,-0.183,2445640
-0.005,0.238,0.967,-0.305,2445644
-0.005,0.238,0.967,-0.305,2445648
-0.005,0.238,0.967,-0.183,2445652
-0.006,0.239,0.969,-0.244,2445656
-0.006,0.239,0.969,-0.122,2445660
-0.006,0.24,0.97,-0.244,2445664
-0.006,0.24,0.97,-0.244,2445668
-0.006,0.24,0.97,-0.244,2445671
-0.006,0.238,0.969,-0.305,2445675
-0.006,0.238,0.969,-0.183,2445679
-0.005,0.237,0.967,-0.122,2445683
-0.005,0.237,0.967,-0.183,2445687
-0.005,0.237,0.967,-0.183,2445691
-0.006,0.238,0.967,-0.244,2445695
-0.006,0.238,0.967,-0.244,2445699
-0.006,0.237,0.97,-0.183,2445703
-0.006,0.237,0.97,-0.244,2445707
-0.006,0.237,0.97,-0.244,2445711
-0.005,0.237,0.969,-0.122,2445715
-0.005,0.237,0.969,-0.061,2445719
-0.004,0.237,0.968,-0.122,2445723
-0.004,0.237,0.968,-0.183,2445727
-0.004,0.237,0.968,-0.183,2445731
-0.006,0.238,0.967,-0.366,2445735
-0.006,0.238,0.967,-0.183,2445739
-0.006,0.238,0.969,-0.305,2445743
-0.006,0.238,0.969,-0.305,2445747
-0.006,0.238,0.969,-0.305,2445751
-0.004,0.237,0.967,-0.244,2445755
-0.004,0.237,0.967,-0.183,2445759
-0.008,0.238,0.968,-0.244,2445763
-0.008,0.238,0.968,-0.305,2445767
-0.008,0.238,0.968,-0.305,2445771
-0.006,0.239,0.97,-0.183,2445775
-0.006,0.239,0.97,-0.122,2445779
-0.007,0.238,0.968,-0.122,2445783
-0.007,0.238,0.968,-0.183,2445787
-0.007,0.238,0.968,-0.183,2445791
-0.008,0.237,0.969,-0.183,2445795
-0.008,0.237,0.969,-0.244,2445799
-0.004,0.239,0.967,-0.122,2445803
-0.004,0.239,0.967,-0.122,2445807
-0.004,0.239,0.967,-0.122,2445811
-0.005,0.24,0.966,-0.061,2445815
-0.005,0.24,0.966,-0.183,2445819
-0.006,0.238,0.967,-0.244,2445822
-0.006,0.238,0.967,-0.061,2445826
-0.006,0.238,0.967,-0.061,2445830
-0.007,0.236,0.968,-0.244,2445834
-0.007,0.236,0.968,-0.366,2445838
-0.007,0.238,0.965,-0.183,2445842
-0.007,0.238,0.965,-0.183,2445846
-0.007,0.238,0.965,-0.183,2445850
-0.007,0.239,0.969,-0.244,2445854
-0.007,0.239,0.969,-0.244,2445858
-0.009,0.238,0.971,-0.122,2445862
-0.009,0.238,0.971,-0.244,2445866
-0.009,0.238,0.971,-0.244,2445870
-0.006,0.238,0.964,-0.183,2445874
-0.006,0.238,0.964,-0.122,2445878
-0.003,0.239,0.968,-0.183,2445882
-0.003,0.239,0.968,-0.122,2445886
-0.003,0.239,0.968,-0.122,2445890
-0.004,0.238,0.969,-0.244,2445894
-0.004,0.238,0.969,-0.244,2445898
-0.004,0.24,0.969,-0.122,2445902
-0.004,0.24,0.969,-0.183,2445906
-0.004,0.24,0.969,-0.183,2445910
-0.005,0.238,0.967,-0.061,2445914
-0.005,0.238,0.967,-0.122,2445918
-0.006,0.238,0.967,-0.305,2445922
-0.006,0.238,0.967,-0.305,2445926
-0.006,0.238,0.967,-0.305,2445930
-0.006,0.236,0.97,-0.305,2445934
-0.006,0.236,0.97,-0.061,2445938
-0.006,0.236,0.968,-0.183,2445942
-0.006,0.236,0.968,-0.244,2445946
-0.006,0.236,0.968,-0.244,2445950
-0.006,0.236,0.967,-0.183,2445954
-0.006,0.236,0.967,-0.183,2445958
-0.006,0.235,0.967,-0.244,2445962
-0.006,0.235,0.967,-0.183,2445966
-0.006,0.235,0.967,-0.183,2445970
-0.006,0.238,0.97,-0.122,2445974
-0.006,0.238,0.97,-0.061,2445977
-0.008,0.238,0.969,-0.122,2445981
-0.008,0.238,0.969,-0.183,2445985
-0.008,0.238,0.969,-0.183,2445989
-0.008,0.238,0.969,-0.366,2445993
-0.008,0.238,0.969,-0.061,2445997
-0.005,0.237,0.967,-0.061,2446001
-0.005,0.237,0.967,-0.183,2446005
-0.005,0.237,0.967,-0.183,2446009
-0.006,0.238,0.967,-0.244,2446013
-0.006,0.238,0.967,-0.427,2446017
-0.006,0.238,0.969,-0.183,2446021
-0.006,0.238,0.969,-0.305,2446025
-0.006,0.238,0.969,-0.305,2446029
-0.005,0.235,0.967,-0.244,2446033
-0.005,0.235,0.967,-0.122,2446037
-0.006,0.237,0.967,-0.183,2446041
-0.006,0.237,0.967,-0.183,2446045
-0.006,0.237,0.967,-0.183,2446049
-0.005,0.237,0.969,-0.122,2446053
-0.005,0.237,0.969,-0.305,2446057
-0.008,0.238,0.969,-0.366,2446061
-0.008,0.238,0.969,-0.244,2446065
-0.008,0.238,0.969,-0.244,2446069
-0.007,0.239,0.968,-0.122,2446073
-0.007,0.239,0.968,-0.244,2446077
-0.007,0.239,0.966,-0.183,2446081
-0.007,0.239,0.966,0.0,2446085
-0.007,0.239,0.966,0.0,2446089
-0.007,0.24,0.97,-0.122,2446093
-0.007,0.24,0.97,-0.244,2446097
-0.007,0.24,0.969,-0.122,2446101
-0.007,0.24,0.969,-0.122,2446105
-0.007,0.24,0.969,-0.122,2446109
-0.006,0.24,0.967,-0.122,2446113
-0.006,0.24,0.967,-0.183,2446116
-0.005,0.238,0.966,-0.305,2446120
-0.005,0.238,0.966,-0.244,2446124
-0.005,0.238,0.966,-0.244,2446128
-0.006,0.238,0.967,-0.183,2446132
-0.006,0.238,0.967,-0.122,2446136
-0.006,0.238,0.968,-0.183,2446140
-0.006,0.238,0.968,-0.244,2446144
-0.006,0.238,0.968,-0.244,2446148
-0.006,0.237,0.969,-0.183,2446152
-0.006,0.237,0.969,-0.244,2446156
-0.007,0.236,0.968,-0.183,2446160
-0.007,0.236,0.968,0.122,2446164
-0.007,0.236,0.968,0.122,2446168
-0.006,0.237,0.968,0.0,2446172
-0.006,0.237,0.968,-0.183,2446176
-0.005,0.238,0.968,-0.183,2446180
-0.005,0.238,0.968,-0.244,2446184
-0.005,0.238,0.968,-0.244,2446188
-0.006,0.237,0.968,-0.183,2446192
-0.006,0.237,0.968,-0.122,2446196
-0.007,0.237,0.968,-0.305,2446200
-0.007,0.237,0.968,-0.305,2446204
-0.007,0.237,0.968,-0.305,2446208
-0.004,0.239,0.968,-0.122,2446212
-0.004,0.239,0.968,-0.305,2446216
-0.005,0.237,0.969,-0.244,2446220
-0.005,0.237,0.969,-0.244,2446224
-0.005,0.237,0.969,-0.244,2446228
-0.005,0.239,0.968,-0.244,2446232
-0.005,0.239,0.968,-0.183,2446236
-0.005,0.236,0.968,-0.122,2446240
-0.005,0.236,0.968,-0.122,2446244
-0.005,0.236,0.968,-0.122,2446248
-0.004,0.237,0.967,-0.244,2446252
-0.004,0.237,0.967,-0.183,2446255
-0.003,0.238,0.969,-0.183,2446259
-0.003,0.238,0.969,-0.061,2446263
-0.003,0.238,0.969,-0.061,2446267
-0.005,0.238,0.97,-0.183,2446271
-0.005,0.238,0.97,-0.183,2446275
-0.005,0.238,0.968,-0.244,2446279
-0.005,0.238,0.968,-0.122,2446283
-0.005,0.238,0.968,-0.122,2446287
-0.007,0.239,0.968,-0.061,2446291
-0.007,0.239,0.968,-0.122,2446295
-0.003,0.24,0.966,-0.122,2446299
-0.003,0.24,0.966,-0.122,2446303
-0.003,0.24,0.966,-0.122,2446307
-0.006,0.238,0.966,-0.183,2446311
-0.006,0.238,0.966,-0.183,2446315
-0.006,0.238,0.968,-0.122,2446319
-0.006,0.238,0.968,-0.305,2446323
-0.006,0.238,0.968,-0.305,2446327
-0.005,0.238,0.969,-0.244,2446331
-0.005,0.238,0.969,-0.122,2446335
-0.007,0.239,0.968,-0.061,2446339
-0.007,0.239,0.968,-0.183,2446343
-0.007,0.239,0.968,-0.183,2446347
-0.005,0.237,0.968,-0.244,2446351
-0.005,0.237,0.968,-0.061,2446355
-0.005,0.238,0.967,-0.183,2446359
-0.005,0.238,0.967,-0.244,2446363
-0.005,0.238,0.967,-0.244,2446367
-0.007,0.238,0.967,-0.244,2446371
-0.007,0.238,0.967,-0.183,2446375
-0.006,0.236,0.968,-0.061,2446379
-0.006,0.236,0.968,-0.183,2446383
-0.006,0.236,0.968,-0.183,2446387
-0.006,0.236,0.967,-0.122,2446391
-0.006,0.236,0.967,-0.122,2446395
-0.004,0.237,0.969,-0.183,2446399
-0.004,0.237,0.969,-0.061,2446403
-0.004,0.237,0.969,-0.061,2446407
-0.007,0.238,0.969,-0.122,2446411
-0.007,0.238,0.969,-0.122,2446415
-0.006,0.239,0.966,-0.122,2446418
-0.006,0.239,0.966,-0.244,2446422
-0.006,0.239,0.966,-0.244,2446426
-0.007,0.237,0.966,-0.244,2446430
-0.007,0.237,0.966,-0.183,2446434
-0.006,0.236,0.968,-0.183,2446438
-0.006,0.236,0.968,-0.244,2446442
-0.006,0.239,0.969,-0.305,2446446
-0.006,0.239,0.969,-0.305,2446450
-0.006,0.239,0.969,-0.244,2446454
-0.006,0.237,0.969,-0.122,2446458
-0.006,0.237,0.969,-0.183,2446462
-0.005,0.237,0.969,-0.183,2446466
-0.005,0.237,0.969,-0.183,2446470
-0.005,0.237,0.969,-0.244,2446474
-0.005,0.237,0.969,-0.244,2446478
-0.005,0.237,0.969,-0.183,2446482
-0.006,0.238,0.966,-0.122,2446486
-0.006,0.238,0.966,-0.122,2446490
-0.006,0.238,0.966,-0.122,2446494
-0.003,0.239,0.968,-0.061,2446498
-0.003,0.239,0.968,-0.183,2446502
-0.003,0.237,0.969,-0.244,2446506
-0.003,0.237,0.969,-0.244,2446510
-0.003,0.237,0.969,-0.122,2446514
-0.005,0.238,0.967,-0.122,2446518
-0.005,0.238,0.967,-0.183,2446522
-0.004,0.238,0.968,-0.244,2446526
-0.004,0.238,0.968,-0.244,2446530
-0.004,0.238,0.968,-0.122,2446534
-0.006,0.24,0.968,-0.122,2446538
-0.006,0.24,0.968,-0.244,2446542
-0.007,0.239,0.969,-0.183,2446546
-0.007,0.239,0.969,-0.183,2446550
-0.007,0.239,0.969,-0.183,2446554
-0.005,0.24,0.967,-0.244,2446558
-0.005,0.24,0.967,-0.122,2446562
-0.005,0.239,0.967,-0.183,2446566
-0.005,0.239,0.967,-0.183,2446570
-0.005,0.239,0.967,-0.244,2446573
-0.006,0.238,0.967,-0.244,2446577
-0.006,0.238,0.967,-0.183,2446581
-0.007,0.239,0.969,-0.305,2446585
-0.007,0.239,0.969,-0.305,2446589
-0.007,0.239,0.969,-0.183,2446593
-0.004,0.237,0.969,-0.305,2446597
-0.004,0.237,0.969,-0.244,2446601
-0.002,0.237,0.969,-0.305,2446605
-0.002,0.237,0.969,-0.305,2446609
-0.002,0.237,0.969,-0.244,2446613
-0.005,0.236,0.967,-0.366,2446617
-0.005,0.236,0.967,-0.244,2446621
-0.007,0.237,0.966,-0.122,2446625
-0.007,0.237,0.966,-0.122,2446629
-0.007,0.237,0.966,-0.244,2446633
-0.005,0.238,0.967,-0.244,2446637
-0.005,0.238,0.967,-0.183,2446641
-0.005,0.239,0.969,-0.305,2446645
-0.005,0.239,0.969,-0.305,2446649
-0.005,0.239,0.969,-0.183,2446653
-0.007,0.24,0.967,-0.122,2446657
-0.007,0.24,0.967,-0.244,2446661
-0.007,0.239,0.967,-0.244,2446665
-0.007,0.239,0.967,-0.244,2446669
-0.007,0.239,0.967,-0.244,2446673
-0.006,0.238,0.967,-0.122,2446677
-0.006,0.238,0.967,-0.244,2446681
-0.006,0.24,0.967,-0.244,2446685
-0.006,0.24,0.967,-0.244,2446689
-0.006,0.24,0.967,-0.183,2446693
-0.006,0.239,0.967,-0.122,2446697
-0.006,0.239,0.967,-0.183,2446701
-0.004,0.238,0.968,-0.183,2446705
-0.004,0.238,0.968,-0.183,2446709
-0.004,0.238,0.968,-0.061,2446713
-0.005,0.236,0.968,-0.061,2446717
-0.005,0.236,0.968,-0.183,2446721
-0.006,0.236,0.967,-0.244,2446725
-0.006,0.236,0.967,-0.244,2446729
-0.006,0.236,0.967,-0.122,2446733
-0.006,0.238,0.969,-0.061,2446736
-0.006,0.238,0.969,-0.122,2446740
-0.006,0.239,0.969,-0.183,2446744
-0.006,0.239,0.969,-0.183,2446748
-0.006,0.239,0.969,-0.244,2446752
-0.006,0.237,0.968,-0.183,2446756
-0.006,0.237,0.968,-0.305,2446760
-0.006,0.239,0.968,-0.122,2446764
-0.006,0.239,0.968,-0.122,2446768
-0.006,0.239,0.968,-0.061,2446772
-0.006,0.239,0.968,-0.305,2446776
-0.006,0.239,0.968,-0.244,2446780
-0.005,0.238,0.967,-0.183,2446784
-0.005,0.238,0.967,-0.183,2446788
-0.005,0.238,0.967,-0.305,2446792
-0.005,0.238,0.969,-0.366,2446796
-0.005,0.238,0.969,-0.183,2446800
-0.004,0.238,0.969,-0.305,2446804
-0.004,0.238,0.969,-0.305,2446808
-0.004,0.238,0.969,-0.305,2446812
-0.005,0.238,0.968,-0.183,2446816
-0.005,0.238,0.968,-0.244,2446820
-0.004,0.238,0.969,-0.122,2446824
-0.004,0.238,0.969,-0.122,2446828
-0.004,0.238,0.969,-0.061,2446832
-0.005,0.237,0.968,-0.122,2446836
-0.005,0.237,0.968,-0.183,2446840
-0.004,0.237,0.968,-0.122,2446844
-0.004,0.237,0.968,-0.122,2446848
-0.004,0.237,0.968,-0.122,2446852
-0.004,0.237,0.968,-0.305,2446856
-0.004,0.237,0.968,-0.183,2446860
-0.006,0.238,0.968,-0.061,2446864
-0.006,0.238,0.968,-0.061,2446868
-0.006,0.238,0.968,-0.122,2446872
-0.007,0.239,0.967,-0.183,2446876
-0.007,0.239,0.967,-0.061,2446880
-0.004,0.239,0.968,-0.061,2446884
-0.004,0.239,0.968,-0.061,2446888
-0.004,0.239,0.968,-0.122,2446892
-0.004,0.239,0.969,-0.122,2446895
-0.004,0.239,0.969,-0.183,2446899
-0.008,0.238,0.968,-0.183,2446903
-0.008,0.238,0.968,-0.183,2446907
-0.008,0.238,0.968,-0.244,2446911
-0.006,0.237,0.966,-0.122,2446915
-0.006,0.237,0.966,-0.183,2446919
-0.006,0.238,0.968,-0.183,2446923
-0.006,0.238,0.968,-0.183,2446927
-0.006,0.238,0.968,-0.183,2446931
-0.004,0.237,0.967,-0.244,2446935
-0.004,0.237,0.967,-0.061,2446939
-0.004,0.237,0.969,-0.183,2446943
-0.004,0.237,0.969,-0.183,2446947
-0.004,0.237,0.969,-0.122,2446951
-0.004,0.237,0.967,-0.122,2446955
-0.004,0.237,0.967,-0.183,2446959
-0.006,0.238,0.966,-0.183,2446963
-0.006,0.238,0.966,-0.183,2446967
-0.006,0.238,0.966,-0.183,2446971
-0.006,0.239,0.968,-0.122,2446975
-0.006,0.239,0.968,-0.122,2446979
-0.005,0.238,0.967,-0.244,2446983
-0.005,0.238,0.967,-0.244,2446987
-0.005,0.238,0.967,-0.183,2446991
-0.008,0.237,0.967,-0.122,2446995
-0.008,0.237,0.967,-0.183,2446999
-0.007,0.238,0.967,-0.183,2447003
-0.007,0.238,0.967,-0.183,2447007
-0.007,0.238,0.967,-0.122,2447011
-0.005,0.239,0.969,-0.122,2447015
-0.005,0.239,0.969,0.0,2447019
-0.005,0.239,0.968,-0.122,2447023
-0.005,0.239,0.968,-0.122,2447026
-0.005,0.239,0.968,-0.183,2447030
-0.006,0.238,0.967,-0.183,2447034
-0.006,0.238,0.967,-0.305,2447038
-0.004,0.238,0.967,-0.305,2447042
-0.004,0.238,0.967,-0.305,2447046
-0.004,0.238,0.967,-0.061,2447050
-0.006,0.239,0.967,-0.244,2447054
-0.006,0.239,0.967,-0.183,2447058
-0.006,0.238,0.968,-0.244,2447062
-0.006,0.238,0.968,-0.244,2447066
-0.006,0.238,0.968,-0.122,2447070
-0.005,0.238,0.969,-0.061,2447074
-0.005,0.238,0.969,-0.122,2447078
-0.004,0.238,0.969,-0.122,2447082
-0.004,0.238,0.969,-0.122,2447086
-0.004,0.238,0.969,-0.183,2447090
-0.006,0.238,0.967,-0.244,2447094
-0.006,0.238,0.967,-0.305,2447098
-0.006,0.238,0.967,-0.122,2447102
-0.006,0.238,0.967,-0.122,2447106
-0.006,0.238,0.967,-0.122,2447110
-0.006,0.24,0.969,-0.305,2447114
-0.006,0.24,0.969,-0.305,2447118
-0.007,0.239,0.967,-0.427,2447122
-0.007,0.239,0.967,-0.305,2447126
-0.007,0.239,0.967,-0.305,2447130
-0.005,0.239,0.969,-0.244,2447134
-0.005,0.239,0.969,-0.305,2447138
-0.006,0.238,0.967,-0.183,2447142
-0.006,0.238,0.967,-0.244,2447146
-0.006,0.238,0.967,-0.244,2447150
-0.005,0.238,0.968,-0.183,2447154
-0.005,0.238,0.968,-0.244,2447158
-0.006,0.237,0.97,-0.305,2447162
-0.006,0.237,0.97,-0.122,2447166
-0.006,0.237,0.97,-0.122,2447170
-0.005,0.237,0.97,-0.061,2447174
-0.005,0.237,0.97,-0.244,2447178
-0.004,0.238,0.967,-0.183,2447181
-0.004,0.238,0.967,-0.122,2447185
-0.004,0.238,0.967,-0.122,2447189
-0.006,0.238,0.968,-0.122,2447193
-0.006,0.238,0.968,-0.244,2447197
-0.006,0.239,0.968,-0.122,2447201
-0.006,0.239,0.968,-0.244,2447205
-0.006,0.239,0.968,-0.244,2447209
-0.006,0.238,0.966,-0.305,2447213
-0.006,0.238,0.966,-0.122,2447217
-0.007,0.237,0.968,-0.305,2447221
-0.007,0.237,0.968,-0.244,2447225
-0.007,0.237,0.968,-0.244,2447229
-0.005,0.238,0.967,-0.244,2447233
-0.005,0.238,0.967,-0.122,2447237
-0.007,0.238,0.968,-0.061,2447241
-0.007,0.238,0.968,-0.122,2447245
-0.007,0.238,0.968,-0.122,2447249
-0.007,0.237,0.966,-0.122,2447253
-0.007,0.237,0.966,-0.183,2447257
-0.008,0.236,0.968,-0.122,2447261
-0.008,0.236,0.968,-0.244,2447265
-0.008,0.236,0.968,-0.244,2447269
-0.005,0.236,0.968,-0.305,2447273
-0.005,0.236,0.968,-0.244,2447277
-0.005,0.237,0.969,-0.244,2447281
-0.005,0.237,0.969,-0.183,2447285
-0.005,0.237,0.969,-0.183,2447289
-0.007,0.238,0.967,-0.183,2447293
-0.007,0.238,0.967,-0.305,2447297
-0.005,0.237,0.967,-0.183,2447301
-0.005,0.237,0.967,-0.061,2447305
-0.005,0.237,0.967,-0.061,2447309
-0.005,0.238,0.968,-0.244,2447313
-0.005,0.238,0.968,-0.305,2447317
-0.006,0.238,0.968,-0.122,2447321
-0.006,0.238,0.968,-0.183,2447325
-0.006,0.238,0.968,-0.183,2447329
-0.005,0.24,0.967,-0.183,2447332
-0.005,0.24,0.967,-0.183,2447336
-0.004,0.24,0.968,-0.183,2447340
-0.004,0.24,0.968,-0.183,2447344
-0.004,0.24,0.968,-0.183,2447348
-0.004,0.24,0.969,-0.183,2447352
-0.004,0.24,0.969,-0.061,2447356
-0.005,0.239,0.967,-0.183,2447360
-0.005,0.239,0.967,-0.305,2447364
-0.005,0.239,0.967,-0.305,2447368
-0.006,0.238,0.967,-0.366,2447372
-0.006,0.238,0.967,-0.305,2447376
-0.003,0.236,0.967,-0.122,2447380
-0.003,0.236,0.967,-0.122,2447384
-0.003,0.236,0.967,-0.122,2447388
-0.004,0.237,0.967,-0.244,2447392
-0.004,0.237,0.967,-0.183,2447396
-0.005,0.237,0.969,-0.122,2447400
-0.005,0.237,0.969,-0.122,2447404
-0.005,0.237,0.969,-0.122,2447408
-0.004,0.237,0.97,-0.122,2447412
-0.004,0.237,0.97,-0.183,2447416
-0.005,0.236,0.969,-0.183,2447420
-0.005,0.236,0.969,-0.122,2447424
-0.005,0.236,0.969,-0.122,2447428
-0.006,0.238,0.968,-0.244,2447432
-0.006,0.238,0.968,-0.244,2447436
-0.006,0.237,0.967,-0.183,2447440
-0.006,0.237,0.967,-0.244,2447444
-0.006,0.237,0.967,-0.244,2447448
-0.007,0.237,0.967,-0.183,2447452
-0.007,0.237,0.967,-0.366,2447456
-0.006,0.238,0.968,-0.183,2447460
-0.006,0.238,0.968,-0.183,2447464
-0.006,0.238,0.968,-0.183,2447468
-0.008,0.237,0.968,-0.061,2447472
-0.008,0.237,0.968,-0.183,2447476
-0.006,0.239,0.968,-0.305,2447480
-0.006,0.239,0.968,-0.305,2447484
-0.006,0.239,0.968,-0.305,2447488
-0.005,0.238,0.967,-0.183,2447492
-0.005,0.238,0.967,-0.122,2447496
-0.006,0.238,0.967,-0.061,2447499
-0.006,0.238,0.967,-0.244,2447503
-0.006,0.238,0.967,-0.244,2447507
-0.004,0.239,0.966,-0.183,2447511
-0.004,0.239,0.966,-0.122,2447515
-0.005,0.238,0.968,-0.183,2447519
-0.005,0.238,0.968,-0.122,2447523
-0.005,0.238,0.968,-0.122,2447527
-0.007,0.238,0.967,-0.244,2447531
-0.007,0.238,0.967,-0.244,2447535
-0.005,0.239,0.967,-0.183,2447539
-0.005,0.239,0.967,-0.183,2447543
-0.005,0.239,0.967,-0.183,2447547
-0.004,0.239,0.969,-0.244,2447551
-0.004,0.239,0.969,-0.244,2447555
-0.007,0.238,0.969,-0.427,2447559
-0.007,0.238,0.969,-0.244,2447563
-0.007,0.238,0.969,-0.244,2447567
-0.005,0.238,0.968,-0.183,2447571
-0.005,0.238,0.968,-0.061,2447575
-0.007,0.24,0.968,-0.122,2447579
-0.007,0.24,0.968,-0.122,2447583
-0.007,0.24,0.968,-0.122,2447587
-0.006,0.238,0.97,-0.183,2447591
-0.006,0.238,0.97,-0.305,2447595
-0.006,0.239,0.969,-0.183,2447599
-0.006,0.239,0.969,-0.244,2447603
-0.006,0.239,0.969,-0.244,2447607
-0.008,0.239,0.965,-0.244,2447611
-0.008,0.239,0.965,-0.244,2447615
-0.006,0.237,0.966,-0.244,2447619
-0.006,0.237,0.966,-0.183,2447623
-0.006,0.237,0.966,-0.183,2447627
-0.005,0.237,0.969,-0.183,2447631
-0.005,0.237,0.969,-0.244,2447635
-0.006,0.238,0.968,-0.183,2447639
-0.006,0.238,0.968,-0.244,2447642
-0.006,0.238,0.968,-0.244,2447646
-0.005,0.236,0.969,-0.183,2447650
-0.005,0.236,0.969,-0.183,2447654
-0.006,0.237,0.966,0.0,2447658
-0.006,0.237,0.966,-0.122,2447662
-0.006,0.237,0.966,-0.122,2447666
-0.006,0.238,0.968,-0.183,2447670
-0.006,0.238,0.968,-0.305,2447674
-0.007,0.237,0.969,-0.305,2447678
-0.007,0.237,0.969,-0.183,2447682
-0.007,0.237,0.969,-0.183,2447686
-0.005,0.238,0.967,-0.244,2447690
-0.005,0.238,0.967,-0.183,2447694
-0.005,0.237,0.968,-0.122,2447698
-0.005,0.237,0.968,-0.183,2447702
-0.005,0.237,0.968,-0.183,2447706
-0.004,0.238,0.967,-0.183,2447710
-0.004,0.238,0.967,-0.183,2447714
-0.007,0.238,0.966,-0.244,2447718
-0.007,0.238,0.966,-0.305,2447722
-0.007,0.238,0.966,-0.305,2447726
-0.006,0.237,0.967,-0.305,2447730
-0.006,0.237,0.967,-0.061,2447734
-0.005,0.238,0.967,-0.183,2447738
-0.005,0.238,0.967,-0.366,2447742
-0.005,0.238,0.967,-0.366,2447746
-0.006,0.238,0.967,-0.183,2447750
-0.006,0.238,0.967,-0.183,2447754
-0.006,0.237,0.967,-0.122,2447758
-0.006,0.237,0.967,-0.183,2447762
-0.006,0.237,0.967,-0.183,2447766
-0.005,0.239,0.965,-0.183,2447769
-0.005,0.239,0.965,-0.183,2447773
-0.005,0.239,0.965,-0.122,2447777
-0.005,0.239,0.965,-0.183,2447781
-0.005,0.239,0.965,-0.183,2447785
-0.007,0.24,0.973,-0.122,2447789
-0.007,0.24,0.973,-0.122,2447793
-0.006,0.24,0.966,-0.244,2447797
-0.006,0.24,0.966,-0.244,2447801
-0.006,0.24,0.966,-0.244,2447805
-0.004,0.239,0.966,-0.244,2447809
-0.004,0.239,0.966,-0.183,2447813
-0.006,0.239,0.966,-0.305,2447817
-0.006,0.239,0.966,-0.183,2447821
-0.006,0.239,0.966,-0.183,2447825
-0.007,0.24,0.969,-0.183,2447829
-0.007,0.24,0.969,-0.366,2447833
-0.005,0.236,0.971,-0.244,2447837
-0.005,0.236,0.971,-0.305,2447841
-0.005,0.236,0.971,-0.305,2447845
-0.006,0.237,0.965,-0.183,2447849
-0.006,0.237,0.965,-0.305,2447853
-0.006,0.234,0.969,-0.305,2447857
-0.006,0.234,0.969,-0.183,2447861
-0.005,0.236,0.969,-0.244,2447865
-0.005,0.236,0.969,-0.244,2447869
-0.005,0.236,0.969,-0.122,2447873
-0.003,0.237,0.967,-0.122,2447877
-0.003,0.237,0.967,-0.183,2447881
-0.005,0.236,0.966,-0.244,2447885
-0.005,0.236,0.966,-0.244,2447889
-0.005,0.236,0.966,-0.244,2447893
-0.007,0.237,0.967,-0.183,2447897
-0.007,0.237,0.967,-0.244,2447901
-0.005,0.239,0.967,-0.183,2447905
-0.005,0.239,0.967,-0.183,2447909
-0.005,0.239,0.967,-0.305,2447913
-0.008,0.237,0.967,-0.122,2447917
-0.008,0.237,0.967,-0.305,2447921
-0.007,0.238,0.966,-0.366,2447925
-0.007,0.238,0.966,-0.366,2447929
-0.007,0.238,0.966,-0.183,2447932
-0.005,0.238,0.968,-0.183,2447936
-0.005,0.238,0.968,-0.122,2447940
-0.005,0.237,0.968,-0.122,2447944
-0.005,0.237,0.968,-0.122,2447948
-0.005,0.237,0.968,-0.244,2447952
-0.006,0.237,0.968,-0.183,2447956
-0.006,0.237,0.968,-0.061,2447960
-0.007,0.238,0.967,-0.122,2447964
-0.007,0.238,0.967,-0.122,2447968
-0.007,0.238,0.967,-0.122,2447972
-0.006,0.24,0.966,-0.183,2447976
-0.006,0.24,0.966,-0.244,2447980
-0.005,0.238,0.968,-0.183,2447984
-0.005,0.238,0.968,-0.183,2447988
-0.005,0.238,0.968,-0.122,2447992
-0.004,0.238,0.968,-0.122,2447996
-0.004,0.238,0.968,-0.244,2448000
-0.007,0.24,0.967,-0.183,2448004
-0.007,0.24,0.967,-0.183,2448008
-0.007,0.24,0.967,-0.061,2448012
-0.006,0.239,0.967,-0.244,2448016
-0.006,0.239,0.967,-0.183,2448020
-0.006,0.24,0.966,-0.244,2448024
-0.006,0.24,0.966,-0.244,2448028
-0.006,0.24,0.966,-0.244,2448032
-0.007,0.239,0.966,-0.183,2448036
-0.007,0.239,0.966,-0.183,2448040
-0.007,0.239,0.967,-0.122,2448044
-0.007,0.239,0.967,-0.122,2448048
-0.007,0.239,0.967,-0.122,2448052
-0.006,0.238,0.968,-0.122,2448056
-0.006,0.238,0.968,0.0,2448060
-0.005,0.238,0.97,-0.183,2448063
-0.005,0.238,0.97,-0.183,2448067
-0.005,0.238,0.97,-0.305,2448071
-0.005,0.238,0.968,-0.183,2448075
-0.005,0.238,0.968,0.0,2448079
-0.006,0.239,0.967,-0.061,2448083
-0.006,0.239,0.967,-0.061,2448087
-0.006,0.239,0.967,-0.244,2448091
-0.005,0.236,0.968,-0.183,2448095
-0.005,0.236,0.968,-0.244,2448099
-0.004,0.237,0.968,-0.183,2448103
-0.004,0.237,0.968,-0.183,2448107
-0.004,0.237,0.968,-0.183,2448111
-0.005,0.237,0.969,-0.244,2448115
-0.005,0.237,0.969,-0.244,2448119
-0.006,0.234,0.967,-0.122,2448123
-0.006,0.234,0.967,-0.122,2448127
-0.006,0.234,0.967,-0.122,2448131
-0.006,0.236,0.967,-0.183,2448135
-0.006,0.236,0.967,-0.183,2448139
-0.006,0.238,0.967,-0.122,2448143
-0.006,0.238,0.967,-0.122,2448147
-0.006,0.238,0.967,-0.122,2448151
-0.006,0.237,0.969,-0.244,2448155
-0.006,0.237,0.969,-0.061,2448159
-0.006,0.237,0.969,-0.183,2448163
-0.006,0.237,0.969,-0.183,2448167
-0.006,0.237,0.969,0.0,2448171
-0.005,0.237,0.965,-0.244,2448175
-0.005,0.237,0.965,-0.305,2448179
-0.007,0.238,0.966,-0.244,2448183
-0.007,0.238,0.966,-0.244,2448187
-0.007,0.238,0.966,-0.061,2448191
-0.006,0.239,0.967,-0.061,2448195
-0.006,0.239,0.967,-0.183,2448199
-0.003,0.239,0.968,-0.183,2448202
-0.003,0.239,0.968,-0.183,2448206
-0.003,0.239,0.968,-0.183,2448210
-0.004,0.239,0.968,-0.244,2448214
-0.004,0.239,0.968,-0.183,2448218
-0.006,0.238,0.967,-0.244,2448222
-0.006,0.238,0.967,-0.244,2448226
-0.006,0.238,0.967,-0.122,2448230
-0.006,0.238,0.968,-0.183,2448234
-0.006,0.238,0.968,-0.183,2448238
-0.007,0.239,0.967,-0.183,2448242
-0.007,0.239,0.967,-0.183,2448246
-0.007,0.239,0.967,-0.122,2448250
-0.007,0.238,0.966,-0.244,2448254
-0.007,0.238,0.966,-0.366,2448258
-0.006,0.238,0.968,-0.244,2448262
-0.006,0.238,0.968,-0.244,2448266
-0.006,0.238,0.968,-0.244,2448270
-0.006,0.237,0.967,-0.427,2448274
-0.006,0.237,0.967,-0.427,2448278
-0.006,0.236,0.968,-0.183,2448282
-0.006,0.236,0.968,-0.183,2448286
-0.006,0.236,0.968,-0.183,2448290
-0.006,0.237,0.968,-0.183,2448294
-0.006,0.237,0.968,-0.244,2448298
-0.006,0.237,0.968,-0.183,2448302
-0.006,0.237,0.968,-0.183,2448306
-0.006,0.237,0.968,-0.183,2448310
-0.006,0.236,0.966,-0.244,2448314
-0.006,0.236,0.966,-0.244,2448318
-0.005,0.237,0.966,-0.122,2448322
-0.005,0.237,0.966,-0.122,2448326
-0.005,0.237,0.966,-0.183,2448330
-0.005,0.236,0.97,-0.183,2448334
-0.005,0.236,0.97,-0.305,2448338
-0.005,0.237,0.968,-0.305,2448342
-0.005,0.237,0.968,-0.305,2448346
-0.005,0.237,0.968,-0.183,2448350
-0.006,0.236,0.968,0.0,2448353
-0.006,0.236,0.968,-0.244,2448357
-0.006,0.237,0.968,-0.244,2448361
-0.006,0.237,0.968,-0.244,2448365
-0.006,0.237,0.968,-0.122,2448369
-0.007,0.237,0.968,-0.183,2448373
-0.007,0.237,0.968,-0.183,2448377
-0.007,0.238,0.967,-0.244,2448381
-0.007,0.238,0.967,-0.244,2448385
-0.007,0.238,0.967,-0.183,2448389
-0.006,0.238,0.968,-0.183,2448393
-0.006,0.238,0.968,-0.122,2448397
-0.006,0.239,0.969,-0.183,2448401
-0.006,0.239,0.969,-0.183,2448405
-0.006,0.239,0.969,-0.305,2448409
-0.006,0.238,0.969,-0.244,2448413
-0.006,0.238,0.969,-0.122,2448417
-0.005,0.239,0.968,-0.122,2448421
-0.005,0.239,0.968,-0.122,2448425
-0.005,0.239,0.968,-0.183,2448429
-0.006,0.239,0.967,-0.244,2448433
-0.006,0.239,0.967,-0.305,2448437
-0.007,0.238,0.967,-0.122,2448441
-0.007,0.238,0.967,-0.122,2448445
-0.007,0.238,0.967,-0.122,2448449
-0.005,0.24,0.968,-0.366,2448453
-0.005,0.24,0.968,-0.244,2448457
-0.005,0.24,0.967,-0.183,2448461
-0.005,0.24,0.967,-0.183,2448465
-0.005,0.24,0.967,-0.122,2448469
-0.006,0.24,0.968,-0.122,2448473
-0.006,0.24,0.968,-0.183,2448477
-0.005,0.239,0.967,-0.122,2448481
-0.005,0.239,0.967,-0.122,2448485
-0.005,0.239,0.967,-0.244,2448489
-0.007,0.238,0.968,-0.061,2448493
-0.007,0.238,0.968,-0.183,2448497
-0.006,0.237,0.969,-0.366,2448500
-0.006,0.237,0.969,-0.366,2448504
-0.006,0.237,0.969,-0.244,2448508
-0.006,0.238,0.969,-0.305,2448512
-0.006,0.238,0.969,-0.305,2448516
-0.005,0.237,0.967,-0.305,2448520
-0.005,0.237,0.967,-0.305,2448524
-0.005,0.237,0.967,-0.122,2448528
-0.006,0.237,0.969,-0.244,2448532
-0.006,0.237,0.969,-0.305,2448536
-0.007,0.237,0.969,-0.305,2448540
-0.007,0.237,0.969,-0.305,2448544
-0.007,0.237,0.969,-0.244,2448548
-0.006,0.236,0.967,-0.305,2448552
-0.006,0.236,0.967,-0.183,2448556
-0.005,0.236,0.968,-0.122,2448560
-0.005,0.236,0.968,-0.122,2448564
-0.005,0.236,0.968,-0.183,2448568
-0.005,0.235,0.968,-0.183,2448572
-0.005,0.235,0.968,-0.122,2448576
-0.007,0.237,0.968,-0.122,2448580
-0.007,0.237,0.968,-0.122,2448584
-0.007,0.237,0.968,-0.122,2448588
-0.006,0.239,0.967,-0.122,2448592
-0.006,0.239,0.967,-0.183,2448596
-0.005,0.238,0.968,-0.366,2448600
-0.005,0.238,0.968,-0.366,2448604
-0.005,0.238,0.968,-0.122,2448608
-0.006,0.237,0.969,-0.183,2448612
-0.006,0.237,0.969,-0.366,2448616
-0.006,0.24,0.967,-0.183,2448620
-0.006,0.24,0.967,-0.183,2448624
-0.006,0.24,0.967,-0.122,2448628
-0.005,0.241,0.968,-0.122,2448632
-0.005,0.241,0.968,-0.183,2448636
-0.004,0.241,0.968,-0.183,2448640
-0.004,0.241,0.968,-0.183,2448644
-0.004,0.241,0.968,-0.244,2448648
-0.006,0.24,0.966,-0.122,2448651
-0.006,0.24,0.966,-0.061,2448655
-0.007,0.239,0.967,-0.244,2448659
-0.007,0.239,0.967,-0.244,2448663
-0.007,0.239,0.967,-0.305,2448667
-0.006,0.239,0.967,-0.122,2448671
-0.006,0.239,0.967,-0.122,2448675
-0.005,0.238,0.967,-0.244,2448679
-0.005,0.238,0.967,-0.244,2448683
-0.005,0.238,0.967,-0.244,2448687
-0.005,0.238,0.967,-0.244,2448691
-0.005,0.238,0.967,-0.244,2448695
-0.005,0.238,0.967,-0.183,2448699
-0.005,0.238,0.967,-0.122,2448703
-0.005,0.238,0.967,-0.122,2448707
-0.006,0.238,0.969,-0.244,2448711
-0.006,0.238,0.969,-0.061,2448715
-0.003,0.236,0.969,-0.183,2448719
-0.003,0.236,0.969,-0.061,2448723
-0.003,0.236,0.969,-0.061,2448727
-0.006,0.236,0.968,-0.122,2448731
-0.006,0.236,0.968,-0.244,2448735
-0.006,0.237,0.967,-0.122,2448739
-0.006,0.237,0.967,-0.122,2448743
-0.006,0.237,0.967,-0.122,2448747
-0.005,0.238,0.967,-0.244,2448751
-0.005,0.238,0.967,-0.122,2448755
-0.006,0.238,0.967,-0.244,2448759
-0.006,0.238,0.967,-0.244,2448763
-0.006,0.238,0.967,-0.244,2448767
-0.006,0.237,0.97,-0.183,2448771
-0.006,0.237,0.97,-0.183,2448775
-0.005,0.236,0.968,-0.244,2448779
-0.005,0.236,0.968,-0.366,2448783
-0.005,0.236,0.968,-0.366,2448787
-0.004,0.238,0.966,-0.305,2448791
-0.004,0.238,0.966,-0.183,2448795
-0.006,0.237,0.969,-0.244,2448799
-0.006,0.237,0.969,-0.122,2448803
-0.006,0.237,0.969,-0.122,2448807
-0.007,0.237,0.967,-0.244,2448811
-0.007,0.237,0.967,-0.305,2448814
-0.004,0.237,0.968,-0.183,2448818
-0.004,0.237,0.968,-0.183,2448822
-0.004,0.237,0.968,-0.183,2448826
-0.005,0.237,0.969,-0.122,2448830
-0.005,0.237,0.969,-0.244,2448834
-0.006,0.238,0.968,-0.244,2448838
-0.006,0.238,0.968,-0.244,2448842
-0.006,0.238,0.968,-0.244,2448846
-0.005,0.238,0.968,-0.183,2448850
-0.005,0.238,0.968,-0.183,2448854
-0.006,0.239,0.968,-0.183,2448858
-0.006,0.239,0.968,-0.061,2448862
-0.006,0.239,0.968,-0.061,2448866
-0.007,0.24,0.967,-0.183,2448870
-0.007,0.24,0.967,-0.061,2448874
-0.007,0.239,0.967,-0.305,2448878
-0.007,0.239,0.967,-0.122,2448882
-0.007,0.239,0.967,-0.122,2448886
-0.005,0.24,0.968,-0.183,2448890
-0.005,0.24,0.968,-0.183,2448894
-0.006,0.24,0.968,-0.061,2448898
-0.006,0.24,0.968,-0.183,2448902
-0.006,0.24,0.968,-0.183,2448906
-0.007,0.239,0.966,-0.244,2448910
-0.007,0.239,0.966,-0.244,2448914
-0.004,0.238,0.966,-0.122,2448918
-0.004,0.238,0.966,-0.183,2448922
-0.004,0.238,0.966,-0.183,2448926
-0.007,0.239,0.967,-0.305,2448930
-0.007,0.239,0.967,-0.183,2448934
-0.007,0.238,0.968,-0.122,2448938
-0.007,0.238,0.968,-0.244,2448942
-0.007,0.238,0.968,-0.244,2448946
-0.007,0.239,0.969,-0.244,2448950
-0.007,0.239,0.969,-0.244,2448954
-0.007,0.238,0.969,-0.244,2448958
-0.007,0.238,0.969,-0.183,2448962
-0.007,0.238,0.969,-0.183,2448965
-0.006,0.236,0.968,-0.244,2448969
-0.006,0.236,0.968,-0.122,2448973
-0.005,0.236,0.967,-0.122,2448977
-0.005,0.236,0.967,-0.244,2448981
-0.005,0.236,0.967,-0.244,2448985
-0.006,0.236,0.969,-0.183,2448989
-0.006,0.236,0.969,-0.183,2448993
-0.006,0.237,0.967,-0.061,2448997
-0.006,0.237,0.967,0.0,2449001
-0.006,0.237,0.967,0.0,2449005
-0.006,0.235,0.968,-0.183,2449009
-0.006,0.235,0.968,-0.183,2449013
-0.006,0.235,0.969,-0.183,2449017
-0.006,0.235,0.969,-0.183,2449021
-0.006,0.235,0.969,-0.183,2449025
-0.004,0.237,0.968,-0.122,2449029
-0.004,0.237,0.968,-0.061,2449033
-0.006,0.237,0.967,-0.061,2449037
-0.006,0.237,0.967,-0.183,2449041
-0.006,0.237,0.967,-0.183,2449045
-0.005,0.239,0.967,-0.183,2449049
-0.005,0.239,0.967,-0.122,2449053
-0.006,0.238,0.967,-0.183,2449057
-0.006,0.238,0.967,-0.061,2449061
-0.006,0.238,0.967,-0.061,2449065
-0.008,0.239,0.967,-0.183,2449069
-0.008,0.239,0.967,-0.183,2449073
-0.007,0.238,0.968,-0.305,2449077
-0.007,0.238,0.968,-0.122,2449081
-0.007,0.238,0.968,-0.122,2449085
-0.007,0.239,0.969,-0.183,2449089
-0.007,0.239,0.969,-0.244,2449093
-0.004,0.239,0.969,-0.122,2449097
-0.004,0.239,0.969,-0.183,2449100
-0.004,0.239,0.969,-0.183,2449104
-0.005,0.239,0.966,-0.183,2449108
-0.005,0.239,0.966,-0.244,2449112
-0.006,0.239,0.967,-0.427,2449116
-0.006,0.239,0.967,-0.183,2449120
-0.006,0.239,0.967,-0.183,2449124
-0.006,0.238,0.968,-0.183,2449128
-0.006,0.238,0.968,-0.244,2449132
-0.006,0.239,0.968,-0.244,2449136
-0.006,0.239,0.968,-0.244,2449140
-0.006,0.239,0.968,-0.244,2449144
-0.006,0.238,0.968,-0.183,2449148
-0.006,0.238,0.968,-0.305,2449152
-0.006,0.238,0.967,-0.244,2449156
-0.006,0.238,0.967,-0.183,2449160
-0.006,0.238,0.967,-0.183,2449164
-0.006,0.238,0.967,-0.183,2449168
-0.006,0.238,0.967,-0.244,2449172
-0.005,0.236,0.967,-0.183,2449176
-0.005,0.236,0.967,-0.183,2449180
-0.005,0.236,0.967,-0.183,2449184
-0.006,0.238,0.968,-0.183,2449188
-0.006,0.238,0.968,-0.244,2449192
-0.007,0.238,0.967,-0.244,2449196
-0.007,0.238,0.967,-0.183,2449200
-0.007,0.238,0.967,-0.183,2449204
-0.006,0.238,0.966,-0.305,2449208
-0.006,0.238,0.966,-0.305,2449212
-0.009,0.237,0.968,-0.122,2449216
-0.009,0.237,0.968,-0.183,2449220
-0.009,0.237,0.968,-0.183,2449224
-0.007,0.238,0.967,-0.183,2449228
-0.007,0.238,0.967,-0.183,2449232
-0.007,0.237,0.967,-0.122,2449236
-0.007,0.237,0.967,-0.122,2449240
-0.007,0.237,0.967,-0.122,2449244
-0.007,0.237,0.969,-0.244,2449248
-0.007,0.237,0.969,-0.183,2449252
-0.004,0.237,0.97,-0.183,2449256
-0.004,0.237,0.97,-0.183,2449259
-0.004,0.237,0.97,-0.183,2449263
-0.007,0.235,0.968,-0.122,2449267
-0.007,0.235,0.968,-0.061,2449271
-0.006,0.237,0.968,-0.122,2449275
-0.006,0.237,0.968,-0.061,2449279
-0.006,0.237,0.968,-0.061,2449283
-0.005,0.237,0.969,-0.061,2449287
-0.005,0.237,0.969,-0.122,2449291
-0.005,0.238,0.968,-0.061,2449295
-0.005,0.238,0.968,-0.122,2449299
-0.005,0.238,0.968,-0.122,2449303
-0.007,0.237,0.968,-0.183,2449307
-0.007,0.237,0.968,-0.061,2449311
-0.005,0.238,0.968,-0.122,2449315
-0.005,0.238,0.968,-0.183,2449319
-0.005,0.238,0.968,-0.183,2449323
-0.005,0.239,0.968,-0.122,2449327
-0.005,0.239,0.968,-0.183,2449331
-0.007,0.238,0.968,-0.122,2449335
-0.007,0.238,0.968,-0.183,2449339
-0.007,0.238,0.968,-0.183,2449343
-0.005,0.24,0.968,-0.366,2449347
-0.005,0.24,0.968,-0.122,2449351
-0.003,0.238,0.968,-0.244,2449355
-0.003,0.238,0.968,-0.122,2449359
-0.005,0.239,0.969,-0.122,2449363
-0.005,0.239,0.969,-0.122,2449367
-0.005,0.239,0.969,-0.305,2449371
-0.004,0.239,0.967,-0.183,2449375
-0.004,0.239,0.967,-0.183,2449379
-0.006,0.238,0.967,-0.244,2449383
-0.006,0.238,0.967,-0.244,2449387
-0.006,0.238,0.967,-0.244,2449391
-0.005,0.239,0.966,-0.183,2449395
-0.005,0.239,0.966,-0.244,2449399
-0.005,0.239,0.968,-0.244,2449403
-0.005,0.239,0.968,-0.244,2449407
-0.005,0.239,0.968,-0.183,2449411
-0.005,0.237,0.969,-0.122,2449415
-0.005,0.237,0.969,-0.183,2449419
-0.006,0.237,0.968,-0.061,2449423
-0.006,0.237,0.968,-0.061,2449426
-0.006,0.237,0.968,-0.244,2449430
-0.006,0.237,0.967,-0.244,2449434
-0.006,0.237,0.967,-0.061,2449438
-0.007,0.238,0.969,-0.122,2449442
-0.007,0.238,0.969,-0.122,2449446
-0.007,0.238,0.969,-0.183,2449450
-0.007,0.237,0.969,-0.305,2449454
-0.007,0.237,0.969,-0.244,2449458
-0.005,0.236,0.968,-0.122,2449462
-0.005,0.236,0.968,-0.122,2449466
-0.005,0.236,0.968,-0.061,2449470
-0.006,0.238,0.969,-0.183,2449474
-0.006,0.238,0.969,-0.122,2449478
-0.008,0.238,0.969,-0.244,2449482
-0.008,0.238,0.969,-0.244,2449486
-0.008,0.238,0.969,-0.183,2449490
-0.007,0.239,0.969,-0.305,2449494
-0.007,0.239,0.969,-0.366,2449498
-0.006,0.24,0.965,-0.183,2449502
-0.006,0.24,0.965,-0.183,2449506
-0.006,0.24,0.965,-0.122,2449510
-0.007,0.239,0.968,-0.183,2449514
-0.007,0.239,0.968,0.0,2449518
-0.005,0.237,0.968,-0.244,2449522
-0.005,0.237,0.968,-0.244,2449526
-0.005,0.237,0.968,0.0,2449530
-0.005,0.238,0.965,-0.122,2449534
-0.005,0.238,0.965,-0.427,2449538
-0.006,0.239,0.97,-0.122,2449542
-0.006,0.239,0.97,-0.122,2449546
-0.006,0.239,0.97,-0.183,2449549
-0.006,0.24,0.967,-0.122,2449553
-0.006,0.24,0.967,-0.183,2449557
-0.006,0.24,0.965,-0.244,2449561
-0.006,0.24,0.965,-0.244,2449565
-0.006,0.24,0.965,-0.244,2449569
-0.005,0.24,0.966,-0.305,2449573
-0.005,0.24,0.966,-0.183,2449577
-0.005,0.238,0.969,-0.122,2449581
-0.005,0.238,0.969,-0.122,2449585
-0.005,0.238,0.969,-0.183,2449589
-0.006,0.238,0.969,-0.305,2449593
-0.006,0.238,0.969,-0.183,2449597
-0.006,0.237,0.966,-0.061,2449601
-0.006,0.237,0.966,-0.061,2449605
-0.006,0.237,0.966,-0.183,2449609
-0.006,0.236,0.967,-0.061,2449613
-0.006,0.236,0.967,-0.183,2449617
-0.006,0.238,0.968,-0.305,2449621
-0.006,0.238,0.968,-0.305,2449625
-0.006,0.238,0.968,-0.244,2449629
-0.004,0.24,0.969,-0.122,2449633
-0.004,0.24,0.969,-0.244,2449637
-0.006,0.238,0.968,-0.183,2449641
-0.006,0.238,0.968,-0.183,2449645
-0.006,0.238,0.968,-0.244,2449649
-0.006,0.238,0.967,-0.244,2449653
-0.006,0.238,0.967,-0.244,2449657
-0.007,0.238,0.97,-0.183,2449661
-0.007,0.238,0.97,-0.183,2449665
-0.007,0.238,0.97,-0.244,2449669
-0.005,0.237,0.967,-0.122,2449673
-0.005,0.237,0.967,-0.244,2449677
-0.004,0.237,0.967,-0.122,2449681
-0.004,0.237,0.967,-0.122,2449684
-0.004,0.237,0.967,-0.305,2449688
-0.006,0.237,0.968,-0.366,2449692
-0.006,0.237,0.968,-0.366,2449696
-0.007,0.237,0.968,-0.183,2449700
-0.007,0.237,0.968,-0.183,2449704
-0.007,0.237,0.968,-0.244,2449708
-0.006,0.238,0.968,-0.305,2449712
-0.006,0.238,0.968,-0.183,2449716
-0.005,0.237,0.967,-0.183,2449720
-0.005,0.237,0.967,-0.183,2449724
-0.005,0.237,0.967,-0.305,2449728
-0.006,0.238,0.968,-0.244,2449732
-0.006,0.238,0.968,-0.183,2449736
-0.005,0.236,0.967,-0.244,2449740
-0.005,0.236,0.967,-0.244,2449744
-0.005,0.236,0.967,-0.122,2449748
-0.005,0.238,0.968,-0.244,2449752
-0.005,0.238,0.968,-0.244,2449756
-0.006,0.239,0.968,-0.183,2449760
-0.006,0.239,0.968,-0.183,2449764
-0.006,0.239,0.968,-0.183,2449768
-0.007,0.238,0.968,-0.305,2449772
-0.007,0.238,0.968,-0.244,2449776
-0.005,0.239,0.967,-0.183,2449780
-0.005,0.239,0.967,-0.183,2449784
-0.005,0.239,0.967,-0.122,2449788
-0.006,0.238,0.967,-0.183,2449792
-0.006,0.238,0.967,-0.305,2449796
-0.004,0.238,0.968,-0.244,2449800
-0.004,0.238,0.968,-0.244,2449804
-0.004,0.238,0.968,-0.366,2449808
-0.005,0.238,0.967,-0.244,2449812
-0.005,0.238,0.967,-0.366,2449816
-0.004,0.238,0.967,-0.244,2449820
-0.004,0.238,0.967,-0.244,2449824
-0.004,0.238,0.967,-0.244,2449828
-0.005,0.238,0.969,-0.244,2449832
-0.005,0.238,0.969,-0.122,2449836
-0.005,0.237,0.969,-0.244,2449840
-0.005,0.237,0.969,-0.244,2449844
-0.005,0.237,0.969,-0.183,2449847
-0.006,0.237,0.968,-0.244,2449851
-0.006,0.237,0.968,-0.183,2449855
-0.007,0.238,0.967,-0.244,2449859
-0.007,0.238,0.967,-0.244,2449863
-0.007,0.238,0.967,-0.183,2449867
-0.007,0.238,0.968,-0.183,2449871
-0.007,0.238,0.968,-0.366,2449875
-0.006,0.238,0.969,-0.183,2449879
-0.006,0.238,0.969,-0.183,2449883
-0.006,0.238,0.969,-0.183,2449887
-0.005,0.238,0.968,-0.183,2449891
-0.005,0.238,0.968,-0.244,2449895
-0.005,0.238,0.966,-0.183,2449899
-0.005,0.238,0.966,-0.183,2449903
-0.005,0.238,0.966,-0.244,2449907
-0.004,0.237,0.968,-0.305,2449911
-0.004,0.237,0.968,-0.183,2449915
-0.007,0.238,0.969,-0.122,2449919
-0.007,0.238,0.969,-0.122,2449923
-0.007,0.238,0.969,-0.183,2449927
-0.006,0.237,0.968,-0.305,2449931
-0.006,0.237,0.968,-0.183,2449935
-0.005,0.238,0.967,-0.122,2449939
-0.005,0.238,0.967,-0.122,2449943
-0.005,0.238,0.967,-0.183,2449947
-0.008,0.238,0.967,-0.183,2449951
-0.008,0.238,0.967,-0.183,2449955
-0.006,0.237,0.968,-0.061,2449959
-0.006,0.237,0.968,-0.061,2449963
-0.006,0.237,0.968,-0.183,2449967
-0.006,0.239,0.967,-0.183,2449971
-0.006,0.239,0.967,-0.366,2449975
-0.005,0.239,0.967,-0.244,2449979
-0.005,0.239,0.967,-0.244,2449983
-0.005,0.239,0.967,-0.305,2449987
-0.004,0.239,0.968,-0.183,2449991
-0.004,0.239,0.968,-0.122,2449995
-0.005,0.237,0.968,-0.122,2449998
-0.005,0.237,0.968,-0.122,2450002
-0.005,0.237,0.968,-0.305,2450006
-0.005,0.239,0.968,-0.183,2450010
-0.005,0.239,0.968,-0.244,2450014
-0.005,0.238,0.969,-0.183,2450018
-0.005,0.238,0.969,-0.183,2450022
-0.005,0.238,0.969,-0.061,2450026
-0.006,0.238,0.968,-0.061,2450030
-0.006,0.238,0.968,-0.122,2450034
-0.005,0.238,0.969,-0.122,2450038
-0.005,0.238,0.969,-0.122,2450042
-0.005,0.238,0.969,-0.183,2450046
-0.005,0.238,0.969,-0.122,2450050
-0.005,0.238,0.969,-0.183,2450054
-0.007,0.239,0.967,-0.122,2450058
-0.007,0.239,0.967,-0.122,2450062
-0.007,0.239,0.967,-0.244,2450066
-0.006,0.239,0.967,-0.183,2450070
-0.006,0.239,0.967,-0.244,2450074
-0.006,0.237,0.967,-0.183,2450078
-0.006,0.237,0.967,-0.183,2450082
-0.006,0.237,0.967,-0.122,2450086
-0.007,0.237,0.968,-0.244,2450090
-0.007,0.237,0.968,-0.122,2450094
-0.005,0.238,0.968,-0.183,2450098
-0.005,0.238,0.968,-0.183,2450102
-0.005,0.238,0.968,-0.244,2450106
-0.005,0.239,0.967,-0.183,2450110
-0.005,0.239,0.967,-0.183,2450114
-0.006,0.238,0.967,-0.244,2450118
-0.006,0.238,0.967,-0.244,2450122
-0.006,0.238,0.967,-0.183,2450126
-0.006,0.238,0.968,-0.122,2450130
-0.006,0.238,0.968,-0.183,2450134
-0.005,0.239,0.968,-0.183,2450138
-0.005,0.239,0.968,-0.183,2450142
-0.005,0.239,0.968,-0.122,2450146
-0.006,0.237,0.968,-0.183,2450150
-0.006,0.237,0.968,-0.183,2450153
-0.006,0.237,0.968,-0.244,2450157
-0.006,0.237,0.968,-0.122,2450161
-0.006,0.237,0.968,-0.122,2450165
-0.006,0.238,0.966,-0.183,2450169
-0.006,0.238,0.966,-0.305,2450173
-0.005,0.238,0.969,-0.244,2450177
-0.005,0.238,0.969,-0.244,2450181
-0.005,0.238,0.969,-0.244,2450185
-0.005,0.237,0.967,-0.183,2450189
-0.005,0.237,0.967,-0.122,2450193
-0.005,0.238,0.967,-0.183,2450197
-0.005,0.238,0.967,-0.183,2450201
-0.005,0.238,0.967,-0.183,2450205
-0.007,0.24,0.968,-0.183,2450209
-0.007,0.24,0.968,-0.244,2450213
-0.006,0.239,0.968,-0.183,2450217
-0.006,0.239,0.968,-0.244,2450221
-0.006,0.239,0.968,-0.244,2450225
-0.004,0.238,0.969,-0.244,2450229
-0.004,0.238,0.969,-0.244,2450233
-0.006,0.239,0.968,-0.244,2450237
-0.006,0.239,0.968,-0.122,2450241
-0.006,0.239,0.968,-0.122,2450245
-0.004,0.237,0.967,-0.061,2450249
-0.004,0.237,0.967,-0.244,2450253
-0.005,0.237,0.968,-0.244,2450257
-0.005,0.237,0.968,-0.183,2450261
-0.005,0.237,0.968,-0.183,2450265
-0.006,0.237,0.967,-0.183,2450269
-0.006,0.237,0.967,-0.183,2450273
-0.006,0.238,0.967,-0.183,2450277
-0.006,0.238,0.967,-0.183,2450281
-0.006,0.238,0.967,-0.183,2450285
-0.006,0.238,0.968,-0.183,2450289
-0.006,0.238,0.968,-0.122,2450293
-0.006,0.238,0.969,-0.122,2450297
-0.006,0.238,0.969,-0.122,2450301
-0.006,0.238,0.969,-0.122,2450305
-0.007,0.237,0.968,-0.122,2450309
-0.007,0.237,0.968,-0.061,2450312
-0.006,0.237,0.966,-0.061,2450316
-0.006,0.237,0.966,-0.183,2450320
-0.006,0.237,0.966,-0.183,2450324
-0.007,0.237,0.967,-0.122,2450328
-0.007,0.237,0.967,-0.061,2450332
-0.005,0.237,0.968,-0.122,2450336
-0.005,0.237,0.968,-0.244,2450340
-0.005,0.237,0.968,-0.244,2450344
-0.006,0.238,0.968,-0.122,2450348
-0.006,0.238,0.968,-0.122,2450352
-0.006,0.237,0.966,-0.244,2450356
-0.006,0.237,0.966,-0.305,2450360
-0.006,0.237,0.966,-0.305,2450364
-0.006,0.236,0.967,-0.244,2450368
-0.006,0.236,0.967,-0.244,2450372
-0.006,0.237,0.968,-0.244,2450376
-0.006,0.237,0.968,-0.183,2450380
-0.006,0.237,0.968,-0.183,2450384
-0.007,0.237,0.969,-0.122,2450388
-0.007,0.237,0.969,-0.244,2450392
-0.007,0.238,0.969,-0.305,2450396
-0.007,0.238,0.969,-0.061,2450400
-0.007,0.238,0.969,-0.061,2450404
-0.005,0.238,0.968,-0.061,2450408
-0.005,0.238,0.968,-0.122,2450412
-0.005,0.237,0.967,-0.244,2450416
-0.005,0.237,0.967,-0.244,2450420
-0.005,0.237,0.967,-0.244,2450424
-0.007,0.239,0.969,-0.244,2450428
-0.007,0.239,0.969,-0.183,2450432
-0.006,0.238,0.968,-0.183,2450436
-0.006,0.238,0.968,-0.244,2450440
-0.006,0.238,0.968,-0.244,2450444
-0.005,0.238,0.967,-0.244,2450448
-0.005,0.238,0.967,-0.183,2450452
-0.005,0.238,0.967,-0.122,2450456
-0.005,0.238,0.967,-0.122,2450460
-0.005,0.238,0.967,-0.122,2450463
-0.005,0.238,0.967,-0.122,2450467
-0.005,0.238,0.967,-0.244,2450471
-0.005,0.238,0.968,-0.183,2450475
-0.005,0.238,0.968,-0.244,2450479
-0.005,0.238,0.968,-0.244,2450483
-0.006,0.238,0.968,-0.244,2450487
-0.006,0.238,0.968,-0.244,2450491
-0.007,0.24,0.967,-0.244,2450495
-0.007,0.24,0.967,-0.061,2450499
-0.007,0.24,0.967,-0.061,2450503
-0.007,0.239,0.968,-0.061,2450507
-0.007,0.239,0.968,-0.183,2450511
-0.007,0.238,0.967,-0.244,2450515
-0.007,0.238,0.967,-0.183,2450519
-0.007,0.238,0.967,-0.183,2450523
-0.007,0.238,0.967,-0.183,2450527
-0.007,0.238,0.967,-0.244,2450531
-0.006,0.239,0.968,-0.305,2450535
-0.006,0.239,0.968,-0.183,2450539
-0.006,0.239,0.968,-0.183,2450543
-0.004,0.237,0.967,-0.244,2450547
-0.004,0.237,0.967,-0.244,2450551
-0.005,0.237,0.968,-0.122,2450555
-0.005,0.237,0.968,-0.183,2450559
-0.005,0.237,0.968,-0.183,2450563
-0.006,0.238,0.969,-0.122,2450567
-0.006,0.238,0.969,-0.183,2450571
-0.007,0.238,0.967,-0.305,2450575
-0.007,0.238,0.967,-0.427,2450579
-0.007,0.238,0.967,-0.427,2450583
-0.006,0.238,0.967,-0.427,2450587
-0.006,0.238,0.967,-0.183,2450591
-0.008,0.238,0.967,-0.061,2450595
-0.008,0.238,0.967,-0.244,2450599
-0.008,0.238,0.967,-0.244,2450603
-0.006,0.238,0.967,-0.122,2450607
-0.006,0.238,0.967,-0.244,2450611
-0.005,0.239,0.967,-0.244,2450615
-0.005,0.239,0.967,-0.244,2450619
-0.005,0.239,0.967,-0.244,2450623
-0.006,0.239,0.967,-0.183,2450627
-0.006,0.239,0.967,-0.244,2450631
-0.007,0.238,0.966,-0.366,2450635
-0.007,0.238,0.966,-0.122,2450638
-0.007,0.238,0.966,-0.122,2450642
-0.006,0.239,0.969,-0.061,2450646
-0.006,0.239,0.969,-0.122,2450650
-0.006,0.238,0.969,0.0,2450654
-0.006,0.238,0.969,-0.122,2450658
-0.006,0.238,0.969,-0.122,2450662
-0.005,0.238,0.967,-0.305,2450666
-0.005,0.238,0.967,-0.183,2450670
-0.006,0.24,0.966,0.0,2450674
-0.006,0.24,0.966,-0.122,2450678
-0.006,0.24,0.966,-0.122,2450682
-0.006,0.237,0.966,-0.244,2450686
-0.006,0.237,0.966,-0.183,2450690
-0.007,0.238,0.968,-0.183,2450694
-0.007,0.238,0.968,-0.183,2450698
-0.007,0.238,0.968,-0.183,2450702
-0.006,0.237,0.968,-0.244,2450706
-0.006,0.237,0.968,-0.122,2450710
-0.007,0.238,0.968,-0.244,2450714
-0.007,0.238,0.968,-0.244,2450718
-0.007,0.238,0.968,-0.244,2450722
-0.006,0.238,0.969,-0.183,2450726
-0.006,0.238,0.969,-0.183,2450730
-0.005,0.236,0.967,-0.305,2450734
-0.005,0.236,0.967,-0.183,2450738
-0.005,0.236,0.967,-0.183,2450742
-0.006,0.238,0.968,-0.122,2450746
-0.006,0.238,0.968,-0.122,2450750
-0.006,0.237,0.969,-0.122,2450754
-0.006,0.237,0.969,-0.244,2450758
-0.006,0.237,0.969,-0.244,2450761
-0.004,0.236,0.969,-0.244,2450765
-0.004,0.236,0.969,-0.183,2450769
-0.006,0.236,0.967,-0.061,2450773
-0.006,0.236,0.967,-0.122,2450777
-0.006,0.236,0.967,-0.122,2450781
-0.005,0.237,0.967,-0.183,2450785
-0.005,0.237,0.967,-0.183,2450789
-0.006,0.236,0.969,-0.183,2450793
-0.006,0.236,0.969,-0.183,2450797
-0.006,0.236,0.969,-0.183,2450801
-0.008,0.238,0.967,-0.183,2450805
-0.008,0.238,0.967,-0.061,2450809
-0.006,0.237,0.967,-0.244,2450813
-0.006,0.237,0.967,-0.305,2450817
-0.006,0.237,0.967,-0.305,2450821
-0.005,0.239,0.967,-0.183,2450825
-0.005,0.239,0.967,0.0,2450829
-0.006,0.24,0.968,-0.122,2450833
-0.006,0.24,0.968,-0.183,2450837
-0.006,0.24,0.968,-0.183,2450841
-0.005,0.239,0.968,-0.183,2450845
-0.005,0.239,0.968,-0.122,2450849
-0.005,0.24,0.967,-0.061,2450853
-0.005,0.24,0.967,-0.244,2450857
-0.005,0.24,0.967,-0.244,2450861
-0.004,0.239,0.966,-0.183,2450865
-0.004,0.239,0.966,-0.183,2450869
-0.004,0.237,0.969,-0.366,2450873
-0.004,0.237,0.969,-0.183,2450877
-0.004,0.237,0.969,-0.183,2450881
-0.006,0.24,0.968,-0.183,2450885
-0.006,0.24,0.968,-0.183,2450889
-0.005,0.239,0.967,-0.183,2450893
-0.005,0.239,0.967,-0.183,2450897
-0.005,0.239,0.968,-0.061,2450901
-0.005,0.239,0.968,-0.061,2450905
-0.005,0.239,0.968,-0.183,2450909
-0.006,0.239,0.967,-0.244,2450912
-0.006,0.239,0.967,-0.244,2450916
-0.007,0.239,0.969,-0.244,2450920
-0.007,0.239,0.969,-0.244,2450924
-0.007,0.239,0.969,-0.061,2450928
-0.005,0.239,0.969,-0.183,2450932
-0.005,0.239,0.969,-0.366,2450936
-0.005,0.237,0.969,-0.244,2450940
-0.005,0.237,0.969,-0.244,2450944
-0.005,0.237,0.969,-0.061,2450948
-0.006,0.238,0.967,-0.183,2450952
-0.006,0.238,0.967,-0.122,2450956
-0.008,0.24,0.968,-0.244,2450960
-0.008,0.24,0.968,-0.244,2450964
-0.008,0.24,0.968,-0.244,2450968
-0.006,0.237,0.968,-0.305,2450972
-0.006,0.237,0.968,-0.183,2450976
-0.005,0.236,0.967,-0.244,2450980
-0.005,0.236,0.967,-0.244,2450984
-0.005,0.236,0.967,-0.305,2450988
-0.008,0.238,0.968,-0.244,2450992
-0.008,0.238,0.968,-0.122,2450996
-0.006,0.237,0.968,-0.183,2451000
-0.006,0.237,0.968,-0.183,2451004
-0.006,0.237,0.968,-0.183,2451008
-0.006,0.237,0.967,-0.244,2451012
-0.006,0.237,0.967,-0.244,2451016
-0.006,0.238,0.967,-0.122,2451020
-0.006,0.238,0.967,-0.122,2451024
-0.006,0.238,0.967,-0.305,2451028
-0.006,0.237,0.968,-0.305,2451032
-0.006,0.237,0.968,-0.183,2451036
-0.006,0.239,0.968,-0.122,2451040
-0.006,0.239,0.968,-0.122,2451044
-0.006,0.239,0.968,-0.305,2451048
-0.007,0.237,0.968,-0.183,2451052
-0.007,0.237,0.968,-0.122,2451056
-0.006,0.237,0.968,-0.244,2451060
-0.006,0.237,0.968,-0.244,2451064
-0.006,0.237,0.968,-0.183,2451067
-0.003,0.237,0.967,-0.183,2451071
-0.003,0.237,0.967,-0.122,2451075
-0.005,0.239,0.969,-0.122,2451079
-0.005,0.239,0.969,-0.122,2451083
-0.005,0.239,0.969,-0.122,2451087
-0.005,0.239,0.968,-0.122,2451091
-0.005,0.239,0.968,-0.061,2451095
-0.005,0.239,0.968,-0.244,2451099
-0.005,0.239,0.968,-0.244,2451103
-0.005,0.239,0.968,-0.244,2451107
-0.007,0.238,0.968,-0.061,2451111
-0.007,0.238,0.968,-0.061,2451115
-0.007,0.239,0.968,-0.183,2451119
-0.007,0.239,0.968,-0.183,2451123
-0.007,0.239,0.968,-0.244,2451127
-0.006,0.238,0.969,-0.122,2451131
-0.006,0.238,0.969,-0.183,2451135
-0.005,0.238,0.968,-0.244,2451139
-0.005,0.238,0.968,-0.244,2451143
-0.005,0.238,0.968,-0.244,2451147
-0.006,0.238,0.966,-0.183,2451151
-0.006,0.238,0.966,-0.122,2451155
-0.005,0.238,0.966,-0.122,2451159
-0.005,0.238,0.966,-0.122,2451163
-0.005,0.238,0.966,-0.122,2451167
-0.005,0.238,0.968,-0.122,2451171
-0.005,0.238,0.968,-0.305,2451175
-0.005,0.237,0.968,-0.244,2451179
-0.005,0.237,0.968,-0.244,2451183
-0.005,0.237,0.968,-0.305,2451187
-0.007,0.237,0.967,-0.305,2451191
-0.007,0.237,0.967,-0.183,2451195
-0.007,0.238,0.966,-0.244,2451199
-0.007,0.238,0.966,-0.244,2451203
-0.007,0.238,0.966,-0.183,2451207
-0.006,0.237,0.968,-0.305,2451211
-0.006,0.237,0.968,-0.244,2451215
-0.007,0.237,0.966,-0.244,2451219
-0.007,0.237,0.966,-0.244,2451223
-0.007,0.237,0.966,-0.305,2451227
-0.007,0.238,0.969,-0.183,2451231
-0.007,0.238,0.969,0.0,2451235
-0.006,0.238,0.967,-0.122,2451238
-0.006,0.238,0.967,-0.122,2451242
-0.006,0.238,0.967,-0.183,2451246
-0.005,0.237,0.967,-0.183,2451250
-0.005,0.237,0.967,-0.183,2451254
-0.005,0.237,0.968,-0.122,2451258
-0.005,0.237,0.968,-0.122,2451262
-0.005,0.237,0.968,-0.183,2451266
-0.007,0.239,0.969,-0.305,2451270
-0.007,0.239,0.969,-0.122,2451274
-0.006,0.237,0.967,-0.305,2451278
-0.006,0.237,0.967,-0.305,2451282
-0.006,0.237,0.967,-0.183,2451286
-0.006,0.238,0.968,-0.244,2451290
-0.006,0.238,0.968,-0.305,2451294
-0.006,0.239,0.967,-0.244,2451298
-0.006,0.239,0.967,-0.244,2451302
-0.006,0.239,0.967,-0.244,2451306
-0.005,0.237,0.967,-0.244,2451310
-0.005,0.237,0.967,-0.183,2451314
-0.007,0.238,0.968,-0.244,2451318
-0.007,0.238,0.968,-0.244,2451322
-0.007,0.238,0.968,-0.183,2451326
-0.006,0.238,0.968,-0.122,2451330
-0.006,0.238,0.968,-0.244,2451334
-0.006,0.239,0.967,-0.183,2451338
-0.006,0.239,0.967,-0.183,2451342
-0.006,0.239,0.967,-0.183,2451346
-0.006,0.239,0.968,-0.122,2451350
-0.006,0.239,0.968,-0.244,2451354
-0.006,0.238,0.968,-0.183,2451358
-0.006,0.238,0.968,-0.183,2451362
-0.006,0.238,0.968,-0.122,2451366
-0.005,0.238,0.967,-0.061,2451370
-0.005,0.238,0.967,-0.122,2451374
-0.007,0.237,0.968,-0.183,2451378
-0.007,0.237,0.968,-0.183,2451382
-0.007,0.237,0.968,-0.244,2451386
-0.006,0.238,0.968,-0.122,2451389
-0.006,0.238,0.968,-0.183,2451393
-0.006,0.238,0.968,-0.122,2451397
-0.006,0.238,0.968,-0.122,2451401
-0.006,0.238,0.968,-0.122,2451405
-0.006,0.239,0.969,-0.122,2451409
-0.006,0.239,0.969,-0.183,2451413
-0.008,0.239,0.967,-0.244,2451417
-0.008,0.239,0.967,-0.244,2451421
-0.008,0.239,0.967,-0.183,2451425
-0.007,0.238,0.969,-0.183,2451429
-0.007,0.238,0.969,-0.305,2451433
-0.006,0.237,0.967,-0.244,2451437
-0.006,0.237,0.967,-0.244,2451441
-0.006,0.237,0.967,-0.061,2451445
-0.007,0.24,0.967,-0.061,2451449
-0.007,0.24,0.967,-0.122,2451453
-0.006,0.237,0.968,-0.183,2451457
-0.006,0.237,0.968,-0.183,2451461
-0.006,0.237,0.968,-0.183,2451465
-0.005,0.238,0.968,-0.244,2451469
-0.005,0.238,0.968,-0.305,2451473
-0.006,0.237,0.968,-0.305,2451477
-0.006,0.237,0.968,-0.305,2451481
-0.006,0.237,0.968,-0.183,2451485
-0.005,0.239,0.968,-0.183,2451489
-0.005,0.239,0.968,-0.183,2451493
-0.007,0.237,0.967,-0.244,2451497
-0.007,0.237,0.967,-0.244,2451501
-0.007,0.237,0.967,-0.061,2451505
-0.006,0.236,0.966,-0.183,2451509
-0.006,0.236,0.966,-0.244,2451513
-0.004,0.238,0.968,-0.183,2451517
-0.004,0.238,0.968,-0.244,2451521
-0.004,0.238,0.968,-0.244,2451525
-0.006,0.238,0.968,-0.122,2451529
-0.006,0.238,0.968,-0.183,2451533
-0.006,0.238,0.967,-0.244,2451537
-0.006,0.238,0.967,-0.061,2451540
-0.006,0.238,0.967,-0.061,2451544
-0.007,0.237,0.967,-0.183,2451548
-0.007,0.237,0.967,-0.183,2451552
-0.007,0.237,0.968,-0.244,2451556
-0.007,0.237,0.968,-0.183,2451560
-0.007,0.237,0.968,-0.183,2451564
-0.007,0.239,0.968,-0.183,2451568
-0.007,0.239,0.968,-0.122,2451572
-0.006,0.238,0.968,-0.122,2451576
-0.006,0.238,0.968,-0.122,2451580
-0.006,0.238,0.968,-0.122,2451584
-0.006,0.238,0.967,-0.244,2451588
-0.006,0.238,0.967,-0.244,2451592
-0.006,0.238,0.968,-0.183,2451596
-0.006,0.238,0.968,-0.305,2451600
-0.006,0.238,0.968,-0.305,2451604
-0.006,0.237,0.968,-0.244,2451608
-0.006,0.237,0.968,-0.122,2451612
-0.006,0.239,0.968,-0.122,2451616
-0.006,0.239,0.968,-0.183,2451620
-0.006,0.239,0.968,-0.183,2451624
-0.003,0.238,0.968,-0.122,2451628
-0.003,0.238,0.968,-0.305,2451632
-0.006,0.236,0.967,-0.305,2451636
-0.006,0.236,0.967,-0.183,2451640
-0.006,0.236,0.967,-0.183,2451644
-0.005,0.238,0.967,-0.061,2451648
-0.005,0.238,0.967,-0.244,2451652
-0.005,0.238,0.968,-0.122,2451656
-0.005,0.238,0.968,-0.122,2451660
-0.005,0.238,0.968,-0.122,2451664
-0.006,0.238,0.969,-0.183,2451668
-0.006,0.238,0.969,-0.122,2451672
-0.005,0.239,0.968,-0.183,2451676
-0.005,0.239,0.968,-0.183,2451680
-0.005,0.239,0.968,-0.183,2451684
-0.006,0.237,0.967,-0.244,2451688
-0.006,0.237,0.967,-0.122,2451692
-0.004,0.237,0.969,-0.244,2451696
-0.004,0.237,0.969,-0.183,2451699
-0.004,0.237,0.969,-0.183,2451703
-0.004,0.237,0.967,-0.183,2451707
-0.004,0.237,0.967,-0.183,2451711
-0.006,0.238,0.968,-0.122,2451715
-0.006,0.238,0.968,-0.244,2451719
-0.006,0.238,0.968,-0.244,2451723
-0.006,0.238,0.968,-0.305,2451727
-0.006,0.238,0.968,-0.183,2451731
-0.006,0.237,0.967,-0.305,2451735
-0.006,0.237,0.967,-0.305,2451739
-0.006,0.237,0.967,-0.305,2451743
-0.006,0.24,0.967,-0.183,2451747
-0.006,0.24,0.967,-0.183,2451751
-0.006,0.238,0.967,-0.183,2451755
-0.006,0.238,0.967,-0.183,2451759
-0.006,0.238,0.967,-0.183,2451763
-0.008,0.237,0.967,-0.244,2451767
-0.008,0.237,0.967,-0.244,2451771
-0.006,0.238,0.969,-0.183,2451775
-0.006,0.238,0.969,-0.061,2451779
-0.006,0.238,0.969,-0.061,2451783
-0.006,0.239,0.968,-0.122,2451787
-0.006,0.239,0.968,-0.305,2451791
-0.006,0.238,0.967,-0.244,2451795
-0.006,0.238,0.967,-0.183,2451799
-0.006,0.238,0.967,-0.183,2451803
-0.006,0.237,0.969,-0.305,2451807
-0.006,0.237,0.969,-0.183,2451811
-0.006,0.237,0.968,-0.122,2451815
-0.006,0.237,0.968,-0.183,2451819
-0.006,0.237,0.968,-0.183,2451823
-0.007,0.238,0.967,-0.183,2451827
-0.007,0.238,0.967,-0.244,2451831
-0.006,0.239,0.969,-0.244,2451835
-0.006,0.239,0.969,-0.183,2451839
-0.006,0.239,0.969,-0.183,2451843
-0.005,0.238,0.968,-0.061,2451846
-0.005,0.238,0.968,-0.183,2451850
-0.007,0.238,0.969,-0.305,2451854
-0.007,0.238,0.969,-0.244,2451858
-0.007,0.238,0.969,-0.244,2451862
-0.006,0.239,0.969,-0.183,2451866
-0.006,0.239,0.969,-0.183,2451870
-0.004,0.239,0.967,-0.244,2451874
-0.004,0.239,0.967,-0.061,2451878
-0.004,0.239,0.967,-0.061,2451882
-0.006,0.238,0.968,-0.244,2451886
-0.006,0.238,0.968,-0.183,2451890
-0.005,0.237,0.968,-0.183,2451894
-0.005,0.237,0.968,-0.183,2451898
-0.005,0.237,0.968,-0.183,2451902
-0.008,0.238,0.968,-0.244,2451906
-0.008,0.238,0.968,-0.305,2451910
-0.005,0.239,0.968,-0.305,2451914
-0.005,0.239,0.968,-0.244,2451918
-0.005,0.239,0.968,-0.244,2451922
-0.006,0.239,0.968,-0.183,2451926
-0.006,0.239,0.968,-0.122,2451930
-0.008,0.237,0.968,-0.122,2451934
-0.008,0.237,0.968,-0.122,2451938
-0.008,0.237,0.968,-0.122,2451942
-0.006,0.236,0.968,-0.244,2451946
-0.006,0.236,0.968,-0.183,2451950
-0.005,0.238,0.966,-0.305,2451954
-0.005,0.238,0.966,-0.244,2451958
-0.005,0.238,0.966,-0.244,2451962
-0.004,0.237,0.967,-0.305,2451966
-0.004,0.237,0.967,-0.122,2451970
-0.004,0.236,0.967,-0.244,2451974
-0.004,0.236,0.967,-0.244,2451978
-0.004,0.236,0.967,-0.244,2451982
-0.006,0.237,0.968,-0.183,2451986
-0.006,0.237,0.968,-0.122,2451990
-0.005,0.237,0.968,-0.183,2451994
-0.005,0.237,0.968,-0.244,2451998
-0.005,0.237,0.968,-0.244,2452002
-0.006,0.238,0.968,-0.244,2452006
-0.006,0.238,0.968,-0.122,2452010
-0.005,0.24,0.967,-0.183,2452013
-0.005,0.24,0.967,-0.183,2452017
-0.005,0.24,0.967,-0.183,2452021
-0.007,0.239,0.967,-0.122,2452025
-0.007,0.239,0.967,-0.183,2452029
-0.007,0.238,0.968,-0.244,2452033
-0.007,0.238,0.968,-0.183,2452037
-0.007,0.238,0.968,-0.183,2452041
-0.006,0.239,0.968,-0.244,2452045
-0.006,0.239,0.968,-0.244,2452049
-0.005,0.237,0.969,-0.244,2452053
-0.005,0.237,0.969,-0.244,2452057
-0.005,0.237,0.969,-0.244,2452061
-0.007,0.238,0.965,-0.061,2452065
-0.007,0.238,0.965,-0.183,2452069
-0.006,0.239,0.966,-0.305,2452073
-0.006,0.239,0.966,0.0,2452077
-0.006,0.239,0.966,0.0,2452081
-0.006,0.238,0.968,-0.244,2452085
-0.006,0.238,0.968,-0.305,2452089
-0.007,0.239,0.969,-0.305,2452093
-0.007,0.239,0.969,-0.183,2452097
-0.007,0.239,0.969,-0.183,2452101
-0.007,0.239,0.967,-0.122,2452105
-0.007,0.239,0.967,-0.183,2452109
-0.007,0.238,0.967,-0.183,2452113
-0.007,0.238,0.967,-0.183,2452117
-0.007,0.238,0.967,-0.183,2452121
-0.006,0.236,0.968,-0.244,2452125
-0.006,0.236,0.968,-0.244,2452129
-0.006,0.238,0.966,-0.366,2452133
-0.006,0.238,0.966,-0.183,2452137
-0.006,0.238,0.966,-0.183,2452141
-0.005,0.238,0.967,-0.122,2452145
-0.005,0.238,0.967,-0.122,2452148
-0.006,0.239,0.969,-0.061,2452152
-0.006,0.239,0.969,-0.122,2452156
-0.006,0.239,0.969,-0.122,2452160
-0.004,0.238,0.969,-0.244,2452164
-0.004,0.238,0.969,-0.122,2452168
-0.005,0.237,0.967,-0.061,2452172
-0.005,0.237,0.967,-0.183,2452176
-0.005,0.237,0.967,-0.183,2452180
-0.004,0.236,0.967,-0.183,2452184
-0.004,0.236,0.967,-0.244,2452188
-0.005,0.237,0.968,-0.244,2452192
-0.005,0.237,0.968,-0.244,2452196
-0.006,0.239,0.968,-0.183,2452200
-0.006,0.239,0.968,-0.183,2452204
-0.006,0.239,0.968,-0.183,2452208
-0.006,0.237,0.967,-0.305,2452212
-0.006,0.237,0.967,-0.183,2452216
-0.005,0.238,0.965,-0.305,2452220
-0.005,0.238,0.965,-0.305,2452224
-0.005,0.238,0.965,-0.183,2452228
-0.005,0.237,0.967,-0.244,2452232
-0.005,0.237,0.967,-0.366,2452236
-0.005,0.238,0.968,-0.244,2452240
-0.005,0.238,0.968,-0.244,2452244
-0.005,0.238,0.968,-0.183,2452248
-0.005,0.239,0.966,-0.122,2452252
-0.005,0.239,0.966,-0.061,2452256
-0.006,0.239,0.967,-0.061,2452260
-0.006,0.239,0.967,-0.061,2452264
-0.006,0.239,0.967,-0.122,2452268
-0.005,0.239,0.969,-0.183,2452272
-0.005,0.239,0.969,-0.183,2452276
-0.007,0.239,0.967,-0.183,2452280
-0.007,0.239,0.967,-0.183,2452284
-0.007,0.239,0.967,-0.122,2452288
-0.007,0.238,0.968,-0.183,2452292
-0.007,0.238,0.968,-0.244,2452296
-0.006,0.238,0.968,-0.305,2452300
-0.006,0.238,0.968,-0.305,2452303
-0.006,0.238,0.968,-0.244,2452307
-0.007,0.239,0.968,-0.183,2452311
-0.007,0.239,0.968,-0.305,2452315
-0.006,0.239,0.968,-0.183,2452319
-0.006,0.239,0.968,-0.183,2452323
-0.006,0.239,0.968,-0.183,2452327
-0.006,0.237,0.968,-0.366,2452331
-0.006,0.237,0.968,-0.183,2452335
-0.006,0.238,0.967,-0.244,2452339
-0.006,0.238,0.967,-0.244,2452343
-0.006,0.238,0.967,-0.183,2452347
-0.006,0.238,0.966,0.0,2452351
-0.006,0.238,0.966,-0.122,2452355
-0.005,0.237,0.967,-0.244,2452359
-0.005,0.237,0.967,-0.244,2452363
-0.005,0.237,0.967,-0.183,2452367
-0.005,0.237,0.968,-0.305,2452371
-0.005,0.237,0.968,-0.183,2452375
-0.005,0.237,0.967,-0.244,2452379
-0.005,0.237,0.967,-0.244,2452383
-0.005,0.237,0.967,-0.244,2452387
-0.004,0.238,0.967,-0.183,2452391
-0.004,0.238,0.967,-0.122,2452395
-0.007,0.237,0.969,-0.305,2452399
-0.007,0.237,0.969,-0.305,2452403
-0.007,0.237,0.969,-0.183,2452407
-0.007,0.238,0.969,-0.122,2452411
-0.007,0.238,0.969,-0.183,2452415
-0.005,0.238,0.967,-0.366,2452419
-0.005,0.238,0.967,-0.366,2452423
-0.005,0.238,0.967,-0.183,2452427
-0.005,0.238,0.968,-0.183,2452431
-0.005,0.238,0.968,-0.183,2452435
-0.007,0.239,0.968,-0.183,2452439
-0.007,0.239,0.968,-0.183,2452442
-0.007,0.239,0.968,-0.183,2452446
-0.006,0.238,0.967,-0.244,2452450
-0.006,0.238,0.967,-0.122,2452454
-0.006,0.237,0.967,-0.122,2452458
-0.006,0.237,0.967,-0.122,2452462
-0.006,0.237,0.967,-0.183,2452466
-0.006,0.237,0.967,-0.183,2452470
-0.006,0.237,0.967,-0.122,2452474
-0.006,0.238,0.967,-0.305,2452478
-0.006,0.238,0.967,-0.305,2452482
-0.006,0.238,0.967,-0.183,2452486
-0.006,0.238,0.965,-0.122,2452490
-0.006,0.238,0.965,-0.244,2452494
-0.005,0.239,0.968,-0.183,2452498
-0.005,0.239,0.968,-0.183,2452502
-0.005,0.239,0.968,-0.183,2452506
-0.005,0.237,0.968,-0.183,2452510
-0.005,0.237,0.968,-0.305,2452514
-0.006,0.237,0.967,-0.061,2452518
-0.006,0.237,0.967,-0.061,2452522
-0.006,0.237,0.967,-0.183,2452526
-0.005,0.237,0.966,-0.183,2452530
-0.005,0.237,0.966,-0.183,2452534
-0.006,0.24,0.969,-0.244,2452538
-0.006,0.24,0.969,-0.244,2452542
-0.006,0.24,0.969,-0.183,2452546
-0.005,0.237,0.968,-0.183,2452550
-0.005,0.237,0.968,-0.244,2452554
-0.005,0.237,0.968,-0.244,2452558
-0.005,0.237,0.968,-0.244,2452562
-0.005,0.237,0.968,-0.244,2452566
-0.004,0.238,0.967,-0.244,2452570
-0.004,0.238,0.967,-0.366,2452574
-0.006,0.236,0.968,-0.244,2452578
-0.006,0.236,0.968,-0.244,2452582
-0.006,0.236,0.968,-0.183,2452586
-0.006,0.236,0.967,-0.061,2452590
-0.006,0.236,0.967,-0.122,2452593
-0.006,0.238,0.969,-0.305,2452597
-0.006,0.238,0.969,-0.305,2452601
-0.006,0.238,0.969,-0.183,2452605
-0.008,0.238,0.97,-0.122,2452609
-0.008,0.238,0.97,-0.122,2452613
-0.004,0.238,0.968,-0.122,2452617
-0.004,0.238,0.968,-0.122,2452621
-0.004,0.238,0.968,-0.244,2452625
-0.007,0.238,0.967,-0.244,2452629
-0.007,0.238,0.967,-0.183,2452633
-0.005,0.236,0.967,-0.183,2452637
-0.005,0.236,0.967,-0.183,2452641
-0.005,0.236,0.967,-0.183,2452645
-0.005,0.238,0.968,-0.122,2452649
-0.005,0.238,0.968,-0.183,2452653
-0.005,0.239,0.967,-0.122,2452657
-0.005,0.239,0.967,-0.122,2452661
-0.005,0.239,0.967,-0.244,2452665
-0.006,0.239,0.967,-0.122,2452669
-0.006,0.239,0.967,-0.061,2452673
-0.005,0.238,0.968,-0.061,2452677
-0.005,0.238,0.968,-0.061,2452681
-0.005,0.238,0.968,-0.366,2452685
-0.005,0.237,0.967,-0.305,2452689
-0.005,0.237,0.967,-0.183,2452693
-0.005,0.237,0.967,-0.122,2452697
-0.005,0.237,0.967,-0.122,2452701
-0.005,0.237,0.967,-0.183,2452705
-0.007,0.239,0.967,-0.244,2452709
-0.007,0.239,0.967,-0.183,2452713
-0.006,0.237,0.965,-0.244,2452717
-0.006,0.237,0.965,-0.244,2452721
-0.006,0.237,0.965,-0.305,2452725
-0.005,0.239,0.966,-0.305,2452729
-0.005,0.239,0.966,-0.183,2452733
-0.004,0.239,0.968,-0.244,2452737
-0.004,0.239,0.968,-0.244,2452741
-0.004,0.239,0.968,-0.366,2452745
-0.004,0.237,0.968,-0.305,2452749
-0.004,0.237,0.968,-0.183,2452753
-0.005,0.238,0.968,-0.244,2452757
-0.005,0.238,0.968,-0.244,2452760
-0.005,0.238,0.968,-0.244,2452764
-0.006,0.236,0.966,-0.244,2452768
-0.006,0.236,0.966,-0.183,2452772
-0.007,0.237,0.969,-0.122,2452776
-0.007,0.237,0.969,-0.122,2452780
-0.007,0.237,0.969,-0.122,2452784
-0.007,0.238,0.968,-0.183,2452788
-0.007,0.238,0.968,-0.122,2452792
-0.005,0.239,0.968,-0.183,2452796
-0.005,0.239,0.968,-0.183,2452800
-0.005,0.239,0.968,-0.122,2452804
-0.006,0.238,0.969,-0.122,2452808
-0.006,0.238,0.969,-0.183,2452812
-0.008,0.238,0.969,-0.183,2452816
-0.008,0.238,0.969,-0.244,2452820
-0.008,0.238,0.969,-0.244,2452824
-0.007,0.237,0.968,-0.183,2452828
-0.007,0.237,0.968,-0.244,2452832
-0.005,0.236,0.969,-0.061,2452836
-0.005,0.236,0.969,-0.061,2452840
-0.005,0.236,0.969,-0.061,2452844
-0.006,0.238,0.966,-0.244,2452848
-0.006,0.238,0.966,-0.244,2452852
-0.005,0.238,0.967,-0.122,2452856
-0.005,0.238,0.967,-0.122,2452860
-0.005,0.238,0.967,-0.122,2452864
-0.006,0.236,0.969,-0.183,2452868
-0.006,0.236,0.969,-0.183,2452872
-0.007,0.238,0.967,-0.122,2452876
-0.007,0.238,0.967,-0.183,2452880
-0.007,0.238,0.967,-0.183,2452884
-0.005,0.239,0.967,-0.183,2452888
-0.005,0.239,0.967,-0.305,2452892
-0.005,0.237,0.969,-0.183,2452896
-0.005,0.237,0.969,-0.244,2452900
-0.005,0.237,0.969,-0.244,2452904
-0.005,0.238,0.968,-0.183,2452908
-0.005,0.238,0.968,-0.122,2452911
-0.007,0.239,0.967,-0.122,2452915
-0.007,0.239,0.967,-0.122,2452919
-0.007,0.239,0.967,-0.122,2452923
-0.006,0.238,0.968,-0.122,2452927
-0.006,0.238,0.968,-0.183,2452931
-0.006,0.238,0.967,-0.122,2452935
-0.006,0.238,0.967,-0.305,2452939
-0.006,0.238,0.967,-0.305,2452943
-0.005,0.237,0.968,-0.305,2452947
-0.005,0.237,0.968,-0.183,2452951
-0.006,0.237,0.967,-0.122,2452955
-0.006,0.237,0.967,-0.183,2452959
-0.006,0.237,0.967,-0.183,2452963
-0.007,0.238,0.967,-0.122,2452967
-0.007,0.238,0.967,-0.244,2452971
-0.007,0.237,0.969,-0.244,2452975
-0.007,0.237,0.969,-0.244,2452979
-0.007,0.237,0.969,-0.244,2452983
-0.007,0.236,0.966,-0.183,2452987
-0.007,0.236,0.966,-0.122,2452991
-0.007,0.238,0.967,-0.183,2452995
-0.007,0.238,0.967,-0.061,2452999
-0.007,0.238,0.967,-0.061,2453003
-0.008,0.239,0.969,-0.183,2453007
-0.008,0.239,0.969,-0.366,2453011
-0.008,0.239,0.969,-0.305,2453015
-0.008,0.239,0.969,0.0,2453019
-0.008,0.239,0.969,0.0,2453023
-0.008,0.237,0.966,-0.061,2453027
-0.008,0.237,0.966,-0.244,2453031
-0.007,0.237,0.968,-0.305,2453035
-0.007,0.237,0.968,-0.244,2453039
-0.007,0.237,0.968,-0.244,2453043
-0.007,0.236,0.969,-0.183,2453047
-0.007,0.236,0.969,-0.122,2453050
-0.006,0.237,0.968,-0.244,2453054
-0.006,0.237,0.968,-0.244,2453058
-0.006,0.237,0.968,-0.244,2453062
-0.006,0.237,0.968,-0.183,2453066
-0.006,0.237,0.968,-0.244,2453070
-0.007,0.238,0.968,-0.122,2453074
-0.007,0.238,0.968,-0.183,2453078
-0.007,0.238,0.968,-0.183,2453082
-0.006,0.239,0.968,-0.183,2453086
-0.006,0.239,0.968,-0.244,2453090
-0.007,0.239,0.968,-0.183,2453094
-0.007,0.239,0.968,-0.244,2453098
-0.007,0.239,0.968,-0.244,2453102
-0.006,0.237,0.969,-0.122,2453106
-0.006,0.237,0.969,-0.122,2453110
-0.006,0.238,0.966,-0.244,2453114
-0.006,0.238,0.966,-0.122,2453118
-0.006,0.238,0.966,-0.122,2453122
-0.005,0.24,0.967,-0.061,2453126
-0.005,0.24,0.967,-0.244,2453130
-0.007,0.24,0.968,-0.122,2453134
-0.007,0.24,0.968,-0.122,2453138
-0.007,0.24,0.968,-0.122,2453142
-0.008,0.239,0.968,-0.183,2453146
-0.008,0.239,0.968,-0.183,2453150
-0.007,0.237,0.968,-0.183,2453154
-0.007,0.237,0.968,-0.183,2453158
-0.007,0.237,0.968,-0.183,2453162
-0.006,0.239,0.966,-0.122,2453166
-0.006,0.239,0.966,-0.122,2453170
-0.004,0.239,0.968,-0.244,2453174
-0.004,0.239,0.968,-0.366,2453178
-0.004,0.239,0.968,-0.366,2453182
-0.006,0.237,0.969,-0.061,2453186
-0.006,0.237,0.969,-0.122,2453189
-0.005,0.238,0.967,-0.183,2453193
-0.005,0.238,0.967,-0.305,2453197
-0.005,0.238,0.967,-0.305,2453201
-0.006,0.237,0.967,-0.183,2453205
-0.006,0.237,0.967,-0.183,2453209
-0.005,0.238,0.968,-0.183,2453213
-0.005,0.238,0.968,-0.183,2453217
-0.005,0.238,0.968,-0.183,2453221
-0.005,0.238,0.969,-0.244,2453225
-0.005,0.238,0.969,-0.183,2453229
-0.006,0.237,0.968,0.0,2453233
-0.006,0.237,0.968,-0.122,2453237
-0.006,0.237,0.968,-0.122,2453241
-0.005,0.238,0.968,-0.244,2453245
-0.005,0.238,0.968,-0.183,2453249
-0.006,0.239,0.968,-0.183,2453253
-0.006,0.239,0.968,-0.183,2453257
-0.006,0.239,0.968,-0.183,2453261
-0.005,0.238,0.968,-0.122,2453265
-0.005,0.238,0.968,-0.122,2453269
-0.007,0.238,0.967,-0.244,2453273
-0.007,0.238,0.967,-0.305,2453277
-0.007,0.238,0.967,-0.305,2453281
-0.005,0.237,0.969,-0.183,2453285
-0.005,0.237,0.969,-0.183,2453289
-0.004,0.237,0.968,-0.122,2453293
-0.004,0.237,0.968,-0.244,2453297
-0.004,0.237,0.968,-0.244,2453301
-0.005,0.237,0.968,-0.244,2453305
-0.005,0.237,0.968,-0.122,2453309
-0.005,0.237,0.968,-0.183,2453313
-0.005,0.237,0.968,-0.183,2453317
-0.005,0.237,0.968,-0.183,2453321
-0.005,0.238,0.968,-0.122,2453325
-0.005,0.238,0.968,-0.183,2453329
-0.005,0.238,0.968,-0.061,2453333
-0.005,0.238,0.968,-0.244,2453337
-0.005,0.238,0.968,-0.244,2453341
-0.006,0.239,0.967,-0.122,2453344
-0.006,0.239,0.967,-0.183,2453348
-0.007,0.238,0.969,-0.122,2453352
-0.007,0.238,0.969,0.0,2453356
-0.007,0.238,0.969,0.0,2453360
-0.007,0.238,0.969,-0.122,2453364
-0.007,0.238,0.969,-0.183,2453368
-0.005,0.237,0.968,-0.305,2453372
-0.005,0.237,0.968,-0.244,2453376
-0.005,0.237,0.968,-0.244,2453380
-0.006,0.237,0.966,-0.122,2453384
-0.006,0.237,0.966,-0.122,2453388
-0.006,0.239,0.968,-0.122,2453392
-0.006,0.239,0.968,-0.183,2453396
-0.006,0.239,0.968,-0.183,2453400
-0.005,0.239,0.967,-0.183,2453404
-0.005,0.239,0.967,-0.183,2453408
-0.006,0.237,0.967,-0.122,2453412
-0.006,0.237,0.967,-0.183,2453416
-0.006,0.237,0.967,-0.183,2453420
-0.006,0.237,0.967,-0.122,2453424
-0.006,0.237,0.967,-0.122,2453428
-0.006,0.239,0.968,-0.366,2453432
-0.006,0.239,0.968,-0.122,2453436
-0.006,0.239,0.968,-0.122,2453440
-0.005,0.239,0.967,-0.122,2453444
-0.005,0.239,0.967,-0.183,2453448
-0.007,0.239,0.968,-0.183,2453452
-0.007,0.239,0.968,-0.183,2453456
-0.007,0.239,0.968,-0.183,2453460
-0.006,0.238,0.967,-0.183,2453464
-0.006,0.238,0.967,-0.244,2453468
-0.005,0.238,0.968,-0.244,2453472
-0.005,0.238,0.968,-0.183,2453476
-0.005,0.238,0.968,-0.183,2453480
-0.007,0.238,0.967,-0.244,2453483
-0.007,0.238,0.967,-0.305,2453487
-0.005,0.238,0.968,-0.305,2453491
-0.005,0.238,0.968,-0.244,2453495
-0.005,0.238,0.968,-0.244,2453499
-0.006,0.238,0.967,-0.244,2453503
-0.006,0.238,0.967,-0.244,2453507
-0.006,0.238,0.966,-0.061,2453511
-0.006,0.238,0.966,-0.183,2453515
-0.006,0.238,0.966,-0.183,2453519
-0.006,0.237,0.965,-0.122,2453523
-0.006,0.237,0.965,-0.244,2453527
-0.005,0.238,0.967,-0.244,2453531
-0.005,0.238,0.967,-0.061,2453535
-0.005,0.238,0.967,-0.061,2453539
-0.005,0.237,0.967,-0.244,2453543
-0.005,0.237,0.967,-0.244,2453547
-0.004,0.238,0.968,-0.122,2453551
-0.004,0.238,0.968,-0.183,2453555
-0.004,0.238,0.968,-0.183,2453559
-0.006,0.237,0.969,-0.061,2453563
-0.006,0.237,0.969,-0.122,2453567
-0.006,0.238,0.969,-0.122,2453571
-0.006,0.238,0.969,-0.183,2453575
-0.006,0.238,0.969,-0.183,2453579
-0.006,0.238,0.967,-0.122,2453583
-0.006,0.238,0.967,-0.244,2453587
-0.007,0.238,0.966,-0.183,2453591
-0.007,0.238,0.966,-0.122,2453595
-0.007,0.238,0.966,-0.122,2453599
-0.008,0.238,0.967,-0.183,2453603
-0.008,0.238,0.967,-0.183,2453607
-0.005,0.238,0.967,-0.183,2453611
-0.005,0.238,0.967,-0.244,2453615
-0.005,0.238,0.967,-0.244,2453619
-0.005,0.238,0.966,-0.122,2453623
-0.005,0.238,0.966,0.0,2453627
-0.007,0.238,0.964,-0.183,2453630
-0.007,0.238,0.964,-0.183,2453634
-0.007,0.238,0.964,-0.183,2453638
-0.006,0.24,0.967,-0.183,2453642
-0.006,0.24,0.967,-0.183,2453646
-0.005,0.238,0.967,-0.183,2453650
-0.005,0.238,0.967,-0.122,2453654
-0.005,0.238,0.967,-0.122,2453658
-0.006,0.238,0.967,-0.183,2453662
-0.006,0.238,0.967,-0.183,2453666
-0.006,0.238,0.967,-0.244,2453670
-0.006,0.238,0.967,-0.061,2453674
-0.006,0.238,0.967,-0.061,2453678
-0.006,0.238,0.967,-0.122,2453682
-0.006,0.238,0.967,-0.183,2453686
-0.008,0.238,0.967,-0.244,2453690
-0.008,0.238,0.967,-0.183,2453694
-0.005,0.238,0.966,-0.061,2453698
-0.005,0.238,0.966,-0.061,2453702
-0.005,0.238,0.966,-0.183,2453706
-0.007,0.237,0.966,-0.122,2453710
-0.007,0.237,0.966,-0.244,2453714
-0.006,0.237,0.968,-0.122,2453718
-0.006,0.237,0.968,-0.122,2453722
-0.006,0.237,0.968,-0.183,2453726
-0.007,0.238,0.97,-0.122,2453730
-0.007,0.238,0.97,-0.122,2453734
-0.005,0.238,0.967,-0.122,2453738
-0.005,0.238,0.967,-0.122,2453742
-0.005,0.238,0.967,-0.244,2453746
-0.006,0.238,0.966,-0.183,2453750
-0.006,0.238,0.966,-0.183,2453754
-0.006,0.237,0.968,-0.122,2453758
-0.006,0.237,0.968,-0.122,2453762
-0.006,0.237,0.968,-0.122,2453766
-0.007,0.236,0.969,-0.244,2453770
-0.007,0.236,0.969,-0.122,2453774
-0.007,0.237,0.968,-0.122,2453778
-0.007,0.237,0.968,-0.122,2453782
-0.007,0.237,0.968,-0.244,2453786
-0.006,0.238,0.969,-0.427,2453789
-0.006,0.238,0.969,-0.305,2453793
-0.004,0.237,0.968,-0.122,2453797
-0.004,0.237,0.968,-0.122,2453801
-0.004,0.237,0.968,-0.122,2453805
-0.005,0.237,0.968,-0.183,2453809
-0.005,0.237,0.968,-0.122,2453813
-0.006,0.238,0.968,-0.244,2453817
-0.006,0.238,0.968,-0.244,2453821
-0.006,0.238,0.968,-0.122,2453825
-0.008,0.239,0.968,-0.122,2453829
-0.008,0.239,0.968,-0.244,2453833
-0.007,0.238,0.969,-0.244,2453837
-0.007,0.238,0.969,-0.244,2453841
-0.007,0.238,0.969,-0.122,2453845
-0.005,0.238,0.967,-0.061,2453849
-0.005,0.238,0.967,-0.061,2453853
-0.007,0.238,0.967,-0.061,2453857
-0.007,0.238,0.967,-0.061,2453861
-0.007,0.238,0.967,-0.122,2453865
-0.006,0.237,0.969,-0.183,2453869
-0.006,0.237,0.969,-0.061,2453873
-0.006,0.237,0.967,-0.244,2453877
-0.006,0.237,0.967,-0.244,2453881
-0.006,0.237,0.967,-0.305,2453885
-0.007,0.237,0.968,-0.183,2453889
-0.007,0.237,0.968,-0.183,2453893
-0.006,0.238,0.968,-0.183,2453897
-0.006,0.238,0.968,-0.183,2453901
-0.006,0.238,0.968,-0.183,2453905
-0.008,0.238,0.968,-0.183,2453909
-0.008,0.238,0.968,-0.122,2453913
-0.007,0.239,0.968,-0.122,2453917
-0.007,0.239,0.968,-0.122,2453921
-0.007,0.239,0.968,-0.183,2453925
-0.007,0.238,0.968,-0.122,2453929
-0.007,0.238,0.968,0.0,2453932
-0.005,0.238,0.968,-0.183,2453936
-0.005,0.238,0.968,-0.183,2453940
-0.005,0.238,0.968,-0.244,2453944
-0.006,0.239,0.968,-0.183,2453948
-0.006,0.239,0.968,-0.244,2453952
-0.007,0.239,0.968,0.0,2453956
-0.007,0.239,0.968,0.0,2453960
-0.007,0.239,0.968,-0.183,2453964
-0.007,0.236,0.968,-0.183,2453968
-0.007,0.236,0.968,-0.122,2453972
-0.005,0.238,0.967,-0.183,2453976
-0.005,0.238,0.967,-0.183,2453980
-0.005,0.238,0.967,-0.183,2453984
-0.005,0.238,0.968,-0.244,2453988
-0.005,0.238,0.968,-0.183,2453992
-0.006,0.237,0.968,-0.122,2453996
-0.006,0.237,0.968,-0.122,2454000
-0.006,0.237,0.968,-0.183,2454004
-0.007,0.239,0.966,-0.244,2454008
-0.007,0.239,0.966,-0.305,2454012
-0.006,0.239,0.967,-0.122,2454016
-0.006,0.239,0.967,-0.122,2454020
-0.006,0.239,0.967,-0.183,2454024
-0.006,0.238,0.969,-0.183,2454028
-0.006,0.238,0.969,-0.183,2454032
-0.007,0.237,0.968,0.0,2454036
-0.007,0.237,0.968,0.0,2454039
-0.007,0.237,0.968,0.0,2454043
-0.006,0.238,0.967,-0.305,2454047
-0.006,0.238,0.967,-0.183,2454051
-0.005,0.238,0.967,-0.305,2454055
-0.005,0.238,0.967,-0.305,2454059
-0.005,0.238,0.967,-0.244,2454063
-0.005,0.239,0.968,-0.183,2454067
-0.005,0.239,0.968,-0.244,2454071
-0.005,0.237,0.967,-0.183,2454075
-0.005,0.237,0.967,-0.183,2454079
-0.005,0.237,0.967,-0.244,2454083
-0.006,0.238,0.967,-0.183,2454087
-0.006,0.238,0.967,-0.061,2454091
-0.005,0.236,0.969,-0.244,2454095
-0.005,0.236,0.969,-0.244,2454099
-0.005,0.236,0.969,-0.183,2454103
-0.004,0.238,0.969,-0.183,2454107
-0.004,0.238,0.969,-0.305,2454111
-0.006,0.237,0.967,-0.244,2454115
-0.006,0.237,0.967,-0.244,2454119
-0.006,0.237,0.967,-0.183,2454123
-0.007,0.239,0.967,-0.183,2454127
-0.007,0.239,0.967,0.061,2454131
-0.007,0.238,0.968,-0.122,2454135
-0.007,0.238,0.968,-0.122,2454139
-0.007,0.238,0.968,-0.305,2454143
-0.006,0.238,0.967,-0.305,2454147
-0.006,0.238,0.967,-0.122,2454151
-0.005,0.238,0.967,-0.122,2454155
-0.005,0.238,0.967,-0.122,2454159
-0.005,0.238,0.967,-0.244,2454163
-0.006,0.238,0.968,-0.122,2454167
-0.006,0.238,0.968,-0.061,2454171
-0.007,0.237,0.967,-0.183,2454175
-0.007,0.237,0.967,-0.183,2454179
-0.007,0.237,0.967,-0.244,2454183
-0.007,0.238,0.966,-0.244,2454187
-0.007,0.238,0.966,-0.061,2454191
-0.006,0.239,0.967,-0.244,2454194
-0.006,0.239,0.967,-0.244,2454198
-0.006,0.239,0.967,-0.244,2454202
-0.006,0.238,0.967,-0.183,2454206
-0.006,0.238,0.967,-0.061,2454210
-0.007,0.238,0.968,-0.122,2454214
-0.007,0.238,0.968,-0.122,2454218
-0.007,0.238,0.968,-0.122,2454222
-0.005,0.237,0.967,-0.244,2454226
-0.005,0.237,0.967,-0.061,2454230
-0.006,0.238,0.969,0.061,2454234
-0.006,0.238,0.969,0.061,2454238
-0.006,0.238,0.969,-0.183,2454242
-0.006,0.237,0.969,-0.244,2454246
-0.006,0.237,0.969,-0.183,2454250
-0.005,0.238,0.968,-0.122,2454254
-0.005,0.238,0.968,-0.122,2454258
-0.005,0.238,0.968,-0.122,2454262
-0.006,0.238,0.966,-0.183,2454266
-0.006,0.238,0.966,-0.061,2454270
-0.005,0.238,0.968,-0.244,2454274
-0.005,0.238,0.968,-0.244,2454278
-0.005,0.238,0.968,-0.183,2454282
-0.005,0.239,0.969,-0.183,2454286
-0.005,0.239,0.969,-0.183,2454290
-0.006,0.238,0.967,-0.183,2454294
-0.006,0.238,0.967,-0.183,2454298
-0.006,0.238,0.967,-0.305,2454302
-0.006,0.238,0.966,-0.122,2454306
-0.006,0.238,0.966,-0.122,2454310
-0.005,0.237,0.967,-0.183,2454314
-0.005,0.237,0.967,-0.183,2454318
-0.005,0.237,0.967,-0.122,2454322
-0.006,0.238,0.969,-0.183,2454326
-0.006,0.238,0.969,-0.244,2454330
-0.006,0.238,0.967,-0.183,2454334
-0.006,0.238,0.967,-0.183,2454337
-0.006,0.238,0.967,-0.183,2454341
-0.005,0.238,0.968,-0.244,2454345
-0.005,0.238,0.968,-0.244,2454349
-0.006,0.238,0.968,-0.183,2454353
-0.006,0.238,0.968,-0.183,2454357
-0.006,0.238,0.968,-0.183,2454361
-0.005,0.239,0.968,-0.305,2454365
-0.005,0.239,0.968,-0.305,2454369
-0.007,0.239,0.968,-0.183,2454373
-0.007,0.239,0.968,-0.183,2454377
-0.007,0.239,0.968,-0.183,2454381
-0.005,0.236,0.968,-0.122,2454385
-0.005,0.236,0.968,-0.061,2454389
-0.005,0.236,0.969,-0.305,2454393
-0.005,0.236,0.969,-0.305,2454397
-0.005,0.236,0.969,-0.244,2454401
-0.006,0.237,0.968,-0.244,2454405
-0.006,0.237,0.968,-0.122,2454409
-0.005,0.238,0.969,-0.183,2454413
-0.005,0.238,0.969,-0.183,2454417
-0.005,0.238,0.969,-0.183,2454421
-0.005,0.239,0.968,-0.244,2454425
-0.005,0.239,0.968,-0.244,2454429
-0.005,0.238,0.967,-0.183,2454433
-0.005,0.238,0.967,-0.183,2454437
-0.005,0.238,0.967,-0.183,2454441
-0.006,0.238,0.967,-0.183,2454445
-0.006,0.238,0.967,-0.305,2454449
-0.005,0.238,0.967,-0.183,2454453
-0.005,0.238,0.967,-0.183,2454457
-0.005,0.238,0.967,-0.122,2454461
-0.005,0.236,0.969,-0.305,2454465
-0.005,0.236,0.969,-0.122,2454469
-0.006,0.238,0.967,-0.183,2454473
-0.006,0.238,0.967,-0.183,2454477
-0.006,0.238,0.967,-0.183,2454481
-0.006,0.24,0.967,-0.305,2454485
-0.006,0.24,0.967,-0.183,2454488
-0.006,0.238,0.967,-0.122,2454492
-0.006,0.238,0.967,-0.122,2454496
-0.006,0.238,0.967,-0.061,2454500
-0.006,0.238,0.968,0.0,2454504
-0.006,0.238,0.968,-0.122,2454508
-0.005,0.238,0.967,-0.183,2454512
-0.005,0.238,0.967,-0.183,2454516
-0.005,0.238,0.967,-0.244,2454520
-0.006,0.237,0.968,-0.244,2454524
-0.006,0.237,0.968,-0.122,2454528
-0.006,0.239,0.968,-0.244,2454532
-0.006,0.239,0.968,-0.244,2454536
-0.006,0.239,0.968,-0.244,2454540
-0.005,0.238,0.969,-0.366,2454544
-0.005,0.238,0.969,-0.244,2454548
-0.005,0.237,0.967,-0.183,2454552
-0.005,0.237,0.967,-0.183,2454556
-0.005,0.237,0.967,-0.183,2454560
-0.005,0.239,0.967,-0.244,2454564
-0.005,0.239,0.967,-0.244,2454568
-0.007,0.238,0.969,-0.305,2454572
-0.007,0.238,0.969,-0.305,2454576
-0.007,0.238,0.969,-0.244,2454580
-0.007,0.238,0.968,-0.183,2454584
-0.007,0.238,0.968,-0.244,2454588
-0.004,0.239,0.967,-0.183,2454592
-0.004,0.239,0.967,-0.183,2454596
-0.004,0.239,0.967,-0.183,2454600
-0.005,0.237,0.969,-0.183,2454604
-0.005,0.237,0.969,-0.122,2454608
-0.006,0.238,0.968,-0.183,2454612
-0.006,0.238,0.968,-0.183,2454616
-0.006,0.238,0.968,-0.122,2454620
-0.006,0.237,0.967,-0.183,2454624
-0.006,0.237,0.967,-0.244,2454628
-0.004,0.238,0.968,-0.488,2454632
-0.004,0.238,0.968,-0.488,2454636
-0.004,0.238,0.968,-0.244,2454639
-0.005,0.238,0.969,-0.122,2454643
-0.005,0.238,0.969,-0.183,2454647
-0.004,0.238,0.967,-0.183,2454651
-0.004,0.238,0.967,-0.122,2454655
-0.004,0.238,0.967,-0.122,2454659
-0.007,0.238,0.968,-0.244,2454663
-0.007,0.238,0.968,-0.122,2454667
-0.006,0.238,0.968,-0.183,2454671
-0.006,0.238,0.968,-0.183,2454675
-0.006,0.238,0.968,-0.183,2454679
-0.005,0.238,0.967,-0.061,2454683
-0.005,0.238,0.967,-0.122,2454687
-0.005,0.238,0.967,-0.183,2454691
-0.005,0.238,0.967,-0.183,2454695
-0.005,0.238,0.967,-0.183,2454699
-0.006,0.238,0.967,-0.061,2454703
-0.006,0.238,0.967,-0.061,2454707
-0.006,0.238,0.967,-0.122,2454711
-0.006,0.238,0.967,-0.183,2454715
-0.006,0.238,0.967,-0.183,2454719
-0.005,0.238,0.967,-0.305,2454723
-0.005,0.238,0.967,-0.061,2454727
-0.007,0.238,0.967,-0.122,2454731
-0.007,0.238,0.967,-0.061,2454735
-0.007,0.238,0.967,-0.061,2454739
-0.006,0.24,0.969,-0.183,2454743
-0.006,0.24,0.969,-0.244,2454747
-0.006,0.239,0.969,-0.244,2454751
-0.006,0.239,0.969,-0.183,2454755
-0.006,0.239,0.969,-0.183,2454759
-0.007,0.237,0.968,-0.122,2454763
-0.007,0.237,0.968,-0.122,2454767
-0.007,0.238,0.967,-0.244,2454771
-0.007,0.238,0.967,-0.183,2454775
-0.007,0.238,0.967,-0.183,2454779
-0.006,0.238,0.967,-0.122,2454782
-0.006,0.238,0.967,-0.183,2454786
-0.007,0.239,0.967,-0.244,2454790
-0.007,0.239,0.967,-0.061,2454794
-0.007,0.239,0.967,-0.061,2454798
-0.005,0.237,0.968,-0.122,2454802
-0.005,0.237,0.968,-0.305,2454806
-0.005,0.237,0.968,-0.244,2454810
-0.005,0.237,0.968,-0.183,2454814
-0.005,0.237,0.968,-0.183,2454818
-0.005,0.239,0.967,-0.183,2454822
-0.005,0.239,0.967,-0.122,2454826
-0.005,0.237,0.967,-0.061,2454830
-0.005,0.237,0.967,-0.122,2454834
-0.005,0.237,0.967,-0.122,2454838
-0.005,0.237,0.968,-0.244,2454842
-0.005,0.237,0.968,-0.305,2454846
-0.005,0.238,0.969,-0.244,2454850
-0.005,0.238,0.969,-0.244,2454854
-0.005,0.238,0.969,-0.244,2454858
-0.004,0.238,0.968,-0.122,2454862
-0.004,0.238,0.968,-0.244,2454866
-0.006,0.238,0.968,-0.122,2454870
-0.006,0.238,0.968,-0.244,2454874
-0.006,0.238,0.968,-0.244,2454878
-0.007,0.238,0.969,-0.305,2454882
-0.007,0.238,0.969,-0.305,2454886
-0.006,0.237,0.967,-0.244,2454890
-0.006,0.237,0.967,-0.244,2454894
-0.006,0.237,0.967,-0.244,2454898
-0.005,0.238,0.968,-0.061,2454902
-0.005,0.238,0.968,-0.122,2454906
-0.005,0.238,0.968,-0.244,2454910
-0.005,0.238,0.968,-0.244,2454914
-0.005,0.238,0.968,-0.244,2454918
-0.006,0.237,0.967,-0.366,2454922
-0.006,0.237,0.967,-0.244,2454926
-0.006,0.237,0.968,-0.183,2454930
-0.006,0.237,0.968,-0.183,2454933
-0.006,0.237,0.968,-0.183,2454937
-0.004,0.238,0.967,-0.122,2454941
-0.004,0.238,0.967,-0.122,2454945
-0.005,0.238,0.968,-0.122,2454949
-0.005,0.238,0.968,-0.244,2454953
-0.005,0.238,0.968,-0.244,2454957
-0.006,0.238,0.968,-0.305,2454961
-0.006,0.238,0.968,-0.183,2454965
-0.006,0.24,0.969,-0.122,2454969
-0.006,0.24,0.969,-0.122,2454973
-0.006,0.24,0.969,-0.122,2454977
-0.005,0.238,0.969,-0.061,2454981
-0.005,0.238,0.969,-0.183,2454985
-0.006,0.238,0.967,-0.183,2454989
-0.006,0.238,0.967,-0.183,2454993
-0.006,0.238,0.967,-0.183,2454997
-0.005,0.237,0.969,-0.244,2455001
-0.005,0.237,0.969,-0.122,2455005
-0.007,0.237,0.967,-0.244,2455009
-0.007,0.237,0.967,-0.305,2455013
-0.007,0.237,0.967,-0.305,2455017
-0.005,0.237,0.968,-0.244,2455021
-0.005,0.237,0.968,-0.061,2455025
-0.005,0.238,0.967,-0.122,2455029
-0.005,0.238,0.967,-0.122,2455033
-0.005,0.238,0.967,-0.122,2455037
-0.006,0.238,0.968,-0.183,2455041
-0.006,0.238,0.968,-0.244,2455045
-0.005,0.236,0.968,-0.183,2455049
-0.005,0.236,0.968,0.122,2455053
-0.005,0.236,0.968,0.122,2455057
-0.005,0.238,0.969,-0.122,2455061
-0.005,0.238,0.969,-0.244,2455065
-0.006,0.237,0.967,-0.305,2455069
-0.006,0.237,0.967,-0.183,2455073
-0.006,0.237,0.967,-0.183,2455077
-0.006,0.238,0.968,-0.061,2455081
-0.006,0.238,0.968,-0.305,2455085
-0.007,0.236,0.968,-0.366,2455089
-0.007,0.236,0.968,-0.244,2455093
-0.007,0.236,0.968,-0.244,2455097
-0.005,0.238,0.968,-0.183,2455100
-0.005,0.238,0.968,-0.183,2455104
-0.006,0.239,0.968,-0.122,2455108
-0.006,0.239,0.968,-0.122,2455112
-0.006,0.239,0.968,-0.122,2455116
-0.007,0.237,0.967,-0.183,2455120
-0.007,0.237,0.967,-0.305,2455124
-0.007,0.238,0.968,-0.244,2455128
-0.007,0.238,0.968,-0.061,2455132
-0.007,0.238,0.968,-0.061,2455136
-0.006,0.239,0.966,-0.061,2455140
-0.006,0.239,0.966,-0.183,2455144
-0.006,0.239,0.967,-0.061,2455148
-0.006,0.239,0.967,-0.061,2455152
-0.006,0.239,0.967,-0.061,2455156
-0.006,0.238,0.969,-0.183,2455160
-0.006,0.238,0.969,-0.183,2455164
-0.006,0.238,0.967,-0.183,2455168
-0.006,0.238,0.967,-0.122,2455172
-0.006,0.238,0.967,-0.122,2455176
-0.006,0.238,0.969,0.0,2455180
-0.006,0.238,0.969,-0.122,2455184
-0.005,0.238,0.969,-0.305,2455188
