Acc_X,Acc_Y,Acc_Z,Rot_Z,Millis
-0.004,0.36,0.927,-0.122,2141001
-0.004,0.361,0.927,-0.183,2141005
-0.004,0.361,0.927,-0.183,2141009
-0.004,0.361,0.927,-0.183,2141013
-0.004,0.36,0.926,-0.244,2141017
-0.004,0.36,0.926,-0.061,2141021
-0.002,0.361,0.926,-0.061,2141025
-0.002,0.361,0.926,-0.183,2141029
-0.002,0.361,0.926,-0.183,2141033
-0.002,0.361,0.926,-0.183,2141037
-0.002,0.361,0.926,-0.122,2141041
-0.003,0.362,0.926,-0.183,2141045
-0.003,0.362,0.926,-0.122,2141049
-0.003,0.362,0.926,-0.122,2141053
-0.001,0.362,0.926,-0.183,2141057
-0.001,0.362,0.926,-0.244,2141061
-0.0,0.362,0.925,-0.305,2141065
-0.0,0.362,0.925,-0.061,2141069
-0.0,0.362,0.925,-0.061,2141073
-0.0,0.362,0.926,-0.183,2141076
-0.0,0.362,0.926,-0.061,2141080
-0.0,0.364,0.927,-0.366,2141084
-0.0,0.364,0.927,-0.305,2141088
-0.0,0.364,0.927,-0.305,2141092
0.0,0.362,0.924,-0.122,2141096
0.0,0.362,0.924,-0.183,2141100
-0.001,0.362,0.926,-0.244,2141104
-0.001,0.362,0.926,-0.183,2141108
-0.001,0.362,0.926,-0.183,2141112
-0.001,0.363,0.927,-0.122,2141116
-0.001,0.363,0.927,-0.183,2141120
0.001,0.362,0.928,-0.183,2141124
0.001,0.362,0.928,0.0,2141128
0.001,0.362,0.928,0.0,2141132
-0.001,0.362,0.927,-0.122,2141136
-0.001,0.362,0.927,-0.244,2141140
-0.001,0.362,0.927,-0.366,2141144
-0.001,0.362,0.927,-0.366,2141148
-0.001,0.362,0.927,-0.366,2141152
-0.001,0.36,0.923,-0.183,2141156
-0.001,0.36,0.923,-0.305,2141160
-0.002,0.361,0.926,-0.305,2141164
-0.002,0.361,0.926,0.0,2141168
-0.002,0.361,0.926,0.0,2141172
-0.002,0.362,0.927,-0.122,2141176
-0.002,0.362,0.927,-0.183,2141180
-0.004,0.36,0.925,-0.244,2141184
-0.004,0.36,0.925,-0.427,2141188
-0.004,0.36,0.925,-0.427,2141191
-0.003,0.361,0.927,-0.366,2141195
-0.003,0.361,0.927,-0.183,2141199
-0.003,0.362,0.925,-0.122,2141203
-0.003,0.362,0.925,-0.183,2141207
-0.003,0.362,0.925,-0.183,2141211
-0.004,0.36,0.925,-0.244,2141215
-0.004,0.36,0.925,-0.183,2141219
-0.004,0.361,0.925,-0.122,2141223
-0.004,0.361,0.925,-0.366,2141227
-0.004,0.361,0.925,-0.366,2141231
-0.003,0.361,0.925,-0.244,2141235
-0.003,0.361,0.925,-0.244,2141239
-0.003,0.361,0.924,-0.244,2141243
-0.003,0.361,0.924,-0.366,2141247
-0.003,0.361,0.924,-0.366,2141251
-0.003,0.361,0.927,-0.183,2141255
-0.003,0.361,0.927,-0.305,2141259
-0.001,0.361,0.927,-0.244,2141263
-0.001,0.361,0.927,-0.244,2141267
-0.001,0.361,0.927,-0.244,2141271
-0.003,0.361,0.925,-0.305,2141275
-0.003,0.361,0.925,-0.305,2141279
-0.004,0.362,0.926,-0.183,2141283
-0.004,0.362,0.926,-0.061,2141287
-0.004,0.362,0.926,-0.061,2141291
-0.002,0.36,0.926,-0.183,2141295
-0.002,0.36,0.926,-0.183,2141299
-0.003,0.36,0.927,-0.122,2141303
-0.003,0.36,0.927,-0.244,2141307
-0.003,0.36,0.927,-0.244,2141311
-0.001,0.36,0.926,-0.183,2141315
-0.001,0.36,0.926,-0.244,2141319
0.001,0.361,0.926,-0.244,2141323
0.001,0.361,0.926,-0.183,2141327
0.001,0.361,0.926,-0.183,2141331
-0.0,0.361,0.928,-0.305,2141334
-0.0,0.361,0.928,-0.305,2141338
0.001,0.362,0.926,-0.427,2141342
0.001,0.362,0.926,-0.122,2141346
0.001,0.362,0.926,-0.122,2141350
0.0,0.362,0.925,-0.122,2141354
0.0,0.362,0.925,-0.244,2141358
0.001,0.361,0.925,-0.305,2141362
0.001,0.361,0.925,-0.183,2141366
0.001,0.361,0.925,-0.183,2141370
0.002,0.361,0.926,-0.244,2141374
0.002,0.361,0.926,-0.183,2141378
-0.0,0.361,0.927,-0.122,2141382
-0.0,0.361,0.927,-0.244,2141386
-0.0,0.361,0.927,-0.244,2141390
-0.003,0.36,0.926,-0.244,2141394
-0.003,0.36,0.926,-0.244,2141398
-0.002,0.361,0.926,-0.366,2141402
-0.002,0.361,0.926,-0.244,2141406
-0.002,0.361,0.926,-0.244,2141410
-0.001,0.362,0.929,-0.122,2141414
-0.001,0.362,0.929,-0.183,2141418
-0.002,0.363,0.93,-0.122,2141422
-0.002,0.363,0.93,-0.122,2141426
-0.002,0.363,0.93,-0.122,2141430
-0.001,0.363,0.927,-0.244,2141434
-0.001,0.363,0.927,-0.183,2141438
0.0,0.36,0.924,0.0,2141442
0.0,0.36,0.924,0.0,2141446
0.0,0.36,0.924,0.0,2141450
-0.003,0.361,0.924,-0.244,2141453
-0.003,0.361,0.924,-0.244,2141457
-0.005,0.36,0.925,-0.183,2141461
-0.005,0.36,0.925,-0.183,2141465
-0.005,0.36,0.925,-0.183,2141469
-0.003,0.36,0.925,-0.183,2141473
-0.003,0.36,0.925,-0.305,2141477
0.0,0.36,0.926,-0.305,2141481
0.0,0.36,0.926,-0.122,2141485
0.0,0.36,0.926,-0.122,2141489
-0.0,0.362,0.928,-0.244,2141493
-0.0,0.362,0.928,-0.305,2141497
-0.001,0.361,0.926,-0.183,2141501
-0.001,0.361,0.926,-0.183,2141505
-0.001,0.361,0.926,-0.183,2141509
-0.004,0.36,0.923,-0.122,2141513
-0.004,0.36,0.923,-0.183,2141517
-0.005,0.36,0.926,-0.305,2141521
-0.005,0.36,0.926,-0.244,2141525
-0.005,0.36,0.926,-0.244,2141529
-0.007,0.361,0.927,-0.305,2141533
-0.007,0.361,0.927,-0.122,2141537
-0.003,0.36,0.924,-0.122,2141541
-0.003,0.36,0.924,-0.061,2141545
-0.003,0.36,0.924,-0.061,2141549
0.0,0.361,0.925,-0.122,2141553
0.0,0.361,0.925,-0.244,2141557
-0.002,0.364,0.927,-0.183,2141561
-0.002,0.364,0.927,-0.122,2141565
-0.002,0.364,0.927,-0.122,2141569
-0.003,0.361,0.927,-0.183,2141573
-0.003,0.361,0.927,-0.244,2141577
-0.004,0.361,0.926,-0.183,2141580
-0.004,0.361,0.926,-0.244,2141584
-0.004,0.361,0.926,-0.244,2141588
-0.002,0.361,0.926,-0.244,2141592
-0.002,0.361,0.926,-0.061,2141596
-0.0,0.361,0.927,-0.244,2141600
-0.0,0.361,0.927,-0.183,2141604
-0.0,0.361,0.927,-0.183,2141608
-0.0,0.361,0.925,-0.122,2141612
-0.0,0.361,0.925,-0.183,2141616
-0.001,0.36,0.926,-0.183,2141620
-0.001,0.36,0.926,-0.244,2141624
-0.001,0.36,0.926,-0.244,2141628
-0.001,0.361,0.928,-0.244,2141632
-0.001,0.361,0.928,-0.183,2141636
-0.001,0.361,0.927,-0.305,2141640
-0.001,0.361,0.927,-0.183,2141644
-0.001,0.361,0.927,-0.183,2141648
-0.0,0.36,0.926,-0.183,2141652
-0.0,0.36,0.926,-0.244,2141656
-0.001,0.36,0.926,-0.183,2141660
-0.001,0.36,0.926,-0.244,2141664
-0.001,0.36,0.926,-0.244,2141668
-0.0,0.363,0.928,-0.366,2141672
-0.0,0.363,0.928,-0.366,2141676
-0.002,0.361,0.928,-0.061,2141680
-0.002,0.361,0.928,-0.122,2141684
-0.002,0.361,0.928,-0.122,2141688
-0.001,0.359,0.926,-0.244,2141692
-0.001,0.359,0.926,-0.183,2141696
-0.002,0.361,0.925,-0.244,2141700
-0.002,0.361,0.925,-0.305,2141704
-0.002,0.361,0.925,-0.305,2141708
-0.002,0.363,0.927,-0.183,2141712
-0.002,0.363,0.927,-0.244,2141716
-0.002,0.362,0.927,-0.183,2141720
-0.002,0.362,0.927,-0.183,2141724
-0.002,0.362,0.927,-0.183,2141728
-0.001,0.362,0.926,-0.244,2141732
-0.001,0.362,0.926,-0.244,2141736
-0.004,0.361,0.925,-0.122,2141739
-0.004,0.361,0.925,-0.305,2141743
-0.004,0.361,0.925,-0.305,2141747
-0.004,0.361,0.926,-0.244,2141751
-0.004,0.361,0.926,-0.183,2141755
-0.005,0.36,0.926,-0.183,2141759
-0.005,0.36,0.926,-0.305,2141763
-0.005,0.36,0.926,-0.305,2141767
-0.002,0.36,0.926,-0.366,2141771
-0.002,0.36,0.926,-0.366,2141775
-0.003,0.36,0.925,-0.305,2141779
-0.003,0.36,0.925,-0.122,2141783
-0.003,0.36,0.925,-0.122,2141787
-0.003,0.361,0.926,-0.183,2141791
-0.003,0.361,0.926,-0.183,2141795
-0.004,0.362,0.926,-0.244,2141799
-0.004,0.362,0.926,-0.244,2141803
-0.004,0.362,0.926,-0.244,2141807
-0.003,0.36,0.926,-0.183,2141811
-0.003,0.36,0.926,-0.183,2141815
-0.004,0.36,0.927,-0.122,2141819
-0.004,0.36,0.927,-0.183,2141823
-0.004,0.36,0.927,-0.183,2141827
-0.003,0.362,0.925,-0.183,2141831
-0.003,0.362,0.925,-0.183,2141835
-0.002,0.361,0.925,-0.183,2141839
-0.002,0.361,0.925,-0.122,2141843
-0.002,0.361,0.925,-0.122,2141847
0.0,0.362,0.924,-0.061,2141851
0.0,0.362,0.924,-0.122,2141855
-0.0,0.362,0.925,-0.244,2141859
-0.0,0.362,0.925,-0.305,2141863
-0.0,0.362,0.925,-0.305,2141867
-0.002,0.361,0.926,-0.183,2141870
-0.002,0.361,0.926,-0.061,2141874
-0.001,0.36,0.927,-0.183,2141878
-0.001,0.36,0.927,-0.244,2141882
-0.001,0.36,0.927,-0.244,2141886
-0.0,0.362,0.927,-0.244,2141890
-0.0,0.362,0.927,-0.244,2141894
0.0,0.361,0.928,-0.244,2141898
0.0,0.361,0.928,-0.305,2141902
0.0,0.361,0.928,-0.305,2141906
0.001,0.362,0.927,-0.183,2141910
0.001,0.362,0.927,-0.244,2141914
-0.0,0.362,0.927,-0.244,2141918
-0.0,0.362,0.927,-0.183,2141922
-0.0,0.362,0.927,-0.183,2141926
-0.0,0.361,0.924,-0.244,2141930
-0.0,0.361,0.924,-0.183,2141934
-0.0,0.361,0.924,-0.183,2141938
-0.0,0.361,0.924,-0.183,2141942
-0.0,0.361,0.924,-0.183,2141946
-0.001,0.361,0.926,-0.366,2141950
-0.001,0.361,0.926,-0.366,2141954
-0.002,0.362,0.927,-0.061,2141958
-0.002,0.362,0.927,-0.183,2141962
-0.002,0.362,0.927,-0.183,2141966
-0.003,0.361,0.926,-0.366,2141970
-0.003,0.361,0.926,-0.366,2141974
-0.002,0.363,0.927,-0.183,2141978
-0.002,0.363,0.927,-0.122,2141982
-0.002,0.363,0.927,-0.122,2141986
-0.002,0.36,0.926,-0.244,2141990
-0.002,0.36,0.926,-0.244,2141994
-0.003,0.36,0.927,-0.122,2141998
-0.003,0.36,0.927,-0.061,2142001
-0.003,0.36,0.927,-0.061,2142005
-0.004,0.36,0.927,-0.305,2142009
-0.004,0.36,0.927,-0.183,2142013
-0.003,0.361,0.927,-0.183,2142017
-0.003,0.361,0.927,-0.183,2142021
-0.003,0.361,0.927,-0.183,2142025
-0.001,0.361,0.927,-0.183,2142029
-0.001,0.361,0.927,-0.244,2142033
-0.004,0.361,0.925,-0.244,2142037
-0.004,0.361,0.925,-0.244,2142041
-0.004,0.361,0.925,-0.244,2142045
-0.004,0.361,0.926,-0.366,2142049
-0.004,0.361,0.926,-0.244,2142053
-0.003,0.361,0.926,-0.183,2142057
-0.003,0.361,0.926,-0.183,2142061
-0.003,0.361,0.926,-0.183,2142065
-0.003,0.361,0.924,-0.183,2142069
-0.003,0.361,0.924,-0.122,2142073
-0.003,0.361,0.924,-0.244,2142077
-0.003,0.361,0.924,-0.305,2142081
-0.003,0.361,0.924,-0.305,2142085
-0.002,0.362,0.926,-0.061,2142089
-0.002,0.362,0.926,-0.183,2142093
-0.002,0.361,0.927,-0.244,2142097
-0.002,0.361,0.927,-0.122,2142101
-0.002,0.361,0.927,-0.122,2142105
-0.001,0.361,0.927,-0.122,2142109
-0.001,0.361,0.927,-0.061,2142113
-0.002,0.36,0.926,-0.244,2142117
-0.002,0.36,0.926,-0.244,2142121
-0.002,0.36,0.926,-0.244,2142125
-0.001,0.361,0.926,-0.244,2142129
-0.001,0.361,0.926,-0.244,2142133
-0.001,0.361,0.925,-0.183,2142137
-0.001,0.361,0.925,-0.244,2142141
-0.001,0.361,0.925,-0.244,2142145
-0.0,0.362,0.927,-0.244,2142148
-0.0,0.362,0.927,-0.122,2142152
-0.001,0.36,0.925,-0.244,2142156
-0.001,0.36,0.925,-0.244,2142160
-0.001,0.36,0.925,-0.244,2142164
-0.001,0.36,0.925,-0.244,2142168
-0.001,0.36,0.925,-0.244,2142172
-0.001,0.362,0.927,-0.183,2142176
-0.001,0.362,0.927,-0.366,2142180
-0.001,0.362,0.927,-0.366,2142184
-0.001,0.36,0.927,-0.244,2142188
-0.001,0.36,0.927,-0.183,2142192
-0.001,0.36,0.926,-0.305,2142196
-0.001,0.36,0.926,-0.244,2142200
-0.001,0.36,0.926,-0.244,2142204
-0.003,0.362,0.925,-0.305,2142208
-0.003,0.362,0.925,-0.244,2142212
-0.003,0.362,0.925,0.0,2142216
-0.003,0.362,0.925,-0.122,2142220
-0.003,0.362,0.925,-0.122,2142224
-0.003,0.36,0.926,-0.244,2142228
-0.003,0.36,0.926,-0.244,2142232
-0.003,0.361,0.926,-0.122,2142236
-0.003,0.361,0.926,-0.244,2142240
-0.003,0.361,0.926,-0.244,2142244
-0.004,0.362,0.926,-0.244,2142248
-0.004,0.362,0.926,-0.183,2142252
-0.003,0.362,0.926,-0.244,2142256
-0.003,0.362,0.926,-0.244,2142260
-0.003,0.362,0.926,-0.244,2142264
-0.004,0.362,0.925,-0.244,2142268
-0.004,0.362,0.925,-0.305,2142272
-0.004,0.361,0.926,-0.061,2142276
-0.004,0.361,0.926,-0.183,2142280
-0.004,0.361,0.926,-0.183,2142284
-0.004,0.362,0.927,-0.183,2142288
-0.004,0.362,0.927,-0.183,2142291
-0.004,0.362,0.927,-0.244,2142295
-0.004,0.362,0.927,-0.244,2142299
-0.004,0.362,0.927,-0.244,2142303
-0.003,0.361,0.926,-0.122,2142307
-0.003,0.361,0.926,-0.183,2142311
-0.001,0.361,0.927,-0.244,2142315
-0.001,0.361,0.927,-0.122,2142319
-0.001,0.361,0.927,-0.122,2142323
-0.001,0.36,0.927,-0.244,2142327
-0.001,0.36,0.927,-0.244,2142331
-0.002,0.361,0.925,-0.244,2142335
-0.002,0.361,0.925,-0.183,2142339
-0.002,0.361,0.925,-0.183,2142343
-0.0,0.36,0.926,-0.244,2142347
-0.0,0.36,0.926,-0.183,2142351
-0.001,0.36,0.926,-0.183,2142355
-0.001,0.36,0.926,-0.122,2142359
-0.001,0.36,0.926,-0.122,2142363
-0.001,0.359,0.924,-0.183,2142367
-0.001,0.359,0.924,-0.183,2142371
-0.002,0.361,0.925,-0.244,2142375
-0.002,0.361,0.925,-0.244,2142379
-0.002,0.361,0.926,-0.244,2142383
-0.002,0.361,0.926,-0.244,2142387
-0.002,0.361,0.926,-0.244,2142391
-0.001,0.362,0.927,-0.122,2142395
-0.001,0.362,0.927,-0.183,2142399
-0.002,0.361,0.926,-0.122,2142403
-0.002,0.361,0.926,-0.122,2142407
-0.002,0.361,0.926,-0.183,2142411
-0.001,0.362,0.925,-0.244,2142415
-0.001,0.362,0.925,-0.183,2142419
-0.001,0.362,0.927,-0.122,2142423
-0.001,0.362,0.927,-0.122,2142427
-0.001,0.362,0.927,-0.183,2142431
-0.003,0.361,0.926,-0.305,2142434
-0.003,0.361,0.926,-0.183,2142438
-0.002,0.36,0.926,-0.122,2142442
-0.002,0.36,0.926,-0.122,2142446
-0.002,0.36,0.926,-0.122,2142450
-0.002,0.361,0.926,-0.244,2142454
-0.002,0.361,0.926,-0.244,2142458
-0.002,0.361,0.925,-0.122,2142462
-0.002,0.361,0.925,-0.122,2142466
-0.002,0.361,0.925,-0.183,2142470
-0.002,0.361,0.926,-0.244,2142474
-0.002,0.361,0.926,-0.244,2142478
-0.003,0.361,0.927,-0.305,2142482
-0.003,0.361,0.927,-0.305,2142486
-0.003,0.361,0.927,-0.183,2142490
-0.002,0.362,0.927,-0.244,2142494
-0.002,0.362,0.927,-0.305,2142498
-0.002,0.361,0.924,-0.244,2142502
-0.002,0.361,0.924,-0.244,2142506
-0.002,0.361,0.924,-0.183,2142510
-0.004,0.361,0.924,-0.183,2142514
-0.004,0.361,0.924,-0.122,2142518
-0.005,0.361,0.926,-0.183,2142522
-0.005,0.361,0.926,-0.183,2142526
-0.005,0.361,0.926,-0.305,2142530
-0.003,0.361,0.925,-0.366,2142534
-0.003,0.361,0.925,-0.244,2142538
-0.003,0.36,0.926,-0.183,2142542
-0.003,0.36,0.926,-0.183,2142546
-0.003,0.36,0.926,-0.183,2142550
-0.001,0.36,0.927,-0.183,2142554
-0.001,0.36,0.927,-0.305,2142558
-0.002,0.36,0.925,-0.183,2142562
-0.002,0.36,0.925,-0.183,2142566
-0.002,0.36,0.925,-0.183,2142570
-0.004,0.361,0.927,-0.183,2142574
-0.004,0.361,0.927,-0.061,2142578
-0.0,0.361,0.927,-0.183,2142582
-0.0,0.361,0.927,-0.183,2142586
-0.0,0.361,0.927,-0.305,2142590
-0.001,0.362,0.925,-0.122,2142593
-0.001,0.362,0.925,-0.244,2142597
-0.002,0.361,0.925,-0.122,2142601
-0.002,0.361,0.925,-0.122,2142605
-0.002,0.361,0.925,-0.122,2142609
-0.001,0.361,0.927,-0.183,2142613
-0.001,0.361,0.927,-0.122,2142617
-0.001,0.362,0.925,-0.061,2142621
-0.001,0.362,0.925,-0.061,2142625
-0.001,0.362,0.925,-0.183,2142629
-0.002,0.361,0.927,-0.183,2142633
-0.002,0.361,0.927,-0.244,2142637
-0.001,0.361,0.927,-0.183,2142641
-0.001,0.361,0.927,-0.183,2142645
-0.001,0.361,0.927,-0.122,2142649
-0.002,0.363,0.928,-0.244,2142653
-0.002,0.363,0.928,-0.244,2142657
-0.001,0.363,0.925,-0.183,2142661
-0.001,0.363,0.925,-0.183,2142665
-0.001,0.363,0.925,-0.305,2142669
0.0,0.361,0.927,-0.061,2142673
0.0,0.361,0.927,0.061,2142677
-0.0,0.362,0.927,-0.061,2142681
-0.0,0.362,0.927,-0.061,2142685
-0.0,0.362,0.927,-0.244,2142689
-0.004,0.36,0.925,-0.244,2142693
-0.004,0.36,0.925,-0.183,2142697
-0.003,0.361,0.924,-0.183,2142701
-0.003,0.361,0.924,-0.183,2142705
-0.003,0.361,0.924,-0.122,2142709
-0.002,0.363,0.927,-0.183,2142713
-0.002,0.363,0.927,-0.183,2142717
-0.001,0.363,0.929,0.0,2142721
-0.001,0.363,0.929,0.0,2142724
-0.001,0.363,0.929,-0.122,2142728
-0.002,0.362,0.926,-0.183,2142732
-0.002,0.362,0.926,-0.305,2142736
-0.002,0.361,0.922,-0.305,2142740
-0.002,0.361,0.922,-0.305,2142744
-0.002,0.361,0.922,-0.183,2142748
-0.003,0.362,0.927,-0.183,2142752
-0.003,0.362,0.927,-0.305,2142756
-0.004,0.361,0.929,-0.244,2142760
-0.004,0.361,0.929,-0.244,2142764
-0.004,0.361,0.929,-0.183,2142768
-0.002,0.361,0.925,-0.061,2142772
-0.002,0.361,0.925,-0.122,2142776
-0.002,0.362,0.926,-0.183,2142780
-0.002,0.362,0.926,-0.183,2142784
-0.002,0.362,0.926,-0.183,2142788
-0.002,0.363,0.925,-0.122,2142792
-0.002,0.363,0.925,-0.183,2142796
-0.005,0.363,0.927,-0.183,2142800
-0.005,0.363,0.927,-0.183,2142804
-0.005,0.363,0.927,-0.122,2142808
-0.004,0.361,0.926,-0.122,2142812
-0.004,0.361,0.926,-0.122,2142816
-0.003,0.36,0.924,-0.244,2142820
-0.003,0.36,0.924,-0.244,2142824
-0.003,0.36,0.924,-0.305,2142828
-0.001,0.362,0.924,-0.122,2142832
-0.001,0.362,0.924,-0.183,2142836
-0.002,0.361,0.927,-0.366,2142840
-0.002,0.361,0.927,-0.366,2142844
-0.002,0.361,0.927,-0.366,2142848
0.0,0.361,0.926,-0.183,2142852
0.0,0.361,0.926,-0.183,2142855
-0.0,0.361,0.927,-0.244,2142859
-0.0,0.361,0.927,-0.244,2142863
-0.0,0.361,0.927,-0.244,2142867
-0.001,0.362,0.926,-0.244,2142871
-0.001,0.362,0.926,-0.244,2142875
0.0,0.361,0.925,-0.244,2142879
0.0,0.361,0.925,-0.244,2142883
0.0,0.361,0.925,-0.244,2142887
-0.002,0.361,0.926,-0.244,2142891
-0.002,0.361,0.926,-0.122,2142895
-0.001,0.361,0.928,-0.244,2142899
-0.001,0.361,0.928,-0.244,2142903
-0.001,0.361,0.928,-0.183,2142907
-0.001,0.361,0.926,-0.183,2142911
-0.001,0.361,0.926,-0.122,2142915
-0.002,0.361,0.924,-0.244,2142919
-0.002,0.361,0.924,-0.244,2142923
-0.002,0.361,0.924,-0.244,2142927
-0.001,0.361,0.926,-0.122,2142931
-0.001,0.361,0.926,-0.183,2142935
-0.001,0.361,0.925,-0.305,2142939
-0.001,0.361,0.925,-0.305,2142943
-0.001,0.361,0.925,-0.183,2142947
-0.002,0.36,0.927,-0.183,2142951
-0.002,0.36,0.927,-0.244,2142955
-0.003,0.361,0.927,-0.244,2142959
-0.003,0.361,0.927,-0.244,2142963
-0.003,0.361,0.927,-0.183,2142967
-0.004,0.362,0.927,-0.183,2142971
-0.004,0.362,0.927,-0.305,2142975
-0.003,0.361,0.926,-0.183,2142979
-0.003,0.361,0.926,-0.183,2142983
-0.003,0.361,0.926,-0.122,2142987
-0.003,0.36,0.925,-0.122,2142991
-0.003,0.36,0.925,-0.122,2142995
-0.003,0.362,0.924,-0.183,2142999
-0.003,0.362,0.924,-0.183,2143003
-0.003,0.362,0.924,-0.305,2143007
-0.003,0.361,0.927,-0.366,2143010
-0.003,0.361,0.927,-0.122,2143014
-0.003,0.36,0.927,-0.122,2143018
-0.003,0.36,0.927,-0.122,2143022
-0.003,0.36,0.927,-0.244,2143026
-0.003,0.36,0.925,-0.244,2143030
-0.003,0.36,0.925,-0.122,2143034
-0.003,0.36,0.926,-0.183,2143038
-0.003,0.36,0.926,-0.183,2143042
-0.003,0.36,0.926,-0.244,2143046
-0.003,0.361,0.926,-0.183,2143050
-0.003,0.361,0.926,-0.183,2143054
-0.002,0.36,0.924,-0.244,2143058
-0.002,0.36,0.924,-0.244,2143062
-0.002,0.36,0.924,-0.122,2143066
-0.003,0.361,0.925,-0.122,2143070
-0.003,0.361,0.925,-0.183,2143074
-0.004,0.361,0.926,-0.183,2143078
-0.004,0.361,0.926,-0.183,2143082
-0.004,0.361,0.926,-0.122,2143086
-0.003,0.36,0.927,-0.244,2143090
-0.003,0.36,0.927,-0.122,2143094
-0.004,0.361,0.924,-0.122,2143098
-0.004,0.361,0.924,-0.122,2143102
-0.004,0.361,0.924,-0.122,2143106
-0.002,0.361,0.926,-0.244,2143110
-0.002,0.361,0.926,-0.244,2143114
-0.002,0.362,0.925,-0.183,2143118
-0.002,0.362,0.925,-0.183,2143122
-0.002,0.362,0.925,-0.305,2143126
-0.002,0.363,0.927,-0.122,2143130
-0.002,0.363,0.927,-0.122,2143134
-0.002,0.361,0.927,-0.244,2143138
-0.002,0.361,0.927,-0.244,2143142
-0.002,0.361,0.927,-0.244,2143146
-0.003,0.36,0.928,-0.183,2143150
-0.003,0.36,0.928,-0.244,2143154
-0.002,0.361,0.926,-0.122,2143158
-0.002,0.361,0.926,-0.122,2143162
-0.002,0.361,0.926,-0.244,2143165
-0.001,0.362,0.926,-0.305,2143169
-0.001,0.362,0.926,-0.305,2143173
0.001,0.361,0.927,-0.305,2143177
0.001,0.361,0.927,-0.305,2143181
0.001,0.361,0.927,-0.244,2143185
-0.001,0.36,0.926,-0.366,2143189
-0.001,0.36,0.926,-0.305,2143193
-0.003,0.361,0.927,-0.183,2143197
-0.003,0.361,0.927,-0.183,2143201
-0.003,0.361,0.927,-0.244,2143205
-0.003,0.362,0.924,-0.183,2143209
-0.003,0.362,0.924,-0.183,2143213
-0.002,0.362,0.925,-0.122,2143217
-0.002,0.362,0.925,-0.183,2143221
-0.002,0.362,0.925,-0.183,2143225
-0.001,0.362,0.926,-0.244,2143229
-0.001,0.362,0.926,-0.244,2143233
-0.003,0.36,0.926,-0.183,2143237
-0.003,0.36,0.926,-0.244,2143241
-0.003,0.36,0.926,-0.244,2143245
-0.004,0.361,0.926,-0.305,2143249
-0.004,0.361,0.926,-0.183,2143253
-0.003,0.361,0.927,-0.061,2143257
-0.003,0.361,0.927,-0.244,2143261
-0.003,0.361,0.927,-0.244,2143265
-0.005,0.361,0.924,-0.183,2143269
-0.005,0.361,0.924,-0.244,2143273
-0.002,0.361,0.924,-0.244,2143277
-0.002,0.361,0.924,-0.305,2143281
-0.002,0.361,0.924,-0.305,2143285
-0.002,0.361,0.925,-0.244,2143289
-0.002,0.361,0.925,-0.183,2143293
-0.004,0.361,0.927,-0.183,2143297
-0.004,0.361,0.927,-0.122,2143301
-0.004,0.361,0.927,-0.122,2143305
-0.003,0.362,0.927,-0.122,2143309
-0.003,0.362,0.927,-0.183,2143313
-0.002,0.362,0.926,-0.244,2143317
-0.002,0.362,0.926,-0.183,2143321
-0.002,0.362,0.926,-0.183,2143325
-0.003,0.361,0.926,-0.061,2143329
-0.003,0.361,0.926,-0.122,2143332
-0.004,0.362,0.925,-0.122,2143336
-0.004,0.362,0.925,-0.122,2143340
-0.004,0.362,0.925,-0.122,2143344
-0.001,0.36,0.927,-0.427,2143348
-0.001,0.36,0.927,-0.366,2143352
-0.001,0.361,0.925,-0.122,2143356
-0.001,0.361,0.925,-0.183,2143360
-0.001,0.361,0.925,-0.183,2143364
-0.002,0.362,0.924,-0.244,2143368
-0.002,0.362,0.924,-0.366,2143372
-0.001,0.361,0.926,-0.244,2143376
-0.001,0.361,0.926,-0.183,2143380
-0.001,0.361,0.926,-0.183,2143384
-0.002,0.361,0.927,-0.244,2143388
-0.002,0.361,0.927,-0.244,2143392
-0.002,0.36,0.927,-0.183,2143396
-0.002,0.36,0.927,-0.244,2143400
-0.002,0.36,0.927,-0.244,2143404
-0.001,0.361,0.927,-0.244,2143408
-0.001,0.361,0.927,-0.244,2143412
0.0,0.362,0.928,-0.122,2143416
0.0,0.362,0.928,-0.061,2143420
0.0,0.362,0.928,-0.061,2143424
-0.002,0.364,0.929,-0.183,2143428
-0.002,0.364,0.929,-0.244,2143432
-0.0,0.363,0.926,-0.183,2143436
-0.0,0.363,0.926,-0.183,2143440
-0.0,0.363,0.926,-0.183,2143444
-0.001,0.362,0.926,-0.366,2143448
-0.001,0.362,0.926,-0.366,2143452
-0.001,0.361,0.924,-0.244,2143456
-0.001,0.361,0.924,-0.122,2143460
-0.001,0.361,0.924,-0.122,2143464
-0.001,0.361,0.925,-0.244,2143468
-0.001,0.361,0.925,-0.305,2143472
-0.002,0.361,0.927,-0.305,2143476
-0.002,0.361,0.927,-0.244,2143480
-0.002,0.361,0.927,-0.244,2143484
-0.002,0.359,0.925,-0.061,2143488
-0.002,0.359,0.925,-0.183,2143492
-0.001,0.361,0.926,-0.122,2143496
-0.001,0.361,0.926,-0.122,2143499
-0.001,0.361,0.926,-0.122,2143503
-0.002,0.36,0.926,-0.183,2143507
-0.002,0.36,0.926,-0.122,2143511
-0.003,0.36,0.928,-0.183,2143515
-0.003,0.36,0.928,-0.061,2143519
-0.003,0.36,0.928,-0.061,2143523
-0.005,0.361,0.927,-0.183,2143527
-0.005,0.361,0.927,-0.183,2143531
-0.004,0.361,0.926,-0.244,2143535
-0.004,0.361,0.926,-0.244,2143539
-0.004,0.361,0.926,-0.244,2143543
-0.004,0.362,0.924,-0.183,2143547
-0.004,0.362,0.924,-0.305,2143551
-0.002,0.362,0.924,-0.183,2143555
-0.002,0.362,0.924,-0.061,2143559
-0.002,0.362,0.924,-0.061,2143563
-0.002,0.36,0.924,-0.183,2143567
-0.002,0.36,0.924,-0.366,2143571
-0.004,0.361,0.925,-0.244,2143575
-0.004,0.361,0.925,-0.244,2143579
-0.004,0.361,0.925,-0.244,2143583
-0.003,0.361,0.924,-0.061,2143587
-0.003,0.361,0.924,0.0,2143591
-0.003,0.36,0.924,-0.183,2143595
-0.003,0.36,0.924,-0.244,2143599
-0.003,0.36,0.924,-0.244,2143603
-0.001,0.361,0.927,-0.244,2143607
-0.001,0.361,0.927,-0.061,2143611
-0.003,0.36,0.928,-0.183,2143615
-0.003,0.36,0.928,-0.244,2143619
-0.003,0.36,0.928,-0.244,2143623
-0.003,0.36,0.928,-0.244,2143627
-0.003,0.36,0.928,-0.183,2143631
-0.002,0.361,0.925,-0.183,2143635
-0.002,0.361,0.925,-0.122,2143639
-0.002,0.361,0.925,-0.122,2143643
-0.002,0.361,0.925,-0.305,2143646
-0.002,0.361,0.925,-0.244,2143650
-0.001,0.362,0.927,-0.183,2143654
-0.001,0.362,0.927,-0.305,2143658
-0.001,0.362,0.927,-0.305,2143662
-0.001,0.362,0.927,-0.244,2143666
-0.001,0.362,0.927,-0.244,2143670
-0.001,0.359,0.926,-0.183,2143674
-0.001,0.359,0.926,-0.183,2143678
-0.001,0.359,0.926,-0.183,2143682
-0.0,0.36,0.927,-0.244,2143686
-0.0,0.36,0.927,-0.183,2143690
0.0,0.361,0.925,-0.244,2143694
0.0,0.361,0.925,-0.244,2143698
0.0,0.361,0.925,-0.244,2143702
-0.001,0.361,0.926,-0.183,2143706
-0.001,0.361,0.926,-0.122,2143710
-0.0,0.362,0.928,-0.061,2143714
-0.0,0.362,0.928,-0.244,2143718
-0.0,0.362,0.928,-0.244,2143722
-0.003,0.362,0.927,-0.183,2143726
-0.003,0.362,0.927,-0.244,2143730
-0.003,0.362,0.926,-0.244,2143734
-0.003,0.362,0.926,-0.183,2143738
-0.003,0.362,0.926,-0.183,2143742
-0.005,0.362,0.926,-0.122,2143746
-0.005,0.362,0.926,-0.183,2143750
-0.003,0.361,0.926,-0.244,2143754
-0.003,0.361,0.926,-0.305,2143758
-0.003,0.361,0.926,-0.305,2143762
-0.003,0.361,0.925,-0.183,2143766
-0.003,0.361,0.925,-0.244,2143770
-0.003,0.36,0.925,-0.305,2143774
-0.003,0.36,0.925,-0.305,2143777
-0.003,0.36,0.925,-0.305,2143781
-0.002,0.36,0.926,-0.305,2143785
-0.002,0.36,0.926,-0.122,2143789
-0.002,0.359,0.926,0.0,2143793
-0.002,0.359,0.926,-0.061,2143797
-0.002,0.359,0.926,-0.061,2143801
-0.003,0.361,0.926,-0.183,2143805
-0.003,0.361,0.926,-0.183,2143809
-0.002,0.362,0.927,-0.122,2143813
-0.002,0.362,0.927,-0.183,2143817
-0.002,0.362,0.927,-0.183,2143821
-0.003,0.361,0.927,-0.244,2143825
-0.003,0.361,0.927,-0.244,2143829
-0.002,0.359,0.925,-0.122,2143833
-0.002,0.359,0.925,-0.183,2143837
-0.002,0.359,0.925,-0.183,2143841
-0.001,0.361,0.925,-0.244,2143845
-0.001,0.361,0.925,-0.244,2143849
-0.002,0.362,0.926,-0.183,2143853
-0.002,0.362,0.926,-0.122,2143857
-0.002,0.362,0.926,-0.122,2143861
-0.003,0.361,0.926,-0.183,2143865
-0.003,0.361,0.926,-0.183,2143869
-0.0,0.361,0.926,-0.122,2143873
-0.0,0.361,0.926,-0.183,2143877
-0.0,0.361,0.926,-0.183,2143881
-0.001,0.361,0.928,-0.122,2143885
-0.001,0.361,0.928,-0.305,2143889
-0.001,0.361,0.926,-0.305,2143893
-0.001,0.361,0.926,-0.061,2143897
-0.001,0.361,0.926,-0.061,2143901
-0.0,0.361,0.927,-0.122,2143905
-0.0,0.361,0.927,-0.122,2143909
-0.001,0.363,0.927,-0.061,2143913
-0.001,0.363,0.927,-0.183,2143917
-0.001,0.363,0.927,-0.183,2143921
-0.002,0.362,0.925,-0.061,2143924
-0.002,0.362,0.925,-0.122,2143928
-0.003,0.362,0.926,-0.061,2143932
-0.003,0.362,0.926,-0.183,2143936
-0.003,0.361,0.926,-0.305,2143940
-0.003,0.361,0.926,-0.305,2143944
-0.003,0.361,0.926,-0.122,2143948
-0.002,0.36,0.925,-0.183,2143952
-0.002,0.36,0.925,-0.183,2143956
-0.002,0.36,0.927,-0.122,2143960
-0.002,0.36,0.927,-0.122,2143964
-0.002,0.36,0.927,-0.183,2143968
-0.001,0.362,0.926,-0.244,2143972
-0.001,0.362,0.926,-0.305,2143976
-0.0,0.361,0.926,-0.061,2143980
-0.0,0.361,0.926,-0.061,2143984
-0.0,0.361,0.926,-0.244,2143988
-0.002,0.36,0.927,-0.305,2143992
-0.002,0.36,0.927,-0.183,2143996
-0.003,0.36,0.928,-0.122,2144000
-0.003,0.36,0.928,-0.122,2144004
-0.003,0.36,0.928,-0.183,2144008
-0.002,0.361,0.926,-0.183,2144012
-0.002,0.361,0.926,-0.183,2144016
-0.003,0.361,0.926,-0.122,2144020
-0.003,0.361,0.926,-0.122,2144024
-0.003,0.361,0.926,-0.183,2144028
-0.004,0.362,0.926,-0.122,2144032
-0.004,0.362,0.926,-0.061,2144036
-0.004,0.361,0.925,-0.122,2144040
-0.004,0.361,0.925,-0.122,2144044
-0.004,0.361,0.925,-0.183,2144048
-0.004,0.359,0.925,-0.183,2144052
-0.004,0.359,0.925,-0.427,2144056
-0.004,0.36,0.925,-0.305,2144060
-0.004,0.36,0.925,-0.305,2144064
-0.004,0.36,0.925,-0.183,2144068
-0.003,0.36,0.925,-0.244,2144072
-0.003,0.36,0.925,-0.183,2144076
-0.001,0.36,0.927,-0.122,2144080
-0.001,0.36,0.927,-0.122,2144083
-0.001,0.36,0.927,-0.244,2144087
-0.002,0.361,0.927,-0.183,2144091
-0.002,0.361,0.927,-0.183,2144095
-0.003,0.363,0.926,-0.122,2144099
-0.003,0.363,0.926,-0.122,2144103
-0.003,0.363,0.926,-0.183,2144107
-0.002,0.362,0.927,-0.305,2144111
-0.002,0.362,0.927,-0.183,2144115
-0.001,0.361,0.925,-0.122,2144119
-0.001,0.361,0.925,-0.122,2144123
-0.001,0.361,0.925,-0.183,2144127
-0.002,0.363,0.924,-0.244,2144131
-0.002,0.363,0.924,0.0,2144135
-0.004,0.36,0.927,-0.183,2144139
-0.004,0.36,0.927,-0.183,2144143
-0.004,0.36,0.927,-0.305,2144147
-0.002,0.362,0.925,-0.183,2144151
-0.002,0.362,0.925,-0.305,2144155
0.001,0.361,0.925,-0.366,2144159
0.001,0.361,0.925,-0.366,2144163
0.001,0.361,0.925,-0.244,2144167
0.001,0.362,0.928,-0.183,2144171
0.001,0.362,0.928,-0.183,2144175
-0.002,0.36,0.928,-0.183,2144179
-0.002,0.36,0.928,-0.183,2144183
-0.002,0.36,0.928,-0.244,2144187
-0.001,0.361,0.929,-0.122,2144191
-0.001,0.361,0.929,-0.122,2144195
-0.0,0.36,0.926,-0.183,2144199
-0.0,0.36,0.926,-0.183,2144203
-0.0,0.36,0.926,-0.122,2144207
-0.001,0.361,0.925,-0.122,2144211
-0.001,0.361,0.925,-0.183,2144215
-0.0,0.36,0.926,-0.305,2144219
-0.0,0.36,0.926,-0.305,2144223
-0.0,0.36,0.926,-0.061,2144227
-0.001,0.362,0.925,-0.244,2144231
-0.001,0.362,0.925,-0.366,2144234
-0.003,0.365,0.925,-0.244,2144238
-0.003,0.365,0.925,-0.244,2144242
-0.003,0.365,0.925,-0.183,2144246
-0.003,0.361,0.926,-0.122,2144250
-0.003,0.361,0.926,-0.183,2144254
-0.0,0.361,0.927,-0.183,2144258
-0.0,0.361,0.927,-0.183,2144262
-0.0,0.361,0.927,-0.183,2144266
-0.002,0.36,0.926,-0.061,2144270
-0.002,0.36,0.926,-0.183,2144274
-0.004,0.359,0.926,-0.244,2144278
-0.004,0.359,0.926,-0.244,2144282
-0.004,0.359,0.926,-0.244,2144286
-0.004,0.358,0.926,-0.183,2144290
-0.004,0.358,0.926,-0.122,2144294
-0.002,0.359,0.925,-0.183,2144298
-0.002,0.359,0.925,-0.183,2144302
-0.002,0.359,0.925,-0.122,2144306
-0.003,0.362,0.925,-0.061,2144310
-0.003,0.362,0.925,-0.244,2144314
-0.004,0.362,0.925,-0.183,2144318
-0.004,0.362,0.925,-0.183,2144322
-0.004,0.362,0.925,-0.244,2144326
-0.003,0.362,0.926,-0.244,2144330
-0.003,0.362,0.926,-0.122,2144334
-0.003,0.361,0.925,-0.305,2144338
-0.003,0.361,0.925,-0.305,2144342
-0.003,0.361,0.925,-0.183,2144346
-0.002,0.36,0.926,-0.183,2144350
-0.002,0.36,0.926,-0.122,2144354
-0.002,0.361,0.925,-0.122,2144358
-0.002,0.361,0.925,-0.122,2144362
-0.002,0.361,0.925,-0.183,2144366
-0.002,0.361,0.926,-0.244,2144370
-0.002,0.361,0.926,-0.183,2144374
-0.001,0.36,0.927,-0.183,2144378
-0.001,0.36,0.927,-0.183,2144382
-0.001,0.36,0.927,-0.305,2144386
-0.001,0.361,0.926,-0.305,2144390
-0.001,0.361,0.926,-0.183,2144394
-0.001,0.361,0.925,-0.183,2144397
-0.001,0.361,0.925,-0.183,2144401
-0.001,0.361,0.925,-0.244,2144405
0.001,0.362,0.926,-0.244,2144409
0.001,0.362,0.926,-0.061,2144413
-0.001,0.364,0.926,-0.244,2144417
-0.001,0.364,0.926,-0.244,2144421
-0.001,0.364,0.926,-0.244,2144425
-0.002,0.362,0.928,-0.183,2144429
-0.002,0.362,0.928,-0.244,2144433
-0.0,0.363,0.926,-0.122,2144437
-0.0,0.363,0.926,-0.122,2144441
-0.0,0.363,0.926,-0.183,2144445
0.001,0.363,0.926,-0.305,2144449
0.001,0.363,0.926,-0.244,2144453
-0.001,0.361,0.927,-0.305,2144457
-0.001,0.361,0.927,-0.305,2144461
-0.001,0.361,0.927,-0.183,2144465
-0.002,0.36,0.926,-0.183,2144469
-0.002,0.36,0.926,-0.244,2144473
-0.003,0.36,0.926,-0.122,2144477
-0.003,0.36,0.926,-0.122,2144481
-0.003,0.36,0.926,-0.122,2144485
-0.001,0.361,0.926,-0.244,2144489
-0.001,0.361,0.926,-0.183,2144493
-0.002,0.362,0.925,-0.183,2144497
-0.002,0.362,0.925,-0.183,2144501
-0.002,0.362,0.925,-0.305,2144505
-0.002,0.364,0.927,-0.366,2144509
-0.002,0.364,0.927,-0.244,2144513
-0.005,0.361,0.927,-0.183,2144517
-0.005,0.361,0.927,-0.183,2144521
-0.005,0.361,0.927,-0.244,2144525
-0.004,0.361,0.923,-0.183,2144529
-0.004,0.361,0.923,-0.122,2144533
-0.004,0.362,0.926,-0.244,2144537
-0.004,0.362,0.926,-0.244,2144540
-0.004,0.362,0.926,-0.244,2144544
-0.003,0.362,0.927,-0.244,2144548
-0.003,0.362,0.927,-0.244,2144552
-0.002,0.361,0.926,-0.183,2144556
-0.002,0.361,0.926,-0.183,2144560
-0.002,0.361,0.926,-0.244,2144564
-0.003,0.359,0.926,-0.183,2144568
-0.003,0.359,0.926,-0.122,2144572
-0.002,0.361,0.926,-0.305,2144576
-0.002,0.361,0.926,-0.305,2144580
-0.002,0.361,0.926,-0.366,2144584
-0.005,0.362,0.926,-0.122,2144588
-0.005,0.362,0.926,-0.183,2144592
-0.002,0.36,0.925,-0.427,2144596
-0.002,0.36,0.925,-0.366,2144600
-0.002,0.36,0.925,-0.366,2144604
-0.001,0.361,0.925,-0.183,2144608
-0.001,0.361,0.925,-0.183,2144612
-0.0,0.363,0.925,-0.183,2144616
-0.0,0.363,0.925,-0.244,2144620
-0.0,0.363,0.925,-0.244,2144624
-0.001,0.363,0.925,-0.305,2144628
-0.001,0.363,0.925,-0.244,2144632
-0.001,0.363,0.925,-0.305,2144636
-0.001,0.363,0.925,-0.183,2144640
-0.001,0.363,0.925,-0.183,2144644
-0.0,0.36,0.926,-0.061,2144648
-0.0,0.36,0.926,-0.122,2144652
-0.0,0.361,0.927,-0.305,2144656
-0.0,0.361,0.927,-0.183,2144660
-0.0,0.361,0.927,-0.183,2144664
-0.001,0.361,0.926,-0.183,2144668
-0.001,0.361,0.926,-0.305,2144672
-0.0,0.363,0.927,-0.305,2144676
-0.0,0.363,0.927,-0.244,2144680
-0.0,0.363,0.927,-0.244,2144684
0.0,0.362,0.927,-0.183,2144688
0.0,0.362,0.927,0.0,2144691
-0.002,0.361,0.925,-0.122,2144695
-0.002,0.361,0.925,-0.183,2144699
-0.002,0.361,0.925,-0.183,2144703
-0.003,0.362,0.925,-0.183,2144707
-0.003,0.362,0.925,-0.244,2144711
-0.003,0.362,0.925,-0.244,2144715
-0.003,0.362,0.925,-0.244,2144719
-0.003,0.362,0.925,-0.244,2144723
-0.001,0.362,0.926,-0.122,2144727
-0.001,0.362,0.926,-0.061,2144731
-0.002,0.361,0.925,-0.183,2144735
-0.002,0.361,0.925,-0.244,2144739
-0.002,0.361,0.925,-0.244,2144743
-0.003,0.36,0.925,-0.305,2144747
-0.003,0.36,0.925,-0.183,2144751
-0.004,0.359,0.927,-0.183,2144755
-0.004,0.359,0.927,-0.122,2144759
-0.004,0.359,0.927,-0.122,2144763
-0.003,0.361,0.927,-0.305,2144767
-0.003,0.361,0.927,-0.305,2144771
-0.002,0.36,0.927,-0.122,2144775
-0.002,0.36,0.927,-0.244,2144779
-0.002,0.36,0.927,-0.244,2144783
-0.003,0.361,0.925,-0.183,2144787
-0.003,0.361,0.925,-0.122,2144791
-0.002,0.361,0.924,-0.183,2144795
-0.002,0.361,0.924,-0.244,2144799
-0.002,0.361,0.924,-0.244,2144803
-0.002,0.361,0.925,-0.244,2144807
-0.002,0.361,0.925,-0.183,2144811
-0.002,0.362,0.925,-0.183,2144815
-0.002,0.362,0.925,-0.061,2144819
-0.002,0.362,0.925,-0.061,2144823
-0.003,0.361,0.926,-0.366,2144827
-0.003,0.361,0.926,-0.305,2144830
-0.003,0.36,0.926,-0.183,2144834
-0.003,0.36,0.926,-0.183,2144838
-0.003,0.36,0.926,-0.183,2144842
-0.002,0.36,0.926,-0.305,2144846
-0.002,0.36,0.926,-0.183,2144850
-0.002,0.36,0.925,-0.305,2144854
-0.002,0.36,0.925,-0.305,2144858
-0.002,0.36,0.925,-0.305,2144862
-0.0,0.361,0.925,-0.183,2144866
-0.0,0.361,0.925,-0.183,2144870
-0.001,0.362,0.925,-0.061,2144874
-0.001,0.362,0.925,-0.183,2144878
-0.001,0.362,0.925,-0.183,2144882
-0.001,0.36,0.925,-0.122,2144886
-0.001,0.36,0.925,-0.122,2144890
-0.003,0.36,0.926,-0.122,2144894
-0.003,0.36,0.926,-0.305,2144898
-0.003,0.36,0.926,-0.305,2144902
-0.002,0.361,0.925,-0.366,2144906
-0.002,0.361,0.925,-0.305,2144910
-0.001,0.362,0.926,-0.183,2144914
-0.001,0.362,0.926,-0.183,2144918
-0.001,0.362,0.926,-0.183,2144922
-0.002,0.361,0.926,-0.122,2144926
-0.002,0.361,0.926,-0.305,2144930
-0.001,0.362,0.926,-0.244,2144934
-0.001,0.362,0.926,-0.122,2144938
-0.001,0.362,0.926,-0.122,2144942
0.0,0.361,0.926,-0.122,2144946
0.0,0.361,0.926,-0.305,2144950
-0.001,0.36,0.925,-0.244,2144954
-0.001,0.36,0.925,-0.244,2144958
-0.001,0.36,0.925,-0.244,2144962
-0.002,0.361,0.925,-0.122,2144966
-0.002,0.361,0.925,-0.122,2144970
-0.002,0.361,0.926,-0.122,2144973
-0.002,0.361,0.926,-0.244,2144977
-0.002,0.361,0.926,-0.244,2144981
-0.003,0.361,0.925,-0.183,2144985
-0.003,0.361,0.925,-0.183,2144989
-0.002,0.362,0.925,-0.244,2144993
-0.002,0.362,0.925,-0.183,2144997
-0.002,0.362,0.925,-0.183,2145001
-0.003,0.361,0.927,-0.061,2145005
-0.003,0.361,0.927,-0.122,2145009
-0.002,0.361,0.927,-0.183,2145013
-0.002,0.361,0.927,-0.183,2145017
-0.002,0.361,0.927,-0.183,2145021
-0.003,0.361,0.925,-0.244,2145025
-0.003,0.361,0.925,-0.122,2145029
-0.003,0.361,0.926,-0.061,2145033
-0.003,0.361,0.926,-0.244,2145037
-0.003,0.361,0.926,-0.244,2145041
-0.003,0.362,0.927,-0.244,2145045
-0.003,0.362,0.927,-0.061,2145049
-0.003,0.361,0.929,-0.183,2145053
-0.003,0.361,0.929,-0.183,2145057
-0.003,0.361,0.929,-0.183,2145061
-0.004,0.361,0.927,-0.122,2145065
-0.004,0.361,0.927,-0.122,2145069
-0.003,0.361,0.924,-0.244,2145073
-0.003,0.361,0.924,-0.183,2145077
-0.003,0.361,0.924,-0.183,2145081
-0.002,0.362,0.924,-0.122,2145085
-0.002,0.362,0.924,-0.122,2145089
-0.003,0.363,0.927,-0.183,2145093
-0.003,0.363,0.927,-0.305,2145097
-0.003,0.363,0.927,-0.305,2145101
-0.003,0.362,0.925,-0.305,2145105
-0.003,0.362,0.925,-0.122,2145109
-0.002,0.363,0.927,-0.122,2145113
-0.002,0.363,0.927,-0.305,2145117
-0.002,0.363,0.927,-0.305,2145120
-0.001,0.361,0.927,-0.122,2145124
-0.001,0.361,0.927,-0.244,2145128
-0.001,0.361,0.927,-0.305,2145132
-0.001,0.361,0.927,-0.305,2145136
-0.001,0.361,0.927,-0.305,2145140
-0.0,0.36,0.926,-0.183,2145144
-0.0,0.36,0.926,-0.183,2145148
0.001,0.361,0.925,-0.183,2145152
0.001,0.361,0.925,-0.122,2145156
0.001,0.361,0.925,-0.122,2145160
-0.0,0.361,0.925,-0.244,2145164
-0.0,0.361,0.925,-0.183,2145168
-0.001,0.362,0.928,-0.183,2145172
-0.001,0.362,0.928,-0.122,2145176
-0.001,0.362,0.928,-0.122,2145180
-0.001,0.361,0.927,0.0,2145184
-0.001,0.361,0.927,-0.366,2145188
-0.001,0.361,0.926,-0.305,2145192
-0.001,0.361,0.926,0.0,2145196
-0.001,0.361,0.926,0.0,2145200
-0.003,0.363,0.926,-0.061,2145204
-0.003,0.363,0.926,-0.244,2145208
-0.002,0.361,0.927,-0.183,2145212
-0.002,0.361,0.927,-0.244,2145216
-0.002,0.361,0.927,-0.244,2145220
-0.003,0.361,0.927,-0.183,2145224
-0.003,0.361,0.927,-0.122,2145228
-0.001,0.361,0.924,-0.122,2145232
-0.001,0.361,0.924,-0.244,2145236
-0.001,0.361,0.924,-0.244,2145239
-0.003,0.361,0.926,-0.183,2145243
-0.003,0.361,0.926,-0.061,2145247
-0.002,0.361,0.925,-0.122,2145251
-0.002,0.361,0.925,-0.122,2145255
-0.002,0.361,0.925,-0.122,2145259
-0.002,0.36,0.924,-0.366,2145263
-0.002,0.36,0.924,-0.122,2145267
-0.003,0.36,0.926,-0.244,2145271
-0.003,0.36,0.926,-0.305,2145275
-0.003,0.36,0.926,-0.305,2145279
-0.005,0.36,0.927,-0.122,2145283
-0.005,0.36,0.927,-0.061,2145287
-0.005,0.361,0.927,-0.183,2145291
-0.005,0.361,0.927,-0.183,2145295
-0.005,0.361,0.927,-0.183,2145299
-0.003,0.362,0.927,-0.183,2145303
-0.003,0.362,0.927,-0.305,2145307
-0.002,0.361,0.924,-0.183,2145311
-0.002,0.361,0.924,-0.244,2145315
-0.002,0.361,0.924,-0.244,2145319
-0.001,0.361,0.924,-0.244,2145323
-0.001,0.361,0.924,-0.122,2145327
-0.002,0.361,0.923,-0.244,2145331
-0.002,0.361,0.923,-0.183,2145335
-0.002,0.361,0.923,-0.183,2145339
-0.004,0.36,0.926,-0.122,2145343
-0.004,0.36,0.926,-0.244,2145347
-0.002,0.36,0.928,-0.244,2145351
-0.002,0.36,0.928,-0.122,2145355
-0.002,0.36,0.928,-0.122,2145359
-0.0,0.362,0.929,-0.183,2145363
-0.0,0.362,0.929,-0.183,2145367
0.003,0.363,0.925,-0.183,2145371
0.003,0.363,0.925,-0.183,2145375
0.003,0.363,0.925,-0.183,2145379
0.001,0.361,0.924,-0.183,2145383
0.001,0.361,0.924,-0.305,2145387
-0.003,0.36,0.925,-0.122,2145391
-0.003,0.36,0.925,-0.061,2145395
-0.003,0.36,0.925,-0.061,2145398
-0.004,0.362,0.928,-0.122,2145402
-0.004,0.362,0.928,-0.183,2145406
-0.001,0.361,0.927,-0.183,2145410
-0.001,0.361,0.927,-0.244,2145414
-0.001,0.361,0.927,-0.244,2145418
0.001,0.361,0.923,-0.244,2145422
0.001,0.361,0.923,-0.305,2145426
0.001,0.362,0.923,-0.244,2145430
0.001,0.362,0.923,-0.122,2145434
0.001,0.362,0.923,-0.122,2145438
-0.001,0.362,0.927,-0.122,2145442
-0.001,0.362,0.927,-0.183,2145446
-0.003,0.362,0.93,-0.122,2145450
-0.003,0.362,0.93,-0.183,2145454
-0.003,0.362,0.93,-0.183,2145458
-0.003,0.361,0.927,-0.183,2145462
-0.003,0.361,0.927,-0.305,2145466
-0.001,0.361,0.923,-0.183,2145470
-0.001,0.361,0.923,-0.305,2145474
-0.001,0.361,0.923,-0.305,2145478
-0.001,0.361,0.923,-0.183,2145482
-0.001,0.361,0.923,-0.244,2145486
-0.002,0.363,0.927,-0.183,2145490
-0.002,0.363,0.927,-0.122,2145494
-0.002,0.363,0.927,-0.122,2145498
-0.005,0.362,0.929,-0.183,2145502
-0.005,0.362,0.929,-0.183,2145506
-0.006,0.362,0.927,-0.244,2145510
-0.006,0.362,0.927,-0.244,2145514
-0.006,0.362,0.927,-0.244,2145518
-0.004,0.361,0.925,-0.244,2145522
-0.004,0.361,0.925,-0.183,2145526
-0.002,0.359,0.924,-0.061,2145530
-0.002,0.359,0.924,-0.366,2145534
-0.002,0.359,0.924,-0.366,2145538
-0.001,0.36,0.927,-0.122,2145542
-0.001,0.36,0.927,-0.122,2145546
-0.003,0.361,0.927,-0.305,2145550
-0.003,0.361,0.927,-0.183,2145553
-0.002,0.361,0.927,-0.183,2145557
-0.002,0.361,0.927,-0.183,2145561
-0.002,0.361,0.927,-0.244,2145565
-0.001,0.361,0.927,-0.122,2145569
-0.001,0.361,0.927,-0.061,2145573
-0.003,0.361,0.927,-0.122,2145577
-0.003,0.361,0.927,-0.122,2145581
-0.003,0.361,0.927,-0.183,2145585
-0.0,0.361,0.927,-0.183,2145589
-0.0,0.361,0.927,-0.244,2145593
0.001,0.362,0.927,-0.122,2145597
0.001,0.362,0.927,-0.122,2145601
0.001,0.362,0.927,-0.061,2145605
0.0,0.363,0.928,-0.305,2145609
0.0,0.363,0.928,-0.244,2145613
0.0,0.363,0.928,-0.244,2145617
-0.002,0.362,0.927,0.0,2145621
-0.002,0.362,0.927,-0.305,2145625
-0.001,0.361,0.926,-0.061,2145629
-0.001,0.361,0.926,-0.122,2145633
-0.001,0.361,0.926,-0.122,2145637
-0.0,0.361,0.926,-0.183,2145641
-0.0,0.361,0.926,-0.122,2145645
-0.001,0.361,0.928,-0.183,2145649
-0.001,0.361,0.928,-0.183,2145653
-0.001,0.361,0.928,-0.183,2145657
0.001,0.362,0.927,-0.183,2145661
0.001,0.362,0.927,-0.183,2145665
0.0,0.363,0.925,-0.183,2145669
0.0,0.363,0.925,-0.061,2145672
0.0,0.363,0.925,-0.061,2145676
-0.002,0.361,0.927,-0.244,2145680
-0.002,0.361,0.927,-0.366,2145684
-0.001,0.362,0.928,-0.122,2145688
-0.001,0.362,0.928,-0.183,2145692
-0.001,0.362,0.928,-0.183,2145696
-0.002,0.361,0.925,-0.305,2145700
-0.002,0.361,0.925,-0.122,2145704
-0.002,0.361,0.926,-0.244,2145708
-0.002,0.361,0.926,-0.305,2145712
-0.002,0.361,0.926,-0.122,2145716
-0.002,0.361,0.926,-0.122,2145720
-0.002,0.361,0.926,-0.183,2145724
-0.003,0.36,0.927,-0.305,2145728
-0.003,0.36,0.927,-0.244,2145732
-0.004,0.359,0.927,-0.244,2145736
-0.004,0.359,0.927,-0.244,2145740
-0.004,0.359,0.927,-0.183,2145744
-0.004,0.358,0.926,-0.183,2145748
-0.004,0.358,0.926,-0.183,2145752
-0.003,0.359,0.926,-0.183,2145756
-0.003,0.359,0.926,-0.183,2145760
-0.003,0.359,0.926,-0.122,2145764
-0.002,0.362,0.925,-0.183,2145768
-0.002,0.362,0.925,-0.061,2145772
-0.004,0.361,0.926,-0.061,2145776
-0.004,0.361,0.926,-0.061,2145780
-0.004,0.361,0.926,-0.122,2145784
-0.003,0.363,0.927,-0.183,2145788
-0.003,0.363,0.927,-0.244,2145792
-0.004,0.361,0.926,-0.183,2145796
-0.004,0.361,0.926,-0.183,2145800
-0.004,0.361,0.926,-0.183,2145804
-0.003,0.362,0.925,-0.366,2145808
-0.003,0.362,0.925,-0.366,2145812
-0.002,0.363,0.926,-0.244,2145816
-0.002,0.363,0.926,-0.244,2145820
-0.002,0.363,0.926,-0.183,2145824
-0.002,0.36,0.926,-0.183,2145828
-0.002,0.36,0.926,-0.183,2145831
-0.0,0.362,0.926,0.0,2145835
-0.0,0.362,0.926,0.0,2145839
-0.0,0.362,0.926,-0.183,2145843
-0.001,0.362,0.925,-0.244,2145847
-0.001,0.362,0.925,-0.244,2145851
-0.002,0.36,0.925,-0.122,2145855
-0.002,0.36,0.925,-0.122,2145859
-0.002,0.36,0.925,-0.122,2145863
-0.001,0.36,0.927,-0.244,2145867
-0.001,0.36,0.927,-0.122,2145871
-0.001,0.361,0.927,0.061,2145875
-0.001,0.361,0.927,0.061,2145879
-0.001,0.361,0.927,0.061,2145883
-0.0,0.362,0.928,0.122,2145887
-0.0,0.362,0.928,-0.061,2145891
-0.0,0.362,0.927,-0.244,2145895
-0.0,0.362,0.927,-0.244,2145899
-0.0,0.362,0.927,-0.244,2145903
-0.0,0.362,0.927,-0.183,2145907
-0.0,0.362,0.927,-0.183,2145911
-0.001,0.361,0.925,-0.183,2145915
-0.001,0.361,0.925,-0.183,2145919
-0.001,0.361,0.925,-0.305,2145923
-0.002,0.359,0.925,-0.122,2145927
-0.002,0.359,0.925,-0.122,2145931
-0.002,0.36,0.927,-0.061,2145935
-0.002,0.36,0.927,-0.061,2145939
-0.002,0.36,0.927,-0.183,2145943
-0.003,0.36,0.926,-0.244,2145947
-0.003,0.36,0.926,0.0,2145950
-0.003,0.362,0.924,-0.183,2145954
-0.003,0.362,0.924,-0.183,2145958
-0.003,0.362,0.924,-0.122,2145962
-0.003,0.361,0.927,-0.244,2145966
-0.003,0.361,0.927,-0.122,2145970
-0.005,0.36,0.926,-0.122,2145974
-0.005,0.36,0.926,-0.122,2145978
-0.005,0.36,0.926,-0.183,2145982
-0.004,0.36,0.925,-0.305,2145986
-0.004,0.36,0.925,-0.244,2145990
-0.004,0.362,0.926,-0.122,2145994
-0.004,0.362,0.926,-0.122,2145998
-0.004,0.362,0.926,-0.122,2146002
-0.003,0.362,0.924,-0.183,2146006
-0.003,0.362,0.924,-0.244,2146010
-0.003,0.361,0.926,-0.183,2146014
-0.003,0.361,0.926,-0.183,2146018
-0.003,0.361,0.926,-0.183,2146022
-0.006,0.362,0.925,-0.183,2146026
-0.006,0.362,0.925,-0.244,2146030
-0.004,0.361,0.923,-0.122,2146034
-0.004,0.361,0.923,-0.122,2146038
-0.004,0.361,0.923,-0.183,2146042
-0.002,0.36,0.925,-0.183,2146046
-0.002,0.36,0.925,-0.244,2146050
-0.001,0.36,0.925,-0.244,2146054
-0.001,0.36,0.925,-0.244,2146058
-0.001,0.36,0.925,-0.305,2146062
-0.002,0.361,0.927,-0.183,2146066
-0.002,0.361,0.927,-0.122,2146070
-0.002,0.36,0.927,-0.183,2146074
-0.002,0.36,0.927,-0.183,2146078
-0.002,0.36,0.927,-0.244,2146082
-0.003,0.362,0.925,-0.122,2146086
-0.003,0.362,0.925,-0.122,2146090
-0.003,0.362,0.926,-0.244,2146094
-0.003,0.362,0.926,-0.244,2146098
-0.003,0.362,0.926,-0.183,2146102
-0.001,0.359,0.927,-0.305,2146106
-0.001,0.359,0.927,-0.122,2146109
0.0,0.36,0.926,-0.061,2146113
0.0,0.36,0.926,-0.061,2146117
0.0,0.36,0.926,-0.183,2146121
-0.001,0.362,0.927,-0.366,2146125
-0.001,0.362,0.927,-0.305,2146129
-0.002,0.36,0.928,-0.122,2146133
-0.002,0.36,0.928,-0.122,2146137
-0.002,0.36,0.928,-0.183,2146141
-0.001,0.361,0.926,-0.305,2146145
-0.001,0.361,0.926,-0.122,2146149
-0.001,0.362,0.926,-0.122,2146153
-0.001,0.362,0.926,-0.122,2146157
-0.001,0.362,0.926,-0.244,2146161
-0.001,0.361,0.926,-0.244,2146165
-0.001,0.361,0.926,-0.122,2146169
-0.001,0.362,0.926,-0.122,2146173
-0.001,0.362,0.926,-0.122,2146177
-0.001,0.362,0.926,-0.183,2146181
-0.001,0.362,0.926,-0.183,2146185
-0.001,0.362,0.926,-0.244,2146189
-0.001,0.362,0.926,-0.244,2146193
-0.001,0.362,0.926,-0.244,2146197
-0.001,0.362,0.926,-0.305,2146201
-0.001,0.361,0.926,-0.305,2146205
-0.001,0.361,0.926,-0.427,2146209
-0.002,0.362,0.926,-0.244,2146213
-0.002,0.362,0.926,-0.244,2146217
-0.002,0.362,0.926,-0.061,2146221
-0.004,0.362,0.925,-0.122,2146225
-0.004,0.362,0.925,-0.183,2146229
-0.003,0.362,0.925,-0.366,2146233
-0.003,0.362,0.925,-0.366,2146237
-0.003,0.362,0.925,-0.366,2146241
-0.003,0.361,0.924,-0.305,2146245
-0.003,0.361,0.924,-0.122,2146249
-0.004,0.361,0.924,-0.183,2146253
-0.004,0.361,0.924,-0.183,2146257
-0.004,0.361,0.924,-0.244,2146260
-0.004,0.362,0.925,-0.183,2146264
-0.004,0.362,0.925,-0.183,2146268
-0.003,0.36,0.926,-0.183,2146272
-0.003,0.36,0.926,-0.183,2146276
-0.003,0.36,0.926,-0.122,2146280
-0.003,0.359,0.928,-0.244,2146284
-0.003,0.359,0.928,-0.183,2146288
-0.001,0.36,0.927,-0.122,2146292
-0.001,0.36,0.927,-0.122,2146296
-0.001,0.36,0.927,-0.244,2146300
-0.002,0.36,0.925,-0.244,2146304
-0.002,0.36,0.925,-0.366,2146308
-0.002,0.36,0.927,-0.183,2146312
-0.002,0.36,0.927,-0.183,2146316
-0.002,0.36,0.927,-0.122,2146320
-0.002,0.361,0.928,-0.061,2146324
-0.002,0.361,0.928,-0.244,2146328
-0.002,0.361,0.926,-0.244,2146332
-0.002,0.361,0.926,-0.244,2146336
-0.002,0.361,0.926,-0.183,2146340
-0.002,0.363,0.927,-0.183,2146344
-0.002,0.363,0.927,-0.183,2146348
-0.002,0.362,0.926,-0.305,2146352
-0.002,0.362,0.926,-0.305,2146356
-0.002,0.362,0.926,-0.183,2146360
-0.001,0.361,0.926,-0.122,2146364
-0.001,0.361,0.926,-0.244,2146368
-0.002,0.362,0.926,-0.305,2146372
-0.002,0.362,0.926,-0.305,2146376
-0.002,0.362,0.926,-0.305,2146380
-0.001,0.362,0.927,-0.305,2146384
-0.001,0.362,0.927,-0.244,2146388
-0.001,0.362,0.925,-0.061,2146391
-0.001,0.362,0.925,-0.061,2146395
-0.001,0.362,0.925,-0.061,2146399
-0.0,0.362,0.926,-0.305,2146403
-0.0,0.362,0.926,-0.305,2146407
-0.001,0.362,0.927,-0.244,2146411
-0.001,0.362,0.927,-0.244,2146415
-0.001,0.362,0.927,-0.061,2146419
-0.002,0.363,0.927,-0.122,2146423
-0.002,0.363,0.927,-0.244,2146427
-0.001,0.361,0.928,-0.183,2146431
-0.001,0.361,0.928,-0.183,2146435
-0.001,0.361,0.928,-0.244,2146439
-0.001,0.359,0.926,-0.305,2146443
-0.001,0.359,0.926,-0.183,2146447
-0.001,0.362,0.926,-0.244,2146451
-0.001,0.362,0.926,-0.244,2146455
-0.001,0.362,0.926,-0.244,2146459
-0.002,0.361,0.926,-0.183,2146463
-0.002,0.361,0.926,-0.305,2146467
-0.003,0.36,0.926,-0.244,2146471
-0.003,0.36,0.926,-0.244,2146475
-0.003,0.36,0.926,0.0,2146479
-0.004,0.36,0.926,-0.122,2146483
-0.004,0.36,0.926,-0.183,2146487
-0.002,0.362,0.924,-0.244,2146491
-0.002,0.362,0.924,-0.244,2146495
-0.002,0.362,0.924,-0.244,2146499
-0.003,0.362,0.925,-0.305,2146503
-0.003,0.362,0.925,-0.244,2146507
-0.002,0.361,0.926,-0.122,2146511
-0.002,0.361,0.926,-0.122,2146515
-0.002,0.361,0.926,-0.183,2146519
-0.004,0.362,0.925,-0.305,2146523
-0.004,0.362,0.925,-0.183,2146527
-0.002,0.362,0.923,-0.244,2146531
-0.002,0.362,0.923,-0.244,2146535
-0.002,0.362,0.923,-0.244,2146539
-0.004,0.36,0.925,-0.183,2146542
-0.004,0.36,0.925,-0.122,2146546
-0.004,0.36,0.927,-0.244,2146550
-0.004,0.36,0.927,-0.244,2146554
-0.004,0.36,0.927,-0.122,2146558
-0.002,0.361,0.924,-0.061,2146562
-0.002,0.361,0.924,-0.183,2146566
-0.003,0.361,0.926,-0.183,2146570
-0.003,0.361,0.926,-0.183,2146574
-0.003,0.361,0.926,-0.183,2146578
-0.002,0.363,0.927,-0.122,2146582
-0.002,0.363,0.927,-0.122,2146586
-0.001,0.362,0.926,-0.183,2146590
-0.001,0.362,0.926,-0.183,2146594
-0.001,0.362,0.926,-0.183,2146598
-0.002,0.36,0.926,-0.183,2146602
-0.002,0.36,0.926,-0.061,2146606
-0.002,0.359,0.927,-0.183,2146610
-0.002,0.359,0.927,-0.183,2146614
-0.002,0.359,0.927,-0.244,2146618
-0.002,0.362,0.928,-0.122,2146622
-0.002,0.362,0.928,-0.183,2146626
0.0,0.361,0.928,-0.122,2146630
0.0,0.361,0.928,-0.122,2146634
0.0,0.361,0.928,-0.183,2146638
0.001,0.361,0.927,-0.061,2146642
0.001,0.361,0.927,-0.122,2146646
-0.001,0.361,0.924,-0.183,2146650
-0.001,0.361,0.924,-0.183,2146654
-0.001,0.361,0.924,-0.122,2146658
-0.001,0.361,0.926,-0.183,2146662
-0.001,0.361,0.926,-0.244,2146666
-0.0,0.36,0.928,-0.305,2146670
-0.0,0.36,0.928,-0.305,2146673
-0.0,0.36,0.928,-0.183,2146677
-0.001,0.36,0.927,-0.244,2146681
-0.001,0.36,0.927,-0.183,2146685
-0.002,0.361,0.926,-0.244,2146689
-0.002,0.361,0.926,-0.244,2146693
-0.002,0.361,0.926,-0.244,2146697
-0.002,0.362,0.926,-0.183,2146701
-0.002,0.362,0.926,-0.122,2146705
-0.002,0.361,0.928,-0.305,2146709
-0.002,0.361,0.928,-0.305,2146713
-0.002,0.361,0.928,-0.244,2146717
-0.003,0.361,0.925,-0.183,2146721
-0.003,0.361,0.925,-0.244,2146725
-0.004,0.36,0.926,-0.122,2146729
-0.004,0.36,0.926,-0.122,2146733
-0.004,0.36,0.926,-0.244,2146737
-0.003,0.362,0.927,-0.244,2146741
-0.003,0.362,0.927,-0.122,2146745
-0.004,0.361,0.927,-0.183,2146749
-0.004,0.361,0.927,-0.183,2146753
-0.004,0.361,0.927,-0.183,2146757
-0.004,0.361,0.926,-0.122,2146761
-0.004,0.361,0.926,-0.366,2146765
-0.003,0.362,0.926,-0.244,2146769
-0.003,0.362,0.926,-0.183,2146773
-0.003,0.362,0.926,-0.183,2146777
-0.003,0.361,0.925,-0.122,2146781
-0.003,0.361,0.925,-0.244,2146785
-0.002,0.363,0.924,-0.122,2146789
-0.002,0.363,0.924,-0.244,2146793
-0.002,0.363,0.924,-0.244,2146797
-0.002,0.36,0.926,-0.244,2146801
-0.002,0.36,0.926,-0.122,2146805
-0.003,0.361,0.927,-0.305,2146809
-0.003,0.361,0.927,-0.183,2146813
-0.003,0.361,0.927,-0.183,2146817
-0.003,0.36,0.925,-0.061,2146821
-0.003,0.36,0.925,-0.183,2146825
-0.001,0.36,0.925,-0.244,2146829
-0.001,0.36,0.925,-0.427,2146832
-0.001,0.36,0.925,-0.427,2146836
-0.002,0.361,0.926,-0.366,2146840
-0.002,0.361,0.926,-0.122,2146844
-0.002,0.36,0.927,-0.122,2146848
-0.002,0.36,0.927,-0.122,2146852
-0.002,0.36,0.927,-0.122,2146856
-0.001,0.36,0.928,-0.183,2146860
-0.001,0.36,0.928,-0.183,2146864
-0.001,0.361,0.926,-0.244,2146868
-0.001,0.361,0.926,-0.122,2146872
-0.001,0.361,0.926,-0.122,2146876
-0.001,0.362,0.924,-0.183,2146880
-0.001,0.362,0.924,-0.183,2146884
-0.002,0.362,0.926,-0.183,2146888
-0.002,0.362,0.926,-0.244,2146892
-0.002,0.362,0.926,-0.244,2146896
-0.0,0.361,0.927,-0.061,2146900
-0.0,0.361,0.927,-0.122,2146904
0.001,0.362,0.928,-0.305,2146908
0.001,0.362,0.928,-0.305,2146912
0.001,0.362,0.928,-0.305,2146916
-0.002,0.36,0.926,-0.427,2146920
-0.002,0.36,0.926,-0.366,2146924
-0.001,0.362,0.926,-0.183,2146928
-0.001,0.362,0.926,-0.122,2146932
-0.001,0.362,0.926,-0.122,2146936
-0.001,0.363,0.925,-0.122,2146940
-0.001,0.363,0.925,-0.305,2146944
-0.003,0.364,0.926,-0.122,2146948
-0.003,0.364,0.926,-0.305,2146952
-0.003,0.364,0.926,-0.305,2146956
-0.003,0.361,0.926,-0.244,2146960
-0.003,0.361,0.926,-0.122,2146964
-0.004,0.36,0.926,-0.183,2146968
-0.004,0.36,0.926,-0.244,2146972
-0.004,0.36,0.926,-0.244,2146976
-0.003,0.361,0.927,-0.244,2146980
-0.003,0.361,0.927,-0.183,2146984
-0.001,0.361,0.925,-0.183,2146987
-0.001,0.361,0.925,-0.244,2146991
-0.001,0.361,0.925,-0.244,2146995
-0.003,0.361,0.925,-0.183,2146999
-0.003,0.361,0.925,-0.061,2147003
-0.005,0.36,0.925,-0.305,2147007
-0.005,0.36,0.925,-0.122,2147011
-0.005,0.36,0.925,-0.122,2147015
-0.002,0.36,0.925,-0.122,2147019
-0.002,0.36,0.925,-0.183,2147023
-0.002,0.361,0.926,-0.183,2147027
-0.002,0.361,0.926,-0.183,2147031
-0.002,0.361,0.926,-0.183,2147035
-0.002,0.359,0.926,-0.183,2147039
-0.002,0.359,0.926,-0.122,2147043
-0.002,0.36,0.925,-0.122,2147047
-0.002,0.36,0.925,-0.183,2147051
-0.002,0.36,0.925,-0.183,2147055
-0.001,0.361,0.927,-0.122,2147059
-0.001,0.361,0.927,-0.183,2147063
-0.001,0.362,0.928,-0.122,2147067
-0.001,0.362,0.928,-0.122,2147071
-0.001,0.362,0.928,-0.122,2147075
-0.003,0.361,0.925,-0.183,2147079
-0.003,0.361,0.925,-0.305,2147083
-0.001,0.362,0.927,-0.244,2147087
-0.001,0.362,0.927,-0.122,2147091
-0.001,0.362,0.927,-0.122,2147095
-0.003,0.363,0.926,0.061,2147099
-0.003,0.363,0.926,-0.122,2147103
-0.001,0.362,0.924,-0.122,2147107
-0.001,0.362,0.924,-0.244,2147111
-0.001,0.362,0.924,-0.244,2147115
0.0,0.361,0.926,-0.244,2147119
0.0,0.361,0.926,-0.305,2147123
0.001,0.363,0.927,-0.122,2147127
0.001,0.363,0.927,-0.122,2147131
0.001,0.363,0.927,-0.122,2147135
-0.001,0.363,0.926,-0.183,2147139
-0.001,0.363,0.926,-0.305,2147143
-0.001,0.362,0.925,-0.244,2147147
-0.001,0.362,0.925,-0.122,2147150
-0.001,0.362,0.925,-0.122,2147154
-0.001,0.362,0.925,-0.183,2147158
-0.001,0.362,0.925,-0.244,2147162
-0.002,0.362,0.926,-0.122,2147166
-0.002,0.362,0.926,-0.061,2147170
-0.002,0.362,0.926,-0.061,2147174
-0.001,0.362,0.928,-0.122,2147178
-0.001,0.362,0.928,-0.183,2147182
-0.001,0.36,0.927,-0.244,2147186
-0.001,0.36,0.927,-0.183,2147190
-0.001,0.36,0.927,-0.183,2147194
-0.001,0.36,0.925,-0.122,2147198
-0.001,0.36,0.925,-0.183,2147202
-0.002,0.362,0.926,-0.244,2147206
-0.002,0.362,0.926,-0.183,2147210
-0.002,0.362,0.926,-0.183,2147214
-0.002,0.362,0.926,-0.061,2147218
-0.002,0.362,0.926,-0.183,2147222
-0.003,0.361,0.925,-0.244,2147226
-0.003,0.361,0.925,-0.183,2147230
-0.003,0.361,0.925,-0.183,2147234
-0.003,0.358,0.926,-0.183,2147238
-0.003,0.358,0.926,-0.183,2147242
-0.003,0.36,0.927,-0.305,2147246
-0.003,0.36,0.927,-0.305,2147250
-0.003,0.36,0.927,-0.305,2147254
-0.003,0.36,0.927,-0.305,2147258
-0.003,0.36,0.927,-0.122,2147262
-0.003,0.361,0.924,-0.183,2147266
-0.003,0.361,0.924,-0.122,2147270
-0.003,0.361,0.924,-0.122,2147274
-0.002,0.362,0.926,-0.183,2147278
-0.002,0.362,0.926,-0.183,2147282
-0.002,0.361,0.927,-0.061,2147286
-0.002,0.361,0.927,-0.244,2147290
-0.002,0.361,0.927,-0.244,2147294
-0.003,0.362,0.924,-0.183,2147298
-0.003,0.362,0.924,0.0,2147301
-0.002,0.362,0.926,-0.183,2147305
-0.002,0.362,0.926,-0.183,2147309
-0.002,0.362,0.926,-0.183,2147313
-0.002,0.362,0.926,-0.244,2147317
-0.002,0.362,0.926,-0.244,2147321
-0.001,0.36,0.926,-0.244,2147325
-0.001,0.36,0.926,-0.244,2147329
-0.001,0.36,0.926,-0.244,2147333
-0.002,0.36,0.925,-0.183,2147337
-0.002,0.36,0.925,-0.244,2147341
-0.001,0.362,0.926,-0.305,2147345
-0.001,0.362,0.926,-0.122,2147349
-0.001,0.362,0.926,-0.122,2147353
-0.002,0.361,0.927,-0.183,2147357
-0.002,0.361,0.927,-0.244,2147361
-0.001,0.36,0.926,-0.305,2147365
-0.001,0.36,0.926,-0.183,2147369
0.0,0.361,0.925,-0.122,2147373
0.0,0.361,0.925,-0.122,2147377
0.0,0.361,0.925,-0.122,2147381
0.0,0.362,0.925,-0.061,2147385
0.0,0.362,0.925,-0.183,2147389
0.0,0.362,0.925,-0.183,2147393
-0.001,0.36,0.926,-0.183,2147397
-0.001,0.36,0.926,-0.305,2147400
0.0,0.359,0.926,-0.183,2147404
0.0,0.359,0.926,-0.305,2147408
0.0,0.359,0.926,-0.305,2147412
0.0,0.361,0.928,-0.244,2147416
0.0,0.361,0.928,-0.122,2147420
0.0,0.361,0.927,-0.183,2147424
0.0,0.361,0.927,-0.183,2147428
0.0,0.361,0.927,-0.183,2147432
-0.001,0.361,0.924,-0.061,2147436
-0.001,0.361,0.924,-0.122,2147440
-0.002,0.361,0.924,-0.183,2147444
-0.002,0.361,0.924,-0.122,2147448
-0.002,0.361,0.924,-0.122,2147452
-0.003,0.361,0.927,-0.122,2147456
-0.003,0.361,0.927,-0.061,2147460
-0.003,0.361,0.927,-0.183,2147464
-0.003,0.361,0.927,-0.244,2147468
-0.003,0.361,0.927,-0.244,2147472
-0.003,0.361,0.924,-0.244,2147476
-0.003,0.361,0.924,-0.244,2147480
-0.002,0.363,0.926,-0.244,2147484
-0.002,0.363,0.926,-0.183,2147488
-0.002,0.363,0.926,-0.183,2147492
-0.002,0.362,0.927,-0.183,2147496
-0.002,0.362,0.927,-0.183,2147500
-0.005,0.361,0.925,-0.183,2147504
-0.005,0.361,0.925,-0.183,2147508
-0.005,0.361,0.925,-0.183,2147512
-0.004,0.36,0.924,-0.122,2147516
-0.004,0.36,0.924,-0.061,2147520
-0.002,0.362,0.926,-0.244,2147524
-0.002,0.362,0.926,-0.244,2147528
-0.002,0.362,0.926,-0.244,2147531
-0.003,0.361,0.924,-0.183,2147535
-0.003,0.361,0.924,-0.183,2147539
-0.002,0.36,0.926,-0.122,2147543
-0.002,0.36,0.926,-0.183,2147547
-0.002,0.36,0.926,-0.183,2147551
-0.0,0.362,0.927,-0.244,2147555
-0.0,0.362,0.927,-0.244,2147559
-0.001,0.36,0.926,-0.183,2147563
-0.001,0.36,0.926,-0.183,2147567
-0.001,0.36,0.926,-0.183,2147571
-0.003,0.36,0.925,-0.122,2147575
-0.003,0.36,0.925,-0.183,2147579
-0.001,0.361,0.925,-0.183,2147583
-0.001,0.361,0.925,-0.122,2147587
-0.001,0.361,0.925,-0.122,2147591
-0.001,0.36,0.927,-0.305,2147595
-0.001,0.36,0.927,-0.244,2147599
-0.001,0.362,0.927,0.0,2147603
-0.001,0.362,0.927,-0.122,2147607
-0.001,0.362,0.927,-0.122,2147611
-0.001,0.362,0.926,-0.122,2147615
-0.001,0.362,0.926,-0.244,2147619
-0.001,0.362,0.927,-0.305,2147623
-0.001,0.362,0.927,-0.305,2147627
-0.001,0.362,0.927,-0.305,2147631
0.0,0.361,0.925,-0.244,2147635
0.0,0.361,0.925,-0.122,2147639
-0.001,0.361,0.926,-0.244,2147643
-0.001,0.361,0.926,-0.244,2147647
-0.001,0.361,0.926,-0.244,2147651
-0.002,0.361,0.926,-0.122,2147655
-0.002,0.361,0.926,-0.183,2147659
-0.001,0.362,0.925,-0.244,2147663
-0.001,0.362,0.925,-0.244,2147667
-0.001,0.362,0.925,-0.244,2147671
-0.003,0.362,0.926,-0.305,2147675
-0.003,0.362,0.926,-0.244,2147679
-0.001,0.364,0.925,-0.183,2147682
-0.001,0.364,0.925,-0.061,2147686
-0.001,0.362,0.925,0.0,2147690
-0.001,0.362,0.925,0.0,2147694
-0.001,0.362,0.925,-0.244,2147698
-0.001,0.361,0.927,-0.305,2147702
-0.001,0.361,0.927,-0.366,2147706
-0.001,0.361,0.927,-0.366,2147710
-0.002,0.361,0.925,-0.122,2147714
-0.002,0.361,0.925,-0.061,2147718
-0.003,0.362,0.924,-0.183,2147722
-0.003,0.362,0.924,-0.244,2147726
-0.003,0.362,0.924,-0.244,2147730
-0.003,0.362,0.926,-0.183,2147734
-0.003,0.362,0.926,-0.122,2147738
-0.003,0.361,0.927,-0.244,2147742
-0.003,0.361,0.927,-0.183,2147746
-0.003,0.361,0.927,-0.122,2147750
-0.003,0.361,0.927,-0.122,2147754
-0.003,0.361,0.927,-0.183,2147758
-0.003,0.361,0.924,-0.244,2147762
-0.003,0.361,0.924,-0.244,2147766
-0.003,0.361,0.926,-0.244,2147770
-0.003,0.361,0.926,-0.244,2147774
-0.003,0.361,0.926,-0.122,2147778
-0.002,0.361,0.926,-0.122,2147782
-0.002,0.361,0.926,-0.122,2147786
-0.003,0.36,0.926,-0.183,2147790
-0.003,0.36,0.926,-0.183,2147794
-0.003,0.36,0.926,-0.244,2147798
-0.002,0.36,0.925,-0.122,2147802
-0.002,0.36,0.925,-0.244,2147806
-0.002,0.363,0.927,-0.305,2147810
-0.002,0.363,0.927,-0.305,2147814
-0.002,0.363,0.927,-0.122,2147818
-0.001,0.361,0.926,-0.061,2147821
-0.001,0.361,0.926,-0.244,2147825
-0.0,0.361,0.927,-0.122,2147829
-0.0,0.361,0.927,-0.122,2147833
-0.0,0.361,0.927,-0.061,2147837
-0.0,0.363,0.927,-0.061,2147841
-0.0,0.363,0.927,-0.061,2147845
-0.001,0.363,0.924,-0.061,2147849
-0.001,0.363,0.924,-0.061,2147853
-0.001,0.363,0.924,-0.305,2147857
-0.001,0.363,0.926,-0.305,2147861
-0.001,0.363,0.926,-0.244,2147865
-0.001,0.362,0.926,-0.305,2147869
-0.001,0.362,0.926,-0.305,2147873
-0.001,0.362,0.926,-0.244,2147877
-0.002,0.362,0.927,-0.305,2147881
-0.002,0.362,0.927,-0.244,2147885
-0.002,0.361,0.925,-0.183,2147889
-0.002,0.361,0.925,-0.183,2147893
-0.002,0.361,0.925,-0.122,2147897
-0.001,0.361,0.925,-0.061,2147901
-0.001,0.361,0.925,-0.122,2147905
-0.001,0.361,0.925,-0.427,2147909
-0.001,0.361,0.925,-0.427,2147913
-0.001,0.361,0.925,-0.183,2147917
-0.002,0.362,0.926,-0.183,2147921
-0.002,0.362,0.926,-0.244,2147925
-0.003,0.362,0.927,-0.122,2147929
-0.003,0.362,0.927,-0.122,2147933
-0.003,0.362,0.927,-0.305,2147937
-0.002,0.361,0.928,-0.244,2147941
-0.002,0.361,0.928,-0.244,2147945
-0.001,0.362,0.925,-0.122,2147949
-0.001,0.362,0.925,-0.122,2147953
-0.001,0.362,0.925,-0.122,2147957
-0.002,0.362,0.924,-0.366,2147960
-0.002,0.362,0.924,-0.122,2147964
-0.002,0.36,0.925,0.0,2147968
-0.002,0.36,0.925,0.0,2147972
-0.002,0.36,0.925,-0.305,2147976
-0.003,0.36,0.926,-0.244,2147980
-0.003,0.36,0.926,-0.122,2147984
-0.003,0.36,0.926,-0.183,2147988
-0.003,0.36,0.926,-0.183,2147992
-0.003,0.36,0.926,-0.122,2147996
-0.003,0.36,0.926,-0.183,2148000
-0.003,0.36,0.926,-0.183,2148004
-0.003,0.361,0.924,-0.183,2148008
-0.003,0.361,0.924,-0.183,2148012
-0.003,0.361,0.924,-0.061,2148016
-0.005,0.36,0.926,-0.061,2148020
-0.005,0.36,0.926,-0.122,2148024
-0.004,0.359,0.927,-0.244,2148028
-0.004,0.359,0.927,-0.244,2148032
-0.004,0.359,0.927,-0.122,2148036
-0.004,0.361,0.924,-0.244,2148040
-0.004,0.361,0.924,-0.183,2148044
-0.002,0.361,0.927,-0.244,2148048
-0.002,0.361,0.927,-0.244,2148052
-0.002,0.361,0.927,-0.183,2148056
-0.002,0.362,0.927,-0.122,2148060
-0.002,0.362,0.927,-0.244,2148064
-0.002,0.362,0.925,-0.244,2148068
-0.002,0.362,0.925,-0.244,2148072
-0.002,0.362,0.925,-0.122,2148076
-0.001,0.361,0.927,-0.122,2148080
-0.001,0.361,0.927,-0.122,2148084
-0.002,0.361,0.924,-0.122,2148088
-0.002,0.361,0.924,-0.122,2148092
-0.002,0.361,0.924,-0.183,2148096
-0.002,0.361,0.927,-0.244,2148100
-0.002,0.361,0.927,-0.183,2148104
-0.001,0.362,0.927,-0.244,2148108
-0.001,0.362,0.927,-0.244,2148111
-0.001,0.362,0.927,-0.244,2148115
-0.001,0.362,0.927,-0.183,2148119
-0.001,0.362,0.927,-0.366,2148123
-0.001,0.361,0.928,-0.244,2148127
-0.001,0.361,0.928,-0.244,2148131
-0.001,0.361,0.928,-0.305,2148135
-0.001,0.361,0.926,-0.122,2148139
-0.001,0.361,0.926,-0.244,2148143
-0.002,0.362,0.924,-0.244,2148147
-0.002,0.362,0.924,-0.244,2148151
-0.002,0.362,0.924,-0.244,2148155
-0.003,0.362,0.926,-0.244,2148159
-0.003,0.362,0.926,-0.183,2148163
-0.003,0.36,0.927,-0.183,2148167
-0.003,0.36,0.927,-0.183,2148171
-0.003,0.36,0.927,-0.183,2148175
-0.003,0.362,0.927,-0.305,2148179
-0.003,0.362,0.927,-0.183,2148183
-0.002,0.36,0.925,-0.244,2148187
-0.002,0.36,0.925,-0.244,2148191
-0.002,0.36,0.925,-0.183,2148195
-0.002,0.36,0.925,-0.122,2148199
-0.002,0.36,0.925,-0.061,2148203
-0.003,0.36,0.925,-0.244,2148207
-0.003,0.36,0.925,-0.244,2148211
-0.003,0.36,0.925,-0.305,2148215
-0.004,0.361,0.926,-0.244,2148219
-0.004,0.361,0.926,-0.244,2148223
-0.001,0.361,0.927,-0.122,2148227
-0.001,0.361,0.927,-0.122,2148231
-0.001,0.361,0.927,-0.244,2148235
-0.003,0.362,0.926,-0.305,2148239
-0.003,0.362,0.926,-0.122,2148243
-0.004,0.363,0.925,-0.183,2148247
-0.004,0.363,0.925,-0.183,2148251
-0.004,0.363,0.925,-0.183,2148255
-0.003,0.361,0.926,-0.183,2148258
-0.003,0.361,0.926,-0.122,2148262
-0.002,0.36,0.927,-0.061,2148266
-0.002,0.36,0.927,-0.061,2148270
-0.002,0.36,0.927,-0.183,2148274
-0.002,0.36,0.926,-0.122,2148278
-0.002,0.36,0.926,-0.061,2148282
-0.001,0.362,0.926,-0.122,2148286
-0.001,0.362,0.926,-0.122,2148290
-0.001,0.362,0.926,-0.122,2148294
-0.002,0.362,0.926,-0.244,2148298
-0.002,0.362,0.926,-0.122,2148302
-0.002,0.361,0.926,-0.305,2148306
-0.002,0.361,0.926,-0.305,2148310
-0.002,0.361,0.926,-0.244,2148314
-0.002,0.36,0.927,-0.244,2148318
-0.002,0.36,0.927,-0.305,2148322
0.001,0.361,0.926,-0.305,2148326
0.001,0.361,0.926,-0.305,2148330
0.001,0.361,0.926,-0.183,2148334
-0.001,0.363,0.926,-0.122,2148338
-0.001,0.363,0.926,-0.122,2148342
-0.003,0.361,0.926,-0.244,2148346
-0.003,0.361,0.926,-0.244,2148350
-0.003,0.361,0.926,-0.183,2148354
-0.002,0.361,0.927,-0.122,2148358
-0.002,0.361,0.927,-0.183,2148362
-0.001,0.362,0.925,-0.244,2148366
-0.001,0.362,0.925,-0.244,2148370
-0.001,0.362,0.925,-0.305,2148374
-0.0,0.362,0.925,-0.183,2148378
-0.0,0.362,0.925,-0.244,2148382
-0.001,0.362,0.927,-0.305,2148386
-0.001,0.362,0.927,-0.305,2148390
-0.001,0.362,0.927,-0.122,2148394
-0.002,0.361,0.927,-0.183,2148398
-0.002,0.361,0.927,-0.305,2148401
-0.002,0.361,0.926,-0.244,2148405
-0.002,0.361,0.926,-0.244,2148409
-0.002,0.361,0.926,-0.305,2148413
-0.003,0.362,0.926,-0.183,2148417
-0.003,0.362,0.926,-0.366,2148421
-0.002,0.361,0.926,-0.183,2148425
-0.002,0.361,0.926,-0.183,2148429
-0.002,0.361,0.926,-0.183,2148433
-0.002,0.36,0.927,-0.183,2148437
-0.002,0.36,0.927,-0.183,2148441
-0.002,0.362,0.927,-0.122,2148445
-0.002,0.362,0.927,-0.122,2148449
-0.002,0.362,0.927,-0.183,2148453
-0.002,0.362,0.926,-0.183,2148457
-0.002,0.362,0.926,-0.244,2148461
-0.003,0.362,0.926,-0.305,2148465
-0.003,0.362,0.926,-0.305,2148469
-0.003,0.362,0.926,-0.183,2148473
-0.003,0.361,0.926,-0.305,2148477
-0.003,0.361,0.926,-0.244,2148481
-0.002,0.361,0.926,-0.122,2148485
-0.002,0.361,0.926,-0.122,2148489
-0.002,0.361,0.926,-0.122,2148493
-0.003,0.361,0.926,-0.183,2148497
-0.003,0.361,0.926,-0.183,2148501
-0.003,0.36,0.926,-0.244,2148505
-0.003,0.36,0.926,-0.244,2148509
-0.003,0.36,0.926,-0.183,2148513
-0.001,0.361,0.927,-0.183,2148517
-0.001,0.361,0.927,-0.244,2148521
-0.003,0.361,0.926,-0.305,2148525
-0.003,0.361,0.926,-0.305,2148529
-0.003,0.361,0.926,-0.183,2148533
-0.002,0.361,0.926,-0.183,2148537
-0.002,0.361,0.926,-0.122,2148541
-0.003,0.361,0.927,-0.122,2148545
-0.003,0.361,0.927,-0.244,2148549
-0.003,0.361,0.927,-0.244,2148553
-0.002,0.359,0.927,-0.183,2148557
-0.002,0.359,0.927,-0.244,2148561
-0.001,0.359,0.926,-0.183,2148565
-0.001,0.359,0.926,-0.244,2148568
-0.001,0.359,0.926,-0.244,2148572
-0.003,0.36,0.927,-0.183,2148576
-0.003,0.36,0.927,-0.244,2148580
-0.003,0.36,0.925,-0.244,2148584
-0.003,0.36,0.925,-0.183,2148588
-0.003,0.36,0.925,-0.183,2148592
-0.002,0.363,0.927,-0.244,2148596
-0.002,0.363,0.927,-0.183,2148600
0.0,0.363,0.925,-0.244,2148604
0.0,0.363,0.925,-0.183,2148608
0.0,0.363,0.925,-0.183,2148612
-0.001,0.362,0.924,-0.183,2148616
-0.001,0.362,0.924,-0.183,2148620
-0.002,0.361,0.925,-0.305,2148624
-0.002,0.361,0.925,-0.244,2148628
-0.002,0.361,0.925,-0.244,2148632
-0.003,0.36,0.925,-0.305,2148636
-0.003,0.36,0.925,-0.183,2148640
-0.0,0.362,0.925,0.0,2148644
-0.0,0.362,0.925,-0.122,2148648
-0.0,0.362,0.925,-0.122,2148652
-0.003,0.361,0.927,-0.244,2148656
-0.003,0.361,0.927,-0.244,2148660
-0.001,0.36,0.928,-0.244,2148664
-0.001,0.36,0.928,-0.244,2148668
-0.001,0.36,0.928,-0.244,2148672
-0.001,0.361,0.926,-0.183,2148676
-0.001,0.361,0.926,-0.061,2148680
-0.002,0.361,0.925,-0.122,2148684
-0.002,0.361,0.925,-0.122,2148688
-0.002,0.361,0.925,-0.122,2148692
-0.003,0.362,0.926,-0.183,2148696
-0.003,0.362,0.926,-0.122,2148700
-0.003,0.362,0.926,-0.305,2148704
-0.003,0.362,0.926,-0.244,2148708
-0.003,0.362,0.926,-0.244,2148711
-0.004,0.36,0.926,-0.183,2148715
-0.004,0.36,0.926,-0.183,2148719
-0.003,0.36,0.925,-0.183,2148723
-0.003,0.36,0.925,-0.244,2148727
-0.003,0.36,0.925,-0.244,2148731
-0.0,0.361,0.925,-0.183,2148735
-0.0,0.361,0.925,-0.183,2148739
-0.0,0.36,0.926,-0.183,2148743
-0.0,0.36,0.926,-0.122,2148747
-0.0,0.36,0.926,-0.122,2148751
-0.002,0.36,0.926,-0.244,2148755
-0.002,0.36,0.926,-0.305,2148759
-0.004,0.361,0.926,-0.244,2148763
-0.004,0.361,0.926,-0.244,2148767
-0.004,0.361,0.926,-0.244,2148771
-0.003,0.36,0.926,-0.122,2148775
-0.003,0.36,0.926,-0.122,2148779
-0.003,0.362,0.926,-0.183,2148783
-0.003,0.362,0.926,-0.183,2148787
-0.003,0.362,0.926,-0.183,2148791
-0.001,0.361,0.925,-0.122,2148795
-0.001,0.361,0.925,-0.183,2148799
-0.001,0.362,0.925,-0.305,2148803
-0.001,0.362,0.925,-0.244,2148807
-0.001,0.362,0.925,-0.244,2148811
-0.003,0.363,0.927,-0.183,2148815
-0.003,0.363,0.927,-0.183,2148819
-0.002,0.362,0.926,-0.061,2148823
-0.002,0.362,0.926,-0.366,2148827
-0.002,0.362,0.926,-0.366,2148831
-0.0,0.361,0.925,-0.244,2148835
-0.0,0.361,0.925,-0.183,2148839
-0.001,0.36,0.927,-0.305,2148843
-0.001,0.36,0.927,-0.122,2148847
-0.001,0.36,0.927,-0.122,2148851
-0.003,0.361,0.927,-0.122,2148855
-0.003,0.361,0.927,-0.244,2148859
-0.001,0.361,0.926,-0.305,2148862
-0.001,0.361,0.926,-0.244,2148866
-0.001,0.361,0.926,-0.244,2148870
-0.001,0.361,0.926,-0.061,2148874
-0.001,0.361,0.926,-0.183,2148878
-0.003,0.361,0.925,-0.305,2148882
-0.003,0.361,0.925,-0.122,2148886
-0.003,0.361,0.925,-0.122,2148890
-0.003,0.361,0.926,-0.183,2148894
-0.003,0.361,0.926,-0.305,2148898
-0.002,0.361,0.926,-0.061,2148902
-0.002,0.361,0.926,-0.244,2148906
-0.002,0.361,0.926,-0.244,2148910
-0.002,0.361,0.927,-0.183,2148914
-0.002,0.361,0.927,-0.061,2148918
-0.002,0.362,0.927,-0.122,2148922
-0.002,0.362,0.927,-0.183,2148926
-0.002,0.362,0.927,-0.183,2148930
-0.001,0.362,0.927,-0.122,2148934
-0.001,0.362,0.927,-0.305,2148938
-0.004,0.361,0.927,-0.122,2148942
-0.004,0.361,0.927,-0.183,2148946
-0.004,0.361,0.927,-0.183,2148950
-0.002,0.362,0.925,-0.183,2148954
-0.002,0.362,0.925,-0.244,2148958
-0.002,0.361,0.926,-0.183,2148962
-0.002,0.361,0.926,-0.244,2148966
-0.002,0.361,0.926,-0.244,2148970
-0.003,0.361,0.927,-0.122,2148974
-0.003,0.361,0.927,-0.183,2148978
-0.003,0.361,0.927,-0.183,2148982
-0.003,0.361,0.927,-0.183,2148986
-0.003,0.361,0.927,-0.183,2148990
-0.002,0.362,0.927,-0.244,2148994
-0.002,0.362,0.927,-0.244,2148998
-0.002,0.362,0.927,0.0,2149002
-0.002,0.362,0.927,-0.122,2149005
-0.002,0.362,0.927,-0.122,2149009
-0.004,0.361,0.927,-0.183,2149013
-0.004,0.361,0.927,-0.244,2149017
-0.004,0.361,0.926,-0.122,2149021
-0.004,0.361,0.926,-0.244,2149025
-0.004,0.361,0.926,-0.244,2149029
-0.003,0.361,0.925,-0.122,2149033
-0.003,0.361,0.925,-0.122,2149037
-0.003,0.361,0.927,-0.122,2149041
-0.003,0.361,0.927,-0.183,2149045
-0.003,0.361,0.927,-0.183,2149049
-0.003,0.359,0.925,-0.122,2149053
-0.003,0.359,0.925,-0.122,2149057
-0.003,0.361,0.926,-0.183,2149061
-0.003,0.361,0.926,-0.244,2149065
-0.003,0.361,0.926,-0.244,2149069
-0.001,0.36,0.927,-0.183,2149073
-0.001,0.36,0.927,-0.061,2149077
-0.004,0.362,0.925,-0.122,2149081
-0.004,0.362,0.925,-0.183,2149085
-0.004,0.362,0.925,-0.183,2149089
-0.002,0.362,0.926,-0.122,2149093
-0.002,0.362,0.926,-0.061,2149097
-0.002,0.361,0.927,-0.244,2149101
-0.002,0.361,0.927,-0.366,2149105
-0.002,0.361,0.927,-0.366,2149109
-0.003,0.362,0.926,-0.122,2149113
-0.003,0.362,0.926,-0.122,2149117
-0.002,0.363,0.924,-0.183,2149121
-0.002,0.363,0.924,-0.122,2149125
-0.002,0.363,0.924,-0.122,2149129
-0.003,0.362,0.924,-0.122,2149133
-0.003,0.362,0.924,-0.122,2149137
-0.001,0.361,0.925,-0.061,2149141
-0.001,0.361,0.925,-0.122,2149145
-0.001,0.361,0.925,-0.122,2149149
-0.003,0.361,0.926,-0.061,2149153
-0.003,0.361,0.926,-0.061,2149157
-0.002,0.362,0.926,-0.244,2149161
-0.002,0.362,0.926,-0.183,2149165
-0.002,0.362,0.926,-0.183,2149169
0.0,0.362,0.925,-0.122,2149172
0.0,0.362,0.925,-0.244,2149176
-0.003,0.363,0.926,-0.183,2149180
-0.003,0.363,0.926,-0.183,2149184
-0.003,0.363,0.926,-0.183,2149188
-0.002,0.361,0.925,-0.244,2149192
-0.002,0.361,0.925,-0.305,2149196
-0.003,0.361,0.926,-0.244,2149200
-0.003,0.361,0.926,-0.244,2149204
-0.004,0.362,0.927,-0.244,2149208
-0.004,0.362,0.927,-0.244,2149212
-0.004,0.362,0.927,-0.183,2149216
-0.003,0.361,0.926,-0.244,2149220
-0.003,0.361,0.926,-0.244,2149224
-0.003,0.36,0.926,-0.244,2149228
-0.003,0.36,0.926,-0.244,2149232
-0.003,0.36,0.926,-0.183,2149236
-0.003,0.362,0.925,-0.122,2149240
-0.003,0.362,0.925,-0.183,2149244
-0.003,0.361,0.926,-0.122,2149248
-0.003,0.361,0.926,-0.122,2149252
-0.003,0.361,0.926,-0.183,2149256
-0.002,0.36,0.925,-0.061,2149260
-0.002,0.36,0.925,-0.183,2149264
-0.004,0.359,0.927,-0.366,2149268
-0.004,0.359,0.927,-0.366,2149272
-0.004,0.359,0.927,-0.183,2149276
-0.001,0.359,0.927,-0.122,2149280
-0.001,0.359,0.927,-0.244,2149284
-0.002,0.362,0.927,-0.061,2149288
-0.002,0.362,0.927,-0.061,2149292
-0.002,0.362,0.927,-0.244,2149296
-0.002,0.359,0.926,-0.244,2149300
-0.002,0.359,0.926,-0.183,2149304
-0.003,0.361,0.926,-0.183,2149308
-0.003,0.361,0.926,-0.183,2149312
-0.003,0.361,0.926,-0.244,2149316
-0.001,0.361,0.927,-0.244,2149320
-0.001,0.361,0.927,-0.122,2149324
-0.002,0.361,0.927,-0.183,2149328
-0.002,0.361,0.927,-0.183,2149332
-0.002,0.361,0.927,-0.183,2149336
-0.0,0.362,0.927,-0.183,2149339
-0.0,0.362,0.927,-0.305,2149343
-0.002,0.361,0.926,-0.122,2149347
-0.002,0.361,0.926,-0.122,2149351
-0.002,0.361,0.926,-0.122,2149355
-0.002,0.359,0.928,-0.122,2149359
-0.002,0.359,0.928,-0.305,2149363
-0.0,0.36,0.927,-0.122,2149367
-0.0,0.36,0.927,-0.122,2149371
-0.0,0.36,0.927,-0.244,2149375
-0.001,0.362,0.926,-0.244,2149379
-0.001,0.362,0.926,-0.122,2149383
-0.001,0.362,0.924,-0.122,2149387
-0.001,0.362,0.924,-0.122,2149391
-0.001,0.362,0.924,-0.244,2149395
-0.002,0.361,0.925,-0.183,2149399
-0.002,0.361,0.925,-0.183,2149403
-0.002,0.361,0.926,-0.244,2149407
-0.002,0.361,0.926,-0.244,2149411
-0.002,0.361,0.926,-0.183,2149415
-0.002,0.361,0.925,-0.244,2149419
-0.002,0.361,0.925,-0.122,2149423
-0.002,0.36,0.928,-0.183,2149427
-0.002,0.36,0.928,-0.183,2149431
-0.002,0.36,0.928,-0.244,2149435
-0.002,0.361,0.926,-0.305,2149439
-0.002,0.361,0.926,-0.122,2149443
-0.002,0.362,0.926,-0.122,2149447
-0.002,0.362,0.926,-0.122,2149451
-0.002,0.362,0.926,-0.183,2149455
-0.004,0.36,0.927,-0.244,2149459
-0.004,0.36,0.927,-0.305,2149463
-0.004,0.36,0.928,-0.244,2149467
-0.004,0.36,0.928,-0.244,2149471
-0.004,0.36,0.928,-0.183,2149475
-0.002,0.361,0.926,-0.061,2149479
-0.002,0.361,0.926,-0.122,2149483
-0.004,0.362,0.924,-0.122,2149487
-0.004,0.362,0.924,-0.122,2149491
-0.004,0.362,0.924,-0.183,2149494
-0.004,0.361,0.924,-0.244,2149498
-0.004,0.361,0.924,-0.183,2149502
-0.002,0.361,0.925,-0.122,2149506
-0.002,0.361,0.925,-0.122,2149510
-0.002,0.361,0.925,-0.183,2149514
-0.001,0.362,0.927,-0.244,2149518
-0.001,0.362,0.927,-0.183,2149522
-0.002,0.361,0.927,-0.305,2149526
-0.002,0.361,0.927,-0.305,2149530
-0.002,0.361,0.927,-0.183,2149534
-0.002,0.361,0.926,-0.122,2149538
-0.002,0.361,0.926,-0.183,2149542
-0.002,0.361,0.926,-0.122,2149546
-0.002,0.361,0.926,-0.122,2149550
-0.002,0.361,0.926,-0.122,2149554
-0.002,0.361,0.926,-0.183,2149558
-0.002,0.361,0.926,-0.244,2149562
-0.003,0.361,0.926,-0.183,2149566
-0.003,0.361,0.926,-0.183,2149570
-0.003,0.361,0.926,-0.122,2149574
-0.002,0.361,0.928,-0.183,2149578
-0.002,0.361,0.928,-0.183,2149582
-0.001,0.361,0.927,-0.305,2149586
-0.001,0.361,0.927,-0.305,2149590
-0.001,0.361,0.927,-0.183,2149594
-0.002,0.36,0.926,-0.061,2149598
-0.002,0.36,0.926,-0.183,2149602
-0.002,0.361,0.927,-0.183,2149606
-0.002,0.361,0.927,-0.183,2149610
-0.002,0.361,0.927,-0.244,2149614
-0.001,0.361,0.926,0.0,2149618
-0.001,0.361,0.926,-0.122,2149622
-0.004,0.361,0.926,-0.122,2149626
-0.004,0.361,0.926,-0.122,2149630
-0.004,0.361,0.926,-0.061,2149634
-0.002,0.361,0.928,-0.244,2149638
-0.002,0.361,0.928,-0.305,2149642
-0.001,0.36,0.927,-0.183,2149645
-0.001,0.36,0.927,-0.183,2149649
-0.001,0.36,0.927,-0.122,2149653
-0.002,0.36,0.927,-0.122,2149657
-0.002,0.36,0.927,-0.244,2149661
-0.001,0.362,0.928,-0.122,2149665
-0.001,0.362,0.928,-0.122,2149669
-0.001,0.362,0.928,-0.366,2149673
-0.001,0.361,0.926,-0.061,2149677
-0.001,0.361,0.926,-0.183,2149681
-0.002,0.36,0.927,-0.305,2149685
-0.002,0.36,0.927,-0.305,2149689
-0.002,0.36,0.927,-0.183,2149693
-0.002,0.362,0.926,-0.122,2149697
-0.002,0.362,0.926,-0.183,2149701
-0.005,0.362,0.926,-0.305,2149705
-0.005,0.362,0.926,-0.305,2149709
-0.005,0.362,0.926,-0.183,2149713
-0.003,0.362,0.927,-0.244,2149717
-0.003,0.362,0.927,-0.122,2149721
-0.002,0.36,0.925,-0.122,2149725
-0.002,0.36,0.925,-0.122,2149729
-0.002,0.36,0.925,-0.244,2149733
-0.004,0.361,0.926,-0.244,2149737
-0.004,0.361,0.926,-0.183,2149741
-0.004,0.361,0.926,-0.122,2149745
-0.004,0.361,0.926,-0.122,2149749
-0.004,0.361,0.926,-0.183,2149753
-0.002,0.361,0.925,-0.305,2149757
-0.002,0.361,0.925,-0.244,2149761
-0.002,0.362,0.926,-0.244,2149765
-0.002,0.362,0.926,-0.244,2149769
-0.002,0.362,0.926,-0.122,2149773
-0.002,0.361,0.927,-0.305,2149777
-0.002,0.361,0.927,-0.244,2149781
-0.002,0.36,0.927,-0.183,2149785
-0.002,0.36,0.927,-0.061,2149789
-0.002,0.36,0.927,-0.061,2149793
-0.003,0.36,0.927,-0.305,2149797
-0.003,0.36,0.927,-0.244,2149801
-0.002,0.361,0.926,-0.183,2149805
-0.002,0.361,0.926,-0.183,2149809
-0.002,0.361,0.926,-0.183,2149812
-0.001,0.361,0.925,-0.183,2149816
-0.001,0.361,0.925,-0.244,2149820
0.0,0.361,0.927,-0.305,2149824
0.0,0.361,0.927,-0.244,2149828
0.0,0.361,0.927,-0.244,2149832
-0.001,0.361,0.926,-0.183,2149836
-0.001,0.361,0.926,-0.183,2149840
-0.002,0.361,0.926,-0.122,2149844
-0.002,0.361,0.926,-0.061,2149848
-0.002,0.361,0.926,-0.061,2149852
-0.003,0.36,0.926,-0.183,2149856
-0.003,0.36,0.926,-0.244,2149860
-0.002,0.361,0.927,-0.183,2149864
-0.002,0.361,0.927,-0.183,2149868
-0.002,0.361,0.927,-0.183,2149872
-0.002,0.361,0.928,-0.244,2149876
-0.002,0.361,0.928,-0.244,2149880
-0.002,0.361,0.927,-0.183,2149884
-0.002,0.361,0.927,-0.183,2149888
-0.002,0.361,0.927,-0.183,2149892
-0.002,0.36,0.927,-0.122,2149896
-0.002,0.36,0.927,-0.122,2149900
-0.001,0.361,0.926,-0.122,2149904
-0.001,0.361,0.926,-0.122,2149908
-0.001,0.361,0.926,-0.122,2149912
-0.002,0.362,0.926,-0.061,2149916
-0.002,0.362,0.926,-0.183,2149920
-0.005,0.362,0.925,-0.305,2149924
-0.005,0.362,0.925,-0.183,2149928
-0.005,0.362,0.925,-0.183,2149932
-0.003,0.362,0.926,-0.122,2149936
-0.003,0.362,0.926,-0.244,2149940
-0.004,0.361,0.925,-0.305,2149944
-0.004,0.361,0.925,-0.122,2149948
-0.004,0.361,0.925,-0.122,2149952
-0.003,0.363,0.926,-0.122,2149956
-0.003,0.363,0.926,-0.122,2149959
-0.003,0.362,0.925,-0.122,2149963
-0.003,0.362,0.925,0.0,2149967
-0.003,0.362,0.925,0.0,2149971
-0.002,0.361,0.926,-0.122,2149975
-0.002,0.361,0.926,-0.183,2149979
-0.003,0.363,0.926,-0.183,2149983
-0.003,0.363,0.926,-0.183,2149987
-0.003,0.363,0.926,-0.183,2149991
-0.001,0.36,0.926,-0.183,2149995
-0.001,0.36,0.926,-0.183,2149999
-0.002,0.361,0.925,-0.061,2150003
-0.002,0.361,0.925,-0.183,2150007
-0.002,0.361,0.925,-0.183,2150011
-0.002,0.361,0.924,-0.122,2150015
-0.002,0.361,0.924,-0.183,2150019
-0.004,0.36,0.926,-0.427,2150023
-0.004,0.36,0.926,-0.366,2150027
-0.004,0.36,0.926,-0.366,2150031
-0.003,0.361,0.926,-0.305,2150035
-0.003,0.361,0.926,-0.061,2150039
-0.003,0.36,0.926,-0.244,2150043
-0.003,0.36,0.926,-0.183,2150047
-0.003,0.36,0.926,-0.183,2150051
-0.004,0.361,0.928,-0.244,2150055
-0.004,0.361,0.928,-0.244,2150059
-0.003,0.361,0.927,-0.183,2150063
-0.003,0.361,0.927,-0.244,2150067
-0.003,0.361,0.927,-0.244,2150071
-0.001,0.362,0.927,-0.244,2150075
-0.001,0.362,0.927,-0.122,2150079
-0.002,0.361,0.926,-0.244,2150083
-0.002,0.361,0.926,-0.183,2150087
-0.002,0.361,0.926,-0.183,2150091
-0.002,0.361,0.926,-0.183,2150094
-0.002,0.361,0.926,-0.183,2150098
-0.001,0.362,0.926,-0.183,2150102
-0.001,0.362,0.926,-0.183,2150106
-0.001,0.362,0.926,-0.183,2150110
-0.001,0.361,0.925,-0.244,2150114
-0.001,0.361,0.925,-0.183,2150118
-0.001,0.36,0.927,-0.183,2150122
-0.001,0.36,0.927,-0.183,2150126
-0.001,0.36,0.927,-0.183,2150130
-0.002,0.36,0.926,-0.122,2150134
-0.002,0.36,0.926,-0.183,2150138
-0.003,0.361,0.926,-0.183,2150142
-0.003,0.361,0.926,-0.183,2150146
-0.003,0.361,0.926,-0.183,2150150
-0.003,0.361,0.927,-0.305,2150154
-0.003,0.361,0.927,-0.305,2150158
-0.002,0.363,0.926,-0.244,2150162
-0.002,0.363,0.926,-0.183,2150166
-0.002,0.363,0.926,-0.183,2150170
-0.002,0.363,0.926,-0.183,2150174
-0.002,0.363,0.926,-0.122,2150178
-0.002,0.361,0.926,-0.122,2150182
-0.002,0.361,0.926,-0.183,2150186
-0.002,0.361,0.926,-0.183,2150190
-0.002,0.361,0.926,-0.305,2150194
-0.002,0.361,0.926,-0.366,2150198
-0.003,0.361,0.927,-0.122,2150202
-0.003,0.361,0.927,-0.122,2150206
-0.003,0.361,0.927,-0.122,2150210
-0.004,0.361,0.926,-0.122,2150214
-0.004,0.361,0.926,-0.183,2150218
-0.002,0.363,0.926,-0.183,2150222
-0.002,0.363,0.926,-0.305,2150226
-0.002,0.363,0.926,-0.305,2150230
-0.002,0.362,0.927,-0.122,2150234
-0.002,0.362,0.927,-0.122,2150238
-0.001,0.36,0.927,-0.183,2150241
-0.001,0.36,0.927,-0.305,2150245
-0.001,0.36,0.927,-0.305,2150249
-0.001,0.36,0.926,-0.183,2150253
-0.001,0.36,0.926,-0.183,2150257
-0.003,0.362,0.925,-0.244,2150261
-0.003,0.362,0.925,-0.122,2150265
-0.003,0.362,0.925,-0.122,2150269
-0.002,0.362,0.926,-0.122,2150273
-0.002,0.362,0.926,-0.244,2150277
-0.003,0.361,0.927,-0.122,2150281
-0.003,0.361,0.927,-0.183,2150285
-0.003,0.361,0.927,-0.183,2150289
-0.003,0.359,0.927,-0.244,2150293
-0.003,0.359,0.927,-0.305,2150297
-0.001,0.361,0.926,-0.122,2150301
-0.001,0.361,0.926,-0.183,2150305
-0.001,0.361,0.926,-0.183,2150309
-0.001,0.362,0.925,-0.305,2150313
-0.001,0.362,0.925,-0.244,2150317
-0.001,0.363,0.926,-0.061,2150321
-0.001,0.363,0.926,-0.244,2150325
-0.001,0.363,0.926,-0.244,2150329
-0.002,0.361,0.927,-0.305,2150333
-0.002,0.361,0.927,-0.244,2150337
-0.004,0.361,0.926,-0.183,2150341
-0.004,0.361,0.926,-0.183,2150345
-0.004,0.361,0.926,-0.183,2150349
-0.002,0.36,0.928,-0.122,2150353
-0.002,0.36,0.928,-0.122,2150357
0.001,0.36,0.926,-0.305,2150361
0.001,0.36,0.926,-0.305,2150365
0.001,0.36,0.926,-0.305,2150369
-0.002,0.361,0.927,-0.183,2150373
-0.002,0.361,0.927,-0.244,2150377
-0.003,0.362,0.926,-0.244,2150381
-0.003,0.362,0.926,-0.244,2150385
-0.003,0.362,0.926,-0.244,2150389
-0.002,0.362,0.927,-0.122,2150393
-0.002,0.362,0.927,-0.183,2150396
-0.002,0.361,0.926,-0.305,2150400
-0.002,0.361,0.926,-0.183,2150404
-0.002,0.361,0.926,-0.183,2150408
-0.002,0.361,0.926,-0.244,2150412
-0.002,0.361,0.926,-0.183,2150416
-0.0,0.361,0.925,-0.061,2150420
-0.0,0.361,0.925,-0.183,2150424
-0.0,0.361,0.925,-0.183,2150428
-0.001,0.361,0.926,-0.244,2150432
-0.001,0.361,0.926,-0.244,2150436
-0.001,0.36,0.927,-0.183,2150440
-0.001,0.36,0.927,-0.305,2150444
-0.001,0.36,0.927,-0.305,2150448
-0.002,0.362,0.927,-0.183,2150452
-0.002,0.362,0.927,-0.122,2150456
-0.001,0.362,0.925,-0.183,2150460
-0.001,0.362,0.925,-0.122,2150464
-0.001,0.362,0.925,-0.122,2150468
-0.001,0.361,0.927,-0.183,2150472
-0.001,0.361,0.927,-0.183,2150476
-0.001,0.36,0.926,-0.366,2150480
-0.001,0.36,0.926,-0.122,2150484
-0.001,0.36,0.926,-0.122,2150488
-0.002,0.362,0.928,-0.244,2150492
-0.002,0.362,0.928,-0.183,2150496
-0.002,0.362,0.927,-0.122,2150500
-0.002,0.362,0.927,-0.122,2150504
-0.002,0.362,0.927,-0.122,2150508
-0.003,0.36,0.926,-0.244,2150512
-0.003,0.36,0.926,-0.183,2150516
-0.002,0.361,0.926,-0.244,2150520
-0.002,0.361,0.926,-0.244,2150524
-0.002,0.361,0.926,-0.244,2150528
-0.002,0.362,0.926,-0.183,2150532
-0.002,0.362,0.926,-0.183,2150536
-0.002,0.361,0.924,-0.122,2150540
-0.002,0.361,0.924,-0.183,2150543
-0.002,0.361,0.924,-0.183,2150547
-0.003,0.36,0.925,-0.183,2150551
-0.003,0.36,0.925,-0.305,2150555
-0.0,0.361,0.928,-0.244,2150559
-0.0,0.361,0.928,-0.122,2150563
-0.0,0.361,0.928,-0.122,2150567
-0.002,0.362,0.927,-0.305,2150571
-0.002,0.362,0.927,-0.183,2150575
-0.002,0.36,0.927,-0.183,2150579
-0.002,0.36,0.927,-0.244,2150583
-0.002,0.36,0.927,-0.244,2150587
-0.001,0.361,0.927,-0.244,2150591
-0.001,0.361,0.927,-0.244,2150595
-0.001,0.361,0.926,-0.244,2150599
-0.001,0.361,0.926,-0.183,2150603
-0.001,0.361,0.926,-0.244,2150607
-0.001,0.361,0.926,-0.244,2150611
-0.001,0.361,0.926,-0.122,2150615
-0.003,0.361,0.926,-0.122,2150619
-0.003,0.361,0.926,-0.061,2150623
-0.001,0.361,0.927,-0.183,2150627
-0.001,0.361,0.927,-0.183,2150631
-0.001,0.361,0.927,-0.244,2150635
-0.001,0.361,0.926,-0.122,2150639
-0.001,0.361,0.926,-0.244,2150643
-0.002,0.362,0.925,-0.244,2150647
-0.002,0.362,0.925,-0.244,2150651
-0.002,0.362,0.925,-0.305,2150655
-0.002,0.361,0.926,-0.305,2150659
-0.002,0.361,0.926,-0.244,2150663
-0.002,0.361,0.927,-0.183,2150667
-0.002,0.361,0.927,-0.183,2150671
-0.002,0.361,0.927,-0.183,2150675
-0.003,0.364,0.926,-0.122,2150679
-0.003,0.364,0.926,-0.183,2150683
-0.0,0.361,0.927,-0.183,2150686
-0.0,0.361,0.927,-0.183,2150690
-0.0,0.361,0.927,-0.305,2150694
-0.003,0.36,0.926,-0.244,2150698
-0.003,0.36,0.926,-0.183,2150702
-0.003,0.362,0.926,-0.122,2150706
-0.003,0.362,0.926,-0.122,2150710
-0.003,0.362,0.926,0.061,2150714
-0.002,0.362,0.926,-0.244,2150718
-0.002,0.362,0.926,-0.122,2150722
-0.002,0.362,0.926,-0.305,2150726
-0.002,0.362,0.926,-0.305,2150730
-0.002,0.362,0.926,-0.061,2150734
-0.003,0.361,0.927,-0.122,2150738
-0.003,0.361,0.927,-0.183,2150742
-0.003,0.361,0.926,-0.061,2150746
-0.003,0.361,0.926,-0.061,2150750
-0.003,0.361,0.926,-0.244,2150754
-0.003,0.361,0.925,-0.244,2150758
-0.003,0.361,0.925,-0.244,2150762
-0.002,0.36,0.926,-0.183,2150766
-0.002,0.36,0.926,-0.183,2150770
-0.002,0.36,0.926,-0.183,2150774
-0.004,0.361,0.927,-0.061,2150778
-0.004,0.361,0.927,-0.061,2150782
-0.002,0.362,0.927,-0.183,2150786
-0.002,0.362,0.927,-0.183,2150790
-0.002,0.362,0.927,-0.183,2150794
-0.002,0.362,0.926,-0.122,2150798
-0.002,0.362,0.926,-0.244,2150802
-0.002,0.361,0.928,-0.305,2150806
-0.002,0.361,0.928,-0.305,2150810
-0.002,0.361,0.928,-0.122,2150814
-0.002,0.359,0.926,-0.122,2150818
-0.002,0.359,0.926,-0.305,2150822
-0.002,0.36,0.926,-0.183,2150826
-0.002,0.36,0.926,-0.183,2150830
-0.002,0.36,0.926,-0.305,2150834
-0.002,0.363,0.926,-0.244,2150837
-0.002,0.363,0.926,-0.183,2150841
-0.002,0.363,0.925,-0.061,2150845
-0.002,0.363,0.925,-0.061,2150849
-0.002,0.363,0.925,-0.183,2150853
-0.002,0.361,0.926,-0.244,2150857
-0.002,0.361,0.926,-0.183,2150861
-0.004,0.361,0.926,-0.122,2150865
-0.004,0.361,0.926,-0.122,2150869
-0.004,0.361,0.926,-0.061,2150873
-0.003,0.362,0.926,-0.061,2150877
-0.003,0.362,0.926,-0.244,2150881
-0.003,0.362,0.926,-0.244,2150885
-0.003,0.362,0.926,-0.244,2150889
-0.003,0.362,0.926,-0.122,2150893
-0.002,0.361,0.926,-0.244,2150897
-0.002,0.361,0.926,-0.305,2150901
-0.0,0.36,0.927,-0.122,2150905
-0.0,0.36,0.927,-0.122,2150909
-0.0,0.36,0.927,-0.244,2150913
-0.002,0.36,0.926,-0.183,2150917
-0.002,0.36,0.926,-0.305,2150921
-0.003,0.361,0.926,-0.244,2150925
-0.003,0.361,0.926,-0.244,2150929
-0.003,0.361,0.926,-0.244,2150933
-0.001,0.36,0.926,-0.305,2150937
-0.001,0.36,0.926,-0.183,2150941
-0.003,0.359,0.926,-0.183,2150945
-0.003,0.359,0.926,-0.183,2150949
-0.003,0.359,0.926,-0.183,2150953
-0.003,0.361,0.926,-0.244,2150957
-0.003,0.361,0.926,-0.183,2150961
-0.001,0.361,0.927,-0.122,2150965
-0.001,0.361,0.927,-0.122,2150969
-0.001,0.361,0.927,-0.183,2150973
-0.001,0.361,0.928,-0.183,2150977
-0.001,0.361,0.928,-0.183,2150981
-0.003,0.363,0.927,-0.122,2150985
-0.003,0.363,0.927,-0.122,2150988
-0.003,0.363,0.927,-0.244,2150992
-0.003,0.361,0.926,-0.244,2150996
-0.003,0.361,0.926,-0.305,2151000
-0.003,0.36,0.926,-0.244,2151004
-0.003,0.36,0.926,-0.244,2151008
-0.003,0.36,0.926,-0.244,2151012
-0.002,0.362,0.927,-0.244,2151016
-0.002,0.362,0.927,-0.183,2151020
-0.002,0.362,0.926,-0.061,2151024
-0.002,0.362,0.926,-0.061,2151028
-0.002,0.362,0.926,-0.183,2151032
-0.002,0.361,0.925,-0.183,2151036
-0.002,0.361,0.925,-0.122,2151040
-0.003,0.361,0.926,-0.183,2151044
-0.003,0.361,0.926,-0.183,2151048
-0.003,0.361,0.926,-0.061,2151052
-0.001,0.362,0.927,-0.122,2151056
-0.001,0.362,0.927,-0.427,2151060
-0.001,0.36,0.925,-0.122,2151064
-0.001,0.36,0.925,-0.122,2151068
-0.001,0.36,0.925,-0.183,2151072
0.0,0.361,0.928,-0.183,2151076
0.0,0.361,0.928,-0.122,2151080
-0.002,0.36,0.927,-0.183,2151084
-0.002,0.36,0.927,-0.183,2151088
-0.002,0.36,0.927,-0.244,2151092
-0.002,0.36,0.925,-0.305,2151096
-0.002,0.36,0.925,-0.183,2151100
-0.003,0.363,0.925,-0.122,2151104
-0.003,0.363,0.925,-0.122,2151108
-0.003,0.363,0.925,-0.244,2151112
-0.001,0.362,0.926,-0.244,2151116
-0.001,0.362,0.926,-0.244,2151120
-0.0,0.361,0.925,-0.244,2151124
-0.0,0.361,0.925,-0.244,2151128
-0.0,0.361,0.925,-0.122,2151132
-0.001,0.36,0.926,-0.122,2151135
-0.001,0.36,0.926,-0.122,2151139
-0.001,0.361,0.927,-0.061,2151143
-0.001,0.361,0.927,-0.061,2151147
-0.001,0.361,0.927,-0.366,2151151
-0.002,0.363,0.926,-0.366,2151155
-0.002,0.363,0.926,-0.122,2151159
-0.002,0.361,0.928,-0.183,2151163
-0.002,0.361,0.928,-0.183,2151167
-0.002,0.361,0.928,-0.061,2151171
-0.002,0.362,0.927,-0.122,2151175
-0.002,0.362,0.927,-0.061,2151179
-0.003,0.361,0.926,-0.061,2151183
-0.003,0.361,0.926,-0.061,2151187
-0.003,0.361,0.926,-0.183,2151191
-0.003,0.36,0.928,-0.183,2151195
-0.003,0.36,0.928,-0.122,2151199
-0.001,0.361,0.927,-0.244,2151203
-0.001,0.361,0.927,-0.244,2151207
-0.001,0.361,0.927,-0.244,2151211
-0.003,0.36,0.927,-0.183,2151215
-0.003,0.36,0.927,-0.122,2151219
-0.005,0.361,0.926,-0.122,2151223
-0.005,0.361,0.926,-0.122,2151227
-0.005,0.361,0.926,-0.122,2151231
-0.003,0.362,0.927,0.0,2151235
-0.003,0.362,0.927,-0.183,2151239
-0.002,0.361,0.926,-0.244,2151243
-0.002,0.361,0.926,-0.244,2151247
-0.002,0.361,0.926,0.0,2151251
-0.003,0.361,0.926,-0.244,2151255
-0.003,0.361,0.926,-0.366,2151259
-0.003,0.361,0.926,-0.305,2151263
-0.003,0.361,0.926,-0.305,2151266
-0.003,0.361,0.926,-0.366,2151270
-0.002,0.361,0.926,-0.244,2151274
-0.002,0.361,0.926,-0.244,2151278
-0.003,0.36,0.925,-0.122,2151282
-0.003,0.36,0.925,-0.122,2151286
-0.003,0.36,0.925,-0.183,2151290
-0.001,0.361,0.926,-0.244,2151294
-0.001,0.361,0.926,-0.244,2151298
-0.003,0.363,0.926,-0.244,2151302
-0.003,0.363,0.926,-0.244,2151306
-0.003,0.363,0.926,-0.244,2151310
-0.002,0.362,0.926,0.0,2151314
-0.002,0.362,0.926,-0.244,2151318
-0.002,0.362,0.925,-0.244,2151322
-0.002,0.362,0.925,-0.244,2151326
-0.002,0.362,0.925,-0.244,2151330
-0.002,0.36,0.925,-0.183,2151334
-0.002,0.36,0.925,-0.427,2151338
-0.002,0.36,0.927,-0.305,2151342
-0.002,0.36,0.927,-0.305,2151346
-0.002,0.36,0.927,-0.183,2151350
-0.001,0.363,0.927,-0.183,2151354
-0.001,0.363,0.927,0.0,2151358
-0.002,0.362,0.925,-0.122,2151362
-0.002,0.362,0.925,-0.122,2151366
-0.002,0.362,0.925,-0.244,2151370
-0.003,0.36,0.926,-0.244,2151374
-0.003,0.36,0.926,-0.183,2151378
-0.002,0.36,0.926,-0.122,2151382
-0.002,0.36,0.926,-0.122,2151386
-0.002,0.36,0.926,-0.183,2151390
-0.001,0.361,0.927,-0.244,2151394
-0.001,0.361,0.927,-0.122,2151398
-0.001,0.361,0.927,-0.183,2151402
-0.001,0.361,0.927,-0.183,2151406
-0.001,0.361,0.927,-0.244,2151409
-0.002,0.363,0.925,-0.122,2151413
-0.002,0.363,0.925,0.061,2151417
-0.002,0.361,0.925,-0.122,2151421
-0.002,0.361,0.925,-0.122,2151425
-0.002,0.361,0.925,-0.305,2151429
-0.002,0.359,0.926,-0.244,2151433
-0.002,0.359,0.926,-0.244,2151437
-0.002,0.362,0.927,-0.183,2151441
-0.002,0.362,0.927,-0.183,2151445
-0.002,0.362,0.927,-0.183,2151449
-0.003,0.361,0.927,-0.183,2151453
-0.003,0.361,0.927,-0.122,2151457
-0.002,0.36,0.926,-0.122,2151461
-0.002,0.36,0.926,-0.122,2151465
-0.002,0.36,0.926,-0.244,2151469
-0.003,0.362,0.925,-0.122,2151473
-0.003,0.362,0.925,-0.244,2151477
-0.002,0.362,0.926,-0.183,2151481
-0.002,0.362,0.926,-0.244,2151485
-0.002,0.362,0.926,-0.244,2151489
-0.003,0.361,0.925,-0.305,2151493
-0.003,0.361,0.925,-0.183,2151497
-0.004,0.361,0.923,-0.305,2151501
-0.004,0.361,0.923,-0.183,2151505
-0.004,0.361,0.923,-0.183,2151509
-0.003,0.361,0.924,-0.183,2151513
-0.003,0.361,0.924,-0.183,2151517
-0.001,0.359,0.926,-0.061,2151521
-0.001,0.359,0.926,0.0,2151525
-0.001,0.359,0.926,0.0,2151529
-0.003,0.36,0.927,-0.061,2151533
-0.003,0.36,0.927,-0.244,2151537
-0.003,0.36,0.927,-0.183,2151541
-0.003,0.36,0.927,-0.183,2151545
-0.003,0.36,0.927,-0.183,2151548
-0.003,0.36,0.926,-0.122,2151552
-0.003,0.36,0.926,-0.183,2151556
-0.002,0.362,0.926,-0.244,2151560
-0.002,0.362,0.926,-0.305,2151564
-0.002,0.362,0.926,-0.305,2151568
-0.0,0.36,0.926,-0.183,2151572
-0.0,0.36,0.926,-0.183,2151576
-0.001,0.361,0.926,-0.061,2151580
-0.001,0.361,0.926,-0.061,2151584
-0.001,0.361,0.926,-0.061,2151588
-0.002,0.361,0.928,-0.366,2151592
-0.002,0.361,0.928,-0.244,2151596
-0.002,0.361,0.926,-0.061,2151600
-0.002,0.361,0.926,-0.183,2151604
-0.002,0.361,0.926,-0.183,2151608
-0.001,0.361,0.925,-0.244,2151612
-0.001,0.361,0.925,-0.305,2151616
-0.003,0.36,0.927,-0.183,2151620
-0.003,0.36,0.927,-0.122,2151624
-0.003,0.36,0.927,-0.122,2151628
-0.003,0.361,0.926,-0.183,2151632
-0.003,0.361,0.926,-0.122,2151636
-0.001,0.361,0.926,-0.183,2151640
-0.001,0.361,0.926,-0.244,2151644
-0.001,0.361,0.926,-0.244,2151648
-0.001,0.361,0.928,-0.122,2151652
-0.001,0.361,0.928,-0.061,2151656
-0.003,0.362,0.927,-0.244,2151660
-0.003,0.362,0.927,-0.183,2151664
-0.003,0.362,0.927,-0.183,2151668
-0.001,0.361,0.924,-0.061,2151672
-0.001,0.361,0.924,-0.122,2151676
0.0,0.361,0.927,-0.305,2151680
0.0,0.361,0.927,-0.244,2151683
0.0,0.361,0.927,-0.244,2151687
-0.002,0.362,0.925,-0.122,2151691
-0.002,0.362,0.925,-0.183,2151695
-0.002,0.359,0.927,-0.305,2151699
-0.002,0.359,0.927,-0.183,2151703
-0.002,0.359,0.927,-0.183,2151707
-0.002,0.361,0.927,-0.061,2151711
-0.002,0.361,0.927,-0.122,2151715
-0.003,0.361,0.925,-0.244,2151719
-0.003,0.361,0.925,-0.183,2151723
-0.003,0.361,0.925,-0.183,2151727
-0.004,0.362,0.926,-0.244,2151731
-0.004,0.362,0.926,-0.244,2151735
-0.004,0.361,0.925,-0.244,2151739
-0.004,0.361,0.925,-0.305,2151743
-0.004,0.361,0.925,-0.305,2151747
-0.003,0.361,0.926,-0.122,2151751
-0.003,0.361,0.926,-0.183,2151755
-0.003,0.362,0.926,-0.305,2151759
-0.003,0.362,0.926,-0.244,2151763
-0.003,0.362,0.926,-0.244,2151767
-0.002,0.362,0.925,-0.122,2151771
-0.002,0.362,0.925,-0.122,2151775
-0.002,0.362,0.927,-0.244,2151779
-0.002,0.362,0.927,-0.366,2151783
-0.002,0.362,0.927,-0.366,2151787
-0.002,0.361,0.925,-0.122,2151791
-0.002,0.361,0.925,0.0,2151795
-0.002,0.36,0.925,-0.183,2151799
-0.002,0.36,0.925,-0.244,2151803
-0.002,0.36,0.925,-0.244,2151807
-0.003,0.361,0.927,-0.183,2151811
-0.003,0.361,0.927,-0.183,2151815
-0.001,0.362,0.927,-0.122,2151819
-0.001,0.362,0.927,-0.183,2151823
-0.001,0.362,0.927,-0.183,2151826
-0.002,0.363,0.925,-0.305,2151830
-0.002,0.363,0.925,-0.244,2151834
-0.002,0.361,0.927,0.0,2151838
-0.002,0.361,0.927,-0.061,2151842
-0.002,0.361,0.927,-0.061,2151846
-0.001,0.362,0.927,-0.183,2151850
-0.001,0.362,0.927,-0.244,2151854
-0.001,0.361,0.926,-0.244,2151858
-0.001,0.361,0.926,-0.366,2151862
-0.001,0.361,0.926,-0.366,2151866
-0.001,0.361,0.925,-0.305,2151870
-0.001,0.361,0.925,-0.244,2151874
-0.003,0.362,0.926,-0.183,2151878
-0.003,0.362,0.926,-0.244,2151882
-0.003,0.362,0.926,-0.244,2151886
-0.002,0.359,0.926,-0.183,2151890
-0.002,0.359,0.926,-0.183,2151894
0.0,0.359,0.925,-0.244,2151898
0.0,0.359,0.925,-0.061,2151902
0.0,0.359,0.925,-0.061,2151906
-0.002,0.359,0.927,-0.122,2151910
-0.002,0.359,0.927,-0.122,2151914
-0.002,0.36,0.925,-0.183,2151918
-0.002,0.36,0.925,-0.183,2151922
-0.002,0.36,0.925,-0.183,2151926
-0.001,0.361,0.927,-0.244,2151930
-0.001,0.361,0.927,-0.183,2151934
-0.002,0.36,0.926,-0.244,2151938
-0.002,0.36,0.926,-0.244,2151942
-0.002,0.36,0.926,-0.244,2151946
-0.003,0.359,0.926,-0.244,2151950
-0.003,0.359,0.926,-0.305,2151954
-0.001,0.362,0.926,-0.305,2151958
-0.001,0.362,0.926,-0.488,2151962
-0.001,0.362,0.926,-0.488,2151966
-0.002,0.361,0.926,-0.244,2151970
-0.002,0.361,0.926,-0.061,2151974
-0.001,0.362,0.925,-0.122,2151978
-0.001,0.362,0.925,-0.183,2151981
-0.001,0.362,0.925,-0.183,2151985
-0.001,0.361,0.925,-0.244,2151989
-0.001,0.361,0.925,-0.244,2151993
-0.003,0.36,0.927,-0.183,2151997
-0.003,0.36,0.927,-0.183,2152001
-0.003,0.36,0.927,-0.183,2152005
-0.004,0.361,0.926,-0.244,2152009
-0.004,0.361,0.926,-0.122,2152013
-0.002,0.361,0.925,-0.305,2152017
-0.002,0.361,0.925,-0.244,2152021
-0.002,0.361,0.925,-0.244,2152025
-0.001,0.361,0.927,-0.366,2152029
-0.001,0.361,0.927,-0.244,2152033
-0.003,0.36,0.927,-0.183,2152037
-0.003,0.36,0.927,-0.244,2152041
-0.003,0.36,0.927,-0.244,2152045
-0.004,0.362,0.927,-0.122,2152049
-0.004,0.362,0.927,-0.183,2152053
-0.001,0.362,0.927,-0.244,2152057
-0.001,0.362,0.927,-0.244,2152061
-0.001,0.362,0.927,-0.244,2152065
-0.001,0.361,0.925,-0.183,2152069
-0.001,0.361,0.925,-0.244,2152073
-0.001,0.361,0.925,-0.305,2152077
-0.001,0.361,0.925,-0.183,2152081
-0.001,0.361,0.925,-0.183,2152085
-0.003,0.361,0.926,-0.183,2152089
-0.003,0.361,0.926,-0.183,2152093
-0.002,0.36,0.927,-0.183,2152097
-0.002,0.36,0.927,-0.244,2152101
-0.002,0.36,0.927,-0.244,2152105
-0.003,0.361,0.926,-0.244,2152109
-0.003,0.361,0.926,-0.122,2152113
-0.002,0.362,0.926,-0.244,2152117
-0.002,0.362,0.926,-0.244,2152121
-0.002,0.362,0.926,-0.244,2152125
-0.002,0.362,0.927,-0.183,2152129
-0.002,0.362,0.927,-0.305,2152133
-0.002,0.361,0.926,-0.244,2152137
-0.002,0.361,0.926,-0.183,2152141
-0.002,0.361,0.926,-0.183,2152145
-0.003,0.361,0.926,-0.183,2152148
-0.003,0.361,0.926,-0.305,2152152
-0.003,0.362,0.927,-0.183,2152156
-0.003,0.362,0.927,-0.122,2152160
-0.003,0.362,0.927,-0.122,2152164
-0.002,0.36,0.925,-0.183,2152168
-0.002,0.36,0.925,-0.183,2152172
-0.002,0.361,0.925,-0.244,2152176
-0.002,0.361,0.925,-0.244,2152180
-0.002,0.361,0.925,-0.244,2152184
-0.001,0.362,0.927,-0.183,2152188
-0.001,0.362,0.927,-0.305,2152192
-0.002,0.36,0.926,-0.305,2152196
-0.002,0.36,0.926,-0.061,2152200
-0.002,0.36,0.926,-0.061,2152204
-0.002,0.36,0.924,-0.061,2152208
-0.002,0.36,0.924,0.0,2152212
-0.003,0.361,0.926,-0.183,2152216
-0.003,0.361,0.926,-0.122,2152220
-0.003,0.361,0.926,-0.122,2152224
-0.002,0.363,0.926,-0.183,2152228
-0.002,0.363,0.926,-0.305,2152232
-0.001,0.361,0.924,-0.305,2152236
-0.001,0.361,0.924,-0.183,2152240
-0.001,0.361,0.924,-0.183,2152244
-0.003,0.361,0.925,-0.183,2152248
-0.003,0.361,0.925,-0.183,2152252
-0.003,0.359,0.926,-0.183,2152256
-0.003,0.359,0.926,-0.244,2152260
-0.003,0.359,0.926,-0.244,2152264
-0.001,0.36,0.926,-0.122,2152268
-0.001,0.36,0.926,-0.122,2152272
-0.003,0.361,0.926,-0.305,2152276
-0.003,0.361,0.926,-0.244,2152280
-0.003,0.361,0.926,-0.244,2152284
-0.003,0.361,0.925,-0.122,2152288
-0.003,0.361,0.925,-0.061,2152292
-0.002,0.361,0.925,-0.122,2152296
-0.002,0.361,0.925,-0.244,2152299
-0.001,0.359,0.925,-0.122,2152303
-0.001,0.359,0.925,-0.122,2152307
-0.001,0.359,0.925,-0.183,2152311
-0.003,0.362,0.924,-0.244,2152315
-0.003,0.362,0.924,-0.183,2152319
-0.001,0.362,0.925,-0.244,2152323
-0.001,0.362,0.925,-0.244,2152327
-0.001,0.362,0.925,-0.183,2152331
-0.001,0.361,0.925,-0.122,2152335
-0.001,0.361,0.925,-0.122,2152339
-0.001,0.362,0.925,-0.122,2152343
-0.001,0.362,0.925,-0.122,2152347
-0.001,0.362,0.925,-0.244,2152351
-0.001,0.363,0.928,-0.305,2152355
-0.001,0.363,0.928,-0.122,2152359
-0.002,0.361,0.929,-0.244,2152363
-0.002,0.361,0.929,-0.244,2152367
-0.002,0.361,0.929,-0.244,2152371
-0.001,0.36,0.926,-0.244,2152375
-0.001,0.36,0.926,-0.244,2152379
-0.003,0.361,0.925,-0.061,2152383
-0.003,0.361,0.925,-0.061,2152387
-0.003,0.361,0.925,-0.061,2152391
-0.003,0.361,0.925,-0.305,2152395
-0.003,0.361,0.925,-0.244,2152399
-0.003,0.363,0.926,-0.244,2152403
-0.003,0.363,0.926,-0.244,2152407
-0.003,0.363,0.926,-0.183,2152411
-0.001,0.363,0.927,-0.183,2152415
-0.001,0.363,0.927,-0.305,2152419
-0.001,0.362,0.926,-0.305,2152423
-0.001,0.362,0.926,-0.305,2152427
-0.001,0.362,0.926,-0.122,2152431
-0.001,0.361,0.926,-0.122,2152435
-0.001,0.361,0.926,-0.183,2152439
-0.002,0.359,0.923,-0.183,2152443
-0.002,0.359,0.923,-0.183,2152447
-0.002,0.359,0.923,-0.122,2152451
-0.002,0.361,0.925,-0.244,2152455
-0.002,0.361,0.925,-0.183,2152459
-0.002,0.361,0.928,-0.305,2152462
-0.002,0.361,0.928,-0.305,2152466
-0.002,0.361,0.928,-0.305,2152470
-0.002,0.363,0.928,-0.244,2152474
-0.002,0.363,0.928,-0.061,2152478
-0.003,0.361,0.926,-0.183,2152482
-0.003,0.361,0.926,-0.183,2152486
-0.003,0.361,0.926,-0.244,2152490
-0.002,0.361,0.926,-0.305,2152494
-0.002,0.361,0.926,-0.244,2152498
-0.003,0.361,0.927,-0.183,2152502
-0.003,0.361,0.927,-0.183,2152506
-0.003,0.361,0.927,-0.183,2152510
-0.003,0.361,0.927,-0.183,2152514
-0.003,0.361,0.927,-0.183,2152518
-0.003,0.361,0.926,-0.183,2152522
-0.003,0.361,0.926,-0.183,2152526
-0.003,0.361,0.926,-0.305,2152530
-0.003,0.361,0.926,-0.305,2152534
-0.003,0.361,0.926,-0.305,2152538
-0.004,0.361,0.927,-0.122,2152542
-0.004,0.361,0.927,-0.122,2152546
-0.004,0.361,0.927,-0.122,2152550
-0.003,0.36,0.928,-0.244,2152554
-0.003,0.36,0.928,0.0,2152558
-0.002,0.361,0.926,-0.183,2152562
-0.002,0.361,0.926,-0.183,2152566
-0.002,0.361,0.926,-0.122,2152570
-0.003,0.36,0.926,-0.183,2152574
-0.003,0.36,0.926,-0.305,2152578
-0.003,0.36,0.926,-0.122,2152582
-0.003,0.36,0.926,-0.122,2152586
-0.003,0.36,0.926,-0.122,2152590
-0.004,0.362,0.925,-0.183,2152594
-0.004,0.362,0.925,-0.122,2152598
-0.003,0.361,0.926,-0.244,2152602
-0.003,0.361,0.926,-0.244,2152606
-0.003,0.361,0.926,-0.122,2152609
-0.002,0.359,0.927,-0.122,2152613
-0.002,0.359,0.927,-0.305,2152617
-0.002,0.36,0.925,-0.305,2152621
-0.002,0.36,0.925,-0.305,2152625
-0.002,0.36,0.925,-0.366,2152629
-0.002,0.362,0.925,-0.122,2152633
-0.002,0.362,0.925,-0.183,2152637
-0.002,0.363,0.927,-0.183,2152641
-0.002,0.363,0.927,-0.183,2152645
-0.002,0.363,0.927,-0.183,2152649
-0.002,0.362,0.927,-0.244,2152653
-0.002,0.362,0.927,-0.183,2152657
-0.002,0.361,0.926,-0.244,2152661
-0.002,0.361,0.926,-0.244,2152665
-0.002,0.361,0.926,-0.122,2152669
-0.002,0.361,0.927,-0.183,2152673
-0.002,0.361,0.927,-0.244,2152677
-0.002,0.362,0.926,-0.183,2152681
-0.002,0.362,0.926,-0.183,2152685
-0.002,0.362,0.926,-0.183,2152689
-0.002,0.362,0.924,-0.061,2152693
-0.002,0.362,0.924,-0.305,2152697
-0.003,0.361,0.926,-0.305,2152701
-0.003,0.361,0.926,-0.305,2152705
-0.003,0.361,0.926,-0.183,2152709
-0.003,0.362,0.926,-0.244,2152713
-0.003,0.362,0.926,-0.244,2152717
-0.003,0.36,0.926,-0.122,2152721
-0.003,0.36,0.926,-0.122,2152725
-0.003,0.36,0.926,-0.122,2152729
-0.001,0.361,0.926,-0.183,2152733
-0.001,0.361,0.926,-0.244,2152737
-0.004,0.361,0.928,-0.244,2152741
-0.004,0.361,0.928,-0.244,2152745
-0.004,0.361,0.928,-0.305,2152749
-0.002,0.362,0.926,-0.244,2152753
-0.002,0.362,0.926,-0.122,2152757
-0.002,0.36,0.924,-0.122,2152761
-0.002,0.36,0.924,-0.122,2152765
-0.002,0.36,0.924,-0.183,2152769
-0.001,0.361,0.926,-0.305,2152772
-0.001,0.361,0.926,-0.244,2152776
-0.003,0.362,0.926,-0.183,2152780
-0.003,0.362,0.926,-0.183,2152784
-0.003,0.362,0.926,-0.244,2152788
-0.002,0.36,0.925,-0.244,2152792
-0.002,0.36,0.925,-0.122,2152796
-0.001,0.361,0.926,-0.183,2152800
-0.001,0.361,0.926,-0.183,2152804
-0.001,0.361,0.926,-0.244,2152808
-0.002,0.36,0.926,-0.183,2152812
-0.002,0.36,0.926,-0.183,2152816
-0.001,0.36,0.926,-0.244,2152820
-0.001,0.36,0.926,-0.244,2152824
-0.001,0.36,0.926,-0.366,2152828
-0.001,0.362,0.927,-0.366,2152832
-0.001,0.362,0.927,-0.244,2152836
-0.002,0.361,0.926,-0.061,2152840
-0.002,0.361,0.926,-0.061,2152844
-0.002,0.361,0.926,-0.183,2152848
-0.001,0.361,0.926,-0.122,2152852
-0.001,0.361,0.926,-0.122,2152856
-0.0,0.361,0.927,-0.183,2152860
-0.0,0.361,0.927,-0.183,2152864
-0.0,0.361,0.927,-0.183,2152868
-0.002,0.36,0.927,-0.183,2152872
-0.002,0.36,0.927,-0.244,2152876
-0.002,0.36,0.927,-0.183,2152880
-0.002,0.36,0.927,-0.244,2152884
-0.002,0.36,0.927,-0.244,2152888
-0.001,0.361,0.927,-0.122,2152892
-0.001,0.361,0.927,-0.183,2152896
-0.003,0.362,0.925,-0.305,2152900
-0.003,0.362,0.925,-0.183,2152904
-0.003,0.362,0.925,-0.183,2152908
-0.003,0.361,0.925,-0.122,2152912
-0.003,0.361,0.925,-0.061,2152916
-0.002,0.36,0.926,-0.183,2152920
-0.002,0.36,0.926,-0.183,2152924
-0.002,0.36,0.926,-0.183,2152928
-0.003,0.36,0.926,-0.122,2152932
-0.003,0.36,0.926,-0.183,2152935
-0.003,0.361,0.927,-0.183,2152939
-0.003,0.361,0.927,-0.244,2152943
-0.003,0.361,0.927,-0.244,2152947
-0.004,0.362,0.927,-0.183,2152951
-0.004,0.362,0.927,-0.122,2152955
-0.003,0.361,0.926,-0.244,2152959
-0.003,0.361,0.926,-0.305,2152963
-0.003,0.361,0.926,-0.305,2152967
-0.003,0.361,0.926,-0.183,2152971
-0.003,0.361,0.926,-0.183,2152975
-0.001,0.36,0.926,-0.122,2152979
-0.001,0.36,0.926,-0.183,2152983
-0.001,0.36,0.926,-0.183,2152987
-0.001,0.361,0.924,-0.305,2152991
-0.001,0.361,0.924,-0.305,2152995
-0.002,0.362,0.926,-0.366,2152999
-0.002,0.362,0.926,-0.305,2153003
-0.002,0.362,0.926,-0.305,2153007
-0.001,0.361,0.927,-0.183,2153011
-0.001,0.361,0.927,-0.122,2153015
-0.001,0.36,0.924,-0.244,2153019
-0.001,0.36,0.924,-0.244,2153023
-0.001,0.36,0.924,-0.244,2153027
-0.001,0.36,0.926,-0.305,2153031
-0.001,0.36,0.926,-0.244,2153035
-0.002,0.36,0.926,-0.183,2153039
-0.002,0.36,0.926,-0.122,2153043
-0.002,0.36,0.926,-0.122,2153047
-0.002,0.36,0.926,-0.183,2153051
-0.002,0.36,0.926,-0.244,2153055
-0.003,0.362,0.927,-0.122,2153059
-0.003,0.362,0.927,-0.183,2153063
-0.003,0.362,0.927,-0.183,2153066
-0.003,0.361,0.926,-0.122,2153070
-0.003,0.361,0.926,-0.366,2153074
-0.001,0.359,0.926,-0.305,2153078
-0.001,0.359,0.926,-0.183,2153082
-0.001,0.359,0.926,-0.183,2153086
-0.002,0.362,0.926,-0.244,2153090
-0.002,0.362,0.926,-0.183,2153094
-0.0,0.362,0.926,-0.183,2153098
-0.0,0.362,0.926,-0.305,2153102
-0.0,0.362,0.926,-0.305,2153106
-0.001,0.361,0.926,-0.244,2153110
-0.001,0.361,0.926,-0.244,2153114
-0.001,0.36,0.928,-0.183,2153118
-0.001,0.36,0.928,-0.061,2153122
-0.001,0.36,0.928,-0.061,2153126
-0.002,0.362,0.926,-0.183,2153130
-0.002,0.362,0.926,-0.183,2153134
-0.001,0.361,0.927,-0.183,2153138
-0.001,0.361,0.927,-0.183,2153142
-0.001,0.361,0.927,-0.183,2153146
-0.002,0.362,0.925,-0.244,2153150
-0.002,0.362,0.925,-0.305,2153154
-0.002,0.36,0.927,-0.183,2153158
-0.002,0.36,0.927,-0.305,2153162
-0.002,0.36,0.927,-0.305,2153166
-0.003,0.362,0.926,-0.122,2153170
-0.003,0.362,0.926,-0.183,2153174
-0.002,0.361,0.926,-0.183,2153178
-0.002,0.361,0.926,-0.183,2153182
-0.002,0.361,0.926,-0.183,2153186
-0.002,0.361,0.925,-0.305,2153190
-0.002,0.361,0.925,-0.244,2153194
-0.002,0.362,0.924,-0.244,2153198
-0.002,0.362,0.924,-0.183,2153202
-0.002,0.362,0.924,-0.183,2153206
-0.003,0.361,0.926,-0.183,2153210
-0.003,0.361,0.926,-0.183,2153214
-0.004,0.361,0.925,-0.244,2153218
-0.004,0.361,0.925,-0.183,2153222
-0.004,0.361,0.925,-0.183,2153225
-0.002,0.361,0.924,-0.122,2153229
-0.002,0.361,0.924,-0.122,2153233
-0.002,0.36,0.927,-0.244,2153237
-0.002,0.36,0.927,-0.122,2153241
-0.002,0.36,0.927,-0.122,2153245
-0.001,0.361,0.926,-0.244,2153249
-0.001,0.361,0.926,-0.366,2153253
-0.003,0.36,0.926,-0.305,2153257
-0.003,0.36,0.926,-0.183,2153261
-0.003,0.36,0.926,-0.183,2153265
-0.003,0.361,0.926,-0.061,2153269
-0.003,0.361,0.926,-0.061,2153273
-0.002,0.36,0.925,-0.122,2153277
-0.002,0.36,0.925,-0.183,2153281
-0.002,0.36,0.925,-0.183,2153285
-0.002,0.362,0.927,-0.122,2153289
-0.002,0.362,0.927,-0.122,2153293
-0.001,0.362,0.927,-0.244,2153297
-0.001,0.362,0.927,-0.183,2153301
-0.001,0.362,0.927,-0.183,2153305
-0.003,0.362,0.928,-0.061,2153309
-0.003,0.362,0.928,-0.122,2153313
-0.002,0.361,0.927,-0.122,2153317
-0.002,0.361,0.927,-0.244,2153321
-0.002,0.361,0.927,-0.244,2153325
-0.003,0.361,0.926,-0.122,2153329
-0.003,0.361,0.926,-0.183,2153333
-0.002,0.361,0.927,-0.122,2153337
-0.002,0.361,0.927,-0.244,2153341
-0.002,0.361,0.927,-0.244,2153345
-0.003,0.359,0.927,-0.244,2153349
-0.003,0.359,0.927,-0.183,2153353
-0.002,0.36,0.926,-0.122,2153357
-0.002,0.36,0.926,-0.183,2153361
-0.002,0.36,0.926,-0.183,2153365
-0.002,0.36,0.924,-0.244,2153369
-0.002,0.36,0.924,-0.244,2153373
-0.002,0.359,0.925,-0.122,2153377
-0.002,0.359,0.925,-0.122,2153380
-0.002,0.359,0.925,-0.122,2153384
-0.003,0.361,0.926,-0.183,2153388
-0.003,0.361,0.926,-0.183,2153392
-0.003,0.361,0.926,-0.244,2153396
-0.003,0.361,0.926,-0.183,2153400
-0.003,0.361,0.926,-0.183,2153404
-0.001,0.36,0.926,-0.122,2153408
-0.001,0.36,0.926,-0.305,2153412
-0.001,0.361,0.924,-0.305,2153416
-0.001,0.361,0.924,-0.122,2153420
-0.001,0.361,0.924,-0.122,2153424
-0.002,0.361,0.926,-0.061,2153428
-0.002,0.361,0.926,-0.122,2153432
-0.003,0.361,0.926,-0.122,2153436
-0.003,0.361,0.926,-0.244,2153440
-0.003,0.361,0.926,-0.244,2153444
-0.001,0.36,0.926,-0.122,2153448
-0.001,0.36,0.926,-0.305,2153452
-0.003,0.361,0.926,-0.366,2153456
-0.003,0.361,0.926,-0.244,2153460
-0.003,0.361,0.926,-0.244,2153464
-0.002,0.361,0.927,-0.122,2153468
-0.002,0.361,0.927,-0.183,2153472
-0.0,0.362,0.927,-0.305,2153476
-0.0,0.362,0.927,-0.183,2153480
-0.0,0.362,0.927,-0.183,2153484
-0.001,0.361,0.925,-0.122,2153488
-0.001,0.361,0.925,-0.183,2153492
-0.003,0.361,0.927,-0.244,2153496
-0.003,0.361,0.927,-0.305,2153500
-0.003,0.361,0.927,-0.305,2153504
-0.002,0.361,0.927,-0.122,2153508
-0.002,0.361,0.927,-0.061,2153512
-0.002,0.362,0.926,-0.305,2153516
-0.002,0.362,0.926,-0.305,2153520
-0.002,0.362,0.926,-0.305,2153524
-0.003,0.361,0.927,-0.183,2153528
-0.003,0.361,0.927,-0.305,2153532
-0.004,0.361,0.926,-0.183,2153536
-0.004,0.361,0.926,-0.183,2153539
-0.004,0.361,0.926,-0.183,2153543
-0.002,0.36,0.927,-0.305,2153547
-0.002,0.36,0.927,-0.183,2153551
-0.003,0.361,0.925,-0.183,2153555
-0.003,0.361,0.925,-0.122,2153559
-0.003,0.361,0.925,-0.122,2153563
-0.002,0.362,0.923,-0.122,2153567
-0.002,0.362,0.923,-0.122,2153571
-0.001,0.361,0.926,-0.244,2153575
-0.001,0.361,0.926,-0.183,2153579
-0.003,0.362,0.925,-0.366,2153583
-0.003,0.362,0.925,-0.366,2153587
-0.003,0.362,0.925,-0.366,2153591
-0.002,0.362,0.926,-0.183,2153595
-0.002,0.362,0.926,-0.244,2153599
-0.001,0.362,0.927,-0.183,2153603
-0.001,0.362,0.927,-0.183,2153607
-0.001,0.362,0.927,-0.244,2153611
-0.001,0.362,0.926,-0.183,2153615
-0.001,0.362,0.926,-0.366,2153619
-0.0,0.361,0.924,-0.183,2153623
-0.0,0.361,0.924,-0.183,2153627
-0.0,0.361,0.924,-0.244,2153631
-0.001,0.36,0.926,-0.183,2153635
-0.001,0.36,0.926,-0.061,2153639
-0.003,0.361,0.928,-0.244,2153643
-0.003,0.361,0.928,-0.244,2153647
-0.003,0.361,0.928,-0.244,2153651
-0.001,0.362,0.925,-0.183,2153655
-0.001,0.362,0.925,-0.183,2153659
-0.003,0.361,0.924,-0.122,2153663
-0.003,0.361,0.924,-0.122,2153667
-0.003,0.361,0.924,-0.122,2153671
-0.003,0.361,0.926,-0.183,2153675
-0.003,0.361,0.926,-0.244,2153679
-0.003,0.362,0.927,-0.183,2153683
-0.003,0.362,0.927,-0.183,2153687
-0.003,0.362,0.927,-0.244,2153690
-0.003,0.361,0.925,-0.183,2153694
-0.003,0.361,0.925,-0.122,2153698
-0.002,0.36,0.925,-0.244,2153702
-0.002,0.36,0.925,-0.244,2153706
-0.002,0.36,0.925,-0.427,2153710
-0.001,0.36,0.927,-0.488,2153714
-0.001,0.36,0.927,-0.305,2153718
-0.002,0.36,0.926,-0.183,2153722
-0.002,0.36,0.926,-0.183,2153726
-0.002,0.36,0.926,-0.122,2153730
-0.003,0.359,0.926,-0.183,2153734
-0.003,0.359,0.926,-0.183,2153738
-0.001,0.361,0.927,-0.122,2153742
-0.001,0.361,0.927,-0.122,2153746
-0.001,0.361,0.927,-0.244,2153750
-0.001,0.362,0.926,-0.305,2153754
-0.001,0.362,0.926,-0.122,2153758
-0.002,0.361,0.925,-0.183,2153762
-0.002,0.361,0.925,-0.183,2153766
-0.002,0.361,0.925,-0.122,2153770
-0.002,0.36,0.926,-0.244,2153774
-0.002,0.36,0.926,-0.122,2153778
-0.002,0.362,0.927,-0.122,2153782
-0.002,0.362,0.927,-0.122,2153786
-0.002,0.362,0.927,-0.366,2153790
-0.001,0.361,0.926,-0.305,2153794
-0.001,0.361,0.926,-0.244,2153798
-0.002,0.359,0.925,-0.244,2153802
-0.002,0.359,0.925,-0.244,2153806
-0.002,0.359,0.925,-0.183,2153810
-0.003,0.36,0.927,-0.244,2153814
-0.003,0.36,0.927,-0.183,2153818
-0.002,0.36,0.926,-0.122,2153822
-0.002,0.36,0.926,-0.122,2153826
-0.002,0.36,0.926,-0.061,2153830
-0.003,0.36,0.926,-0.122,2153834
-0.003,0.36,0.926,-0.183,2153838
-0.002,0.36,0.925,-0.183,2153842
-0.002,0.36,0.925,-0.183,2153845
-0.002,0.36,0.925,-0.183,2153849
-0.002,0.361,0.925,-0.122,2153853
-0.002,0.361,0.925,-0.122,2153857
-0.001,0.361,0.927,-0.244,2153861
-0.001,0.361,0.927,-0.244,2153865
-0.001,0.361,0.927,-0.244,2153869
-0.002,0.362,0.927,-0.305,2153873
-0.002,0.362,0.927,-0.244,2153877
-0.003,0.362,0.925,-0.183,2153881
-0.003,0.362,0.925,-0.183,2153885
-0.003,0.362,0.925,-0.244,2153889
-0.003,0.362,0.925,-0.183,2153893
-0.003,0.362,0.925,-0.183,2153897
-0.002,0.361,0.926,-0.183,2153901
-0.002,0.361,0.926,-0.183,2153905
-0.002,0.361,0.926,-0.305,2153909
-0.001,0.361,0.927,-0.122,2153913
-0.001,0.361,0.927,-0.122,2153917
-0.001,0.361,0.926,-0.244,2153921
-0.001,0.361,0.926,-0.244,2153925
-0.001,0.361,0.926,-0.183,2153929
-0.0,0.361,0.927,-0.183,2153933
-0.0,0.361,0.927,-0.183,2153937
-0.002,0.361,0.925,-0.244,2153941
-0.002,0.361,0.925,-0.244,2153945
-0.002,0.361,0.925,-0.366,2153949
-0.001,0.361,0.924,-0.305,2153953
-0.001,0.361,0.924,-0.305,2153957
-0.001,0.362,0.926,-0.183,2153961
-0.001,0.362,0.926,-0.183,2153965
-0.001,0.362,0.926,-0.244,2153969
-0.001,0.362,0.926,-0.244,2153973
-0.001,0.362,0.926,-0.122,2153977
-0.001,0.361,0.927,-0.183,2153981
-0.001,0.361,0.927,-0.183,2153985
-0.001,0.361,0.927,-0.122,2153989
-0.002,0.361,0.927,-0.244,2153992
-0.002,0.361,0.927,-0.305,2153996
-0.003,0.361,0.925,-0.244,2154000
-0.003,0.361,0.925,-0.244,2154004
-0.003,0.361,0.925,-0.122,2154008
-0.001,0.362,0.926,-0.183,2154012
-0.001,0.362,0.926,-0.183,2154016
-0.0,0.362,0.926,-0.122,2154020
-0.0,0.362,0.926,-0.122,2154024
-0.0,0.362,0.926,-0.122,2154028
-0.003,0.362,0.924,-0.183,2154032
-0.003,0.362,0.924,-0.183,2154036
-0.001,0.361,0.925,-0.183,2154040
-0.001,0.361,0.925,-0.183,2154044
-0.001,0.361,0.925,-0.122,2154048
-0.002,0.361,0.926,-0.122,2154052
-0.002,0.361,0.926,-0.061,2154056
-0.001,0.361,0.926,-0.183,2154060
-0.001,0.361,0.926,-0.183,2154064
-0.001,0.361,0.926,-0.122,2154068
-0.002,0.361,0.926,-0.183,2154072
-0.002,0.361,0.926,-0.305,2154076
-0.001,0.361,0.928,-0.183,2154080
-0.001,0.361,0.928,-0.183,2154084
-0.001,0.361,0.928,-0.122,2154088
-0.002,0.362,0.927,-0.183,2154092
-0.002,0.362,0.927,-0.183,2154096
-0.002,0.361,0.927,-0.122,2154100
-0.002,0.361,0.927,-0.122,2154104
-0.002,0.361,0.927,-0.122,2154108
0.0,0.361,0.926,-0.183,2154112
0.0,0.361,0.926,-0.122,2154116
-0.001,0.361,0.927,-0.122,2154120
-0.001,0.361,0.927,-0.122,2154123
-0.001,0.361,0.927,-0.305,2154127
-0.003,0.36,0.925,-0.305,2154131
-0.003,0.36,0.925,-0.244,2154135
-0.001,0.362,0.925,-0.244,2154139
-0.001,0.362,0.925,-0.244,2154143
-0.001,0.362,0.925,-0.244,2154147
-0.002,0.361,0.927,-0.305,2154151
-0.002,0.361,0.927,-0.183,2154155
-0.002,0.359,0.927,-0.122,2154159
-0.002,0.359,0.927,-0.122,2154163
-0.002,0.359,0.927,-0.183,2154167
0.0,0.36,0.925,-0.305,2154171
0.0,0.36,0.925,-0.244,2154175
-0.002,0.361,0.925,-0.244,2154179
-0.002,0.361,0.925,-0.244,2154183
-0.002,0.361,0.925,-0.183,2154187
-0.002,0.362,0.926,-0.244,2154191
-0.002,0.362,0.926,-0.244,2154195
-0.003,0.36,0.926,-0.244,2154199
-0.003,0.36,0.926,-0.244,2154203
-0.003,0.36,0.926,-0.122,2154207
0.0,0.36,0.926,-0.061,2154211
0.0,0.36,0.926,-0.305,2154215
-0.001,0.362,0.927,-0.122,2154219
-0.001,0.362,0.927,-0.122,2154223
-0.001,0.362,0.927,-0.122,2154227
-0.001,0.363,0.926,-0.183,2154231
-0.001,0.363,0.926,-0.244,2154235
-0.002,0.361,0.926,-0.244,2154239
-0.002,0.361,0.926,-0.244,2154243
-0.002,0.361,0.926,-0.244,2154247
-0.002,0.361,0.925,-0.244,2154251
-0.002,0.361,0.925,-0.183,2154255
-0.002,0.362,0.927,-0.061,2154259
-0.002,0.362,0.927,-0.061,2154262
-0.002,0.362,0.927,-0.183,2154266
-0.0,0.361,0.927,-0.122,2154270
-0.0,0.361,0.927,-0.183,2154274
-0.002,0.36,0.925,-0.183,2154278
-0.002,0.36,0.925,-0.183,2154282
-0.002,0.36,0.925,-0.061,2154286
-0.003,0.362,0.928,-0.122,2154290
-0.003,0.362,0.928,-0.183,2154294
-0.003,0.363,0.929,-0.244,2154298
-0.003,0.363,0.929,-0.244,2154302
-0.003,0.363,0.929,-0.183,2154306
-0.002,0.361,0.926,-0.244,2154310
-0.002,0.361,0.926,-0.183,2154314
-0.001,0.359,0.926,-0.244,2154318
-0.001,0.359,0.926,-0.244,2154322
-0.001,0.359,0.926,-0.305,2154326
-0.001,0.36,0.926,-0.122,2154330
-0.001,0.36,0.926,-0.183,2154334
-0.001,0.361,0.927,-0.183,2154338
-0.001,0.361,0.927,-0.183,2154342
-0.001,0.361,0.927,-0.366,2154346
-0.001,0.36,0.927,-0.305,2154350
-0.001,0.36,0.927,-0.183,2154354
-0.003,0.363,0.928,-0.122,2154358
-0.003,0.363,0.928,-0.122,2154362
-0.003,0.363,0.928,-0.244,2154366
-0.002,0.361,0.926,-0.183,2154370
-0.002,0.361,0.926,-0.122,2154374
-0.002,0.36,0.925,-0.183,2154378
-0.002,0.36,0.925,-0.183,2154382
-0.002,0.36,0.925,-0.061,2154386
-0.003,0.36,0.926,-0.244,2154390
-0.003,0.36,0.926,-0.305,2154394
-0.004,0.36,0.927,-0.122,2154398
-0.004,0.36,0.927,-0.122,2154402
-0.004,0.36,0.927,-0.183,2154406
-0.002,0.361,0.927,-0.183,2154410
-0.002,0.361,0.927,-0.183,2154414
-0.002,0.361,0.924,-0.183,2154418
-0.002,0.361,0.924,-0.183,2154421
-0.002,0.361,0.924,-0.061,2154425
-0.0,0.361,0.925,-0.061,2154429
-0.0,0.361,0.925,-0.122,2154433
-0.002,0.36,0.927,-0.183,2154437
-0.002,0.36,0.927,-0.183,2154441
-0.002,0.36,0.927,-0.183,2154445
-0.002,0.362,0.927,-0.244,2154449
-0.002,0.362,0.927,-0.183,2154453
-0.001,0.362,0.925,-0.244,2154457
-0.001,0.362,0.925,-0.183,2154461
-0.001,0.362,0.925,-0.183,2154465
-0.001,0.361,0.926,-0.061,2154469
-0.001,0.361,0.926,-0.122,2154473
-0.003,0.361,0.925,-0.305,2154477
-0.003,0.361,0.925,-0.244,2154481
-0.003,0.361,0.925,-0.244,2154485
-0.002,0.361,0.925,-0.183,2154489
-0.002,0.361,0.925,-0.183,2154493
-0.003,0.362,0.929,-0.305,2154497
-0.003,0.362,0.929,-0.244,2154501
-0.003,0.362,0.929,-0.244,2154505
-0.003,0.362,0.928,-0.183,2154509
-0.003,0.362,0.928,-0.244,2154513
-0.002,0.361,0.925,-0.183,2154517
-0.002,0.361,0.925,-0.183,2154521
-0.002,0.361,0.925,-0.183,2154525
-0.002,0.361,0.926,-0.183,2154529
-0.002,0.361,0.926,-0.183,2154533
-0.002,0.362,0.927,-0.244,2154537
-0.002,0.362,0.927,-0.183,2154541
-0.002,0.362,0.927,-0.183,2154545
-0.002,0.36,0.925,-0.122,2154549
-0.002,0.36,0.925,-0.244,2154553
-0.002,0.361,0.924,-0.183,2154557
-0.002,0.361,0.924,-0.244,2154561
-0.002,0.361,0.924,-0.244,2154565
-0.001,0.362,0.925,-0.244,2154569
-0.001,0.362,0.925,-0.183,2154573
-0.002,0.361,0.927,0.0,2154576
-0.002,0.361,0.927,-0.122,2154580
-0.002,0.361,0.927,-0.122,2154584
-0.002,0.361,0.927,-0.244,2154588
-0.002,0.361,0.927,-0.366,2154592
-0.002,0.361,0.925,-0.183,2154596
-0.002,0.361,0.925,-0.122,2154600
-0.002,0.361,0.925,-0.122,2154604
-0.005,0.361,0.926,-0.183,2154608
-0.005,0.361,0.926,-0.183,2154612
-0.004,0.36,0.927,-0.183,2154616
-0.004,0.36,0.927,-0.122,2154620
-0.004,0.36,0.927,-0.122,2154624
-0.001,0.361,0.927,0.0,2154628
-0.001,0.361,0.927,-0.183,2154632
-0.0,0.362,0.927,-0.244,2154636
-0.0,0.362,0.927,-0.122,2154640
-0.0,0.362,0.927,-0.122,2154644
-0.0,0.36,0.926,-0.244,2154648
-0.0,0.36,0.926,-0.366,2154652
-0.001,0.36,0.922,-0.244,2154656
-0.001,0.36,0.922,0.061,2154660
-0.001,0.36,0.922,0.061,2154664
-0.003,0.361,0.926,-0.244,2154668
-0.003,0.361,0.926,-0.305,2154672
-0.003,0.36,0.928,-0.183,2154676
-0.003,0.36,0.928,-0.244,2154680
-0.003,0.36,0.928,-0.244,2154684
-0.002,0.36,0.925,-0.183,2154688
-0.002,0.36,0.925,-0.122,2154692
-0.003,0.361,0.924,-0.122,2154696
-0.003,0.361,0.924,-0.183,2154700
-0.003,0.361,0.924,-0.183,2154704
-0.002,0.36,0.926,-0.061,2154708
-0.002,0.36,0.926,-0.183,2154711
-0.003,0.362,0.925,-0.122,2154715
-0.003,0.362,0.925,-0.061,2154719
-0.003,0.362,0.925,-0.061,2154723
-0.004,0.36,0.926,-0.122,2154727
-0.004,0.36,0.926,-0.122,2154731
-0.001,0.362,0.926,0.061,2154735
-0.001,0.362,0.926,-0.183,2154739
-0.001,0.362,0.926,-0.183,2154743
0.001,0.361,0.925,-0.305,2154747
0.001,0.361,0.925,-0.244,2154751
-0.002,0.36,0.925,-0.427,2154755
-0.002,0.36,0.925,-0.244,2154759
-0.002,0.36,0.925,-0.244,2154763
-0.004,0.361,0.928,-0.244,2154767
-0.004,0.361,0.928,-0.244,2154771
-0.0,0.361,0.926,-0.122,2154775
-0.0,0.361,0.926,-0.061,2154779
-0.0,0.361,0.926,-0.061,2154783
-0.002,0.361,0.924,-0.122,2154787
-0.002,0.361,0.924,-0.061,2154791
-0.002,0.36,0.927,-0.183,2154795
-0.002,0.36,0.927,-0.122,2154799
-0.002,0.36,0.927,-0.122,2154803
-0.002,0.361,0.927,-0.183,2154807
-0.002,0.361,0.927,-0.183,2154811
-0.001,0.361,0.926,-0.305,2154815
-0.001,0.361,0.926,-0.427,2154819
-0.001,0.361,0.926,-0.427,2154823
-0.002,0.36,0.925,-0.305,2154827
-0.002,0.36,0.925,-0.183,2154831
-0.002,0.362,0.926,-0.244,2154835
-0.002,0.362,0.926,-0.244,2154839
-0.002,0.362,0.926,-0.244,2154843
-0.002,0.361,0.926,-0.061,2154847
-0.002,0.361,0.926,-0.122,2154851
-0.001,0.36,0.924,-0.122,2154855
-0.001,0.36,0.924,-0.183,2154858
-0.001,0.36,0.924,-0.183,2154862
-0.001,0.361,0.927,-0.183,2154866
-0.001,0.361,0.927,-0.183,2154870
-0.003,0.361,0.927,-0.183,2154874
-0.003,0.361,0.927,-0.122,2154878
-0.003,0.361,0.927,-0.122,2154882
-0.002,0.36,0.925,-0.061,2154886
-0.002,0.36,0.925,-0.183,2154890
-0.003,0.359,0.925,0.0,2154894
-0.003,0.359,0.925,-0.183,2154898
-0.003,0.359,0.925,-0.183,2154902
-0.002,0.359,0.927,-0.244,2154906
-0.002,0.359,0.927,-0.244,2154910
0.001,0.361,0.927,-0.244,2154914
0.001,0.361,0.927,-0.244,2154918
0.001,0.361,0.927,-0.244,2154922
-0.001,0.361,0.926,-0.244,2154926
-0.001,0.361,0.926,-0.061,2154930
-0.001,0.36,0.925,-0.183,2154934
-0.001,0.36,0.925,-0.183,2154938
-0.001,0.36,0.925,-0.183,2154942
-0.003,0.361,0.927,-0.183,2154946
-0.003,0.361,0.927,-0.122,2154950
-0.003,0.361,0.925,-0.061,2154954
-0.003,0.361,0.925,-0.183,2154958
-0.003,0.361,0.925,-0.183,2154962
-0.002,0.362,0.925,-0.122,2154966
-0.002,0.362,0.925,-0.183,2154970
-0.002,0.361,0.925,-0.244,2154974
-0.002,0.361,0.925,-0.244,2154978
-0.002,0.361,0.925,-0.244,2154982
-0.001,0.36,0.927,-0.183,2154986
-0.001,0.36,0.927,-0.183,2154990
-0.001,0.361,0.927,-0.244,2154993
-0.001,0.361,0.927,-0.183,2154997
-0.001,0.361,0.927,-0.183,2155001
-0.0,0.362,0.926,-0.244,2155005
-0.0,0.362,0.926,-0.244,2155009
-0.002,0.36,0.926,-0.305,2155013
-0.002,0.36,0.926,-0.305,2155017
-0.002,0.36,0.926,-0.305,2155021
-0.002,0.36,0.926,-0.244,2155025
-0.002,0.36,0.926,-0.061,2155029
0.0,0.361,0.927,-0.244,2155033
0.0,0.361,0.927,-0.305,2155037
0.0,0.361,0.927,-0.305,2155041
-0.001,0.361,0.927,-0.244,2155045
-0.001,0.361,0.927,-0.122,2155049
-0.002,0.361,0.926,-0.122,2155053
-0.002,0.361,0.926,-0.183,2155057
-0.002,0.361,0.926,-0.183,2155061
-0.002,0.362,0.926,-0.244,2155065
-0.002,0.362,0.926,-0.122,2155069
-0.003,0.361,0.927,-0.305,2155073
-0.003,0.361,0.927,-0.305,2155077
-0.003,0.361,0.927,-0.305,2155081
-0.001,0.362,0.929,-0.183,2155085
-0.001,0.362,0.929,-0.244,2155089
-0.0,0.361,0.925,-0.244,2155093
-0.0,0.361,0.925,-0.244,2155097
-0.0,0.361,0.925,-0.244,2155101
-0.002,0.361,0.925,-0.244,2155105
-0.002,0.361,0.925,-0.244,2155109
-0.002,0.361,0.926,-0.305,2155113
-0.002,0.361,0.926,-0.183,2155116
-0.002,0.361,0.926,-0.183,2155120
-0.002,0.361,0.926,-0.122,2155124
-0.002,0.361,0.926,-0.244,2155128
-0.002,0.36,0.926,-0.244,2155132
-0.002,0.36,0.926,-0.061,2155136
-0.002,0.36,0.926,-0.061,2155140
-0.001,0.362,0.926,-0.244,2155144
-0.001,0.362,0.926,-0.244,2155148
-0.002,0.361,0.926,-0.183,2155152
-0.002,0.361,0.926,-0.244,2155156
-0.002,0.361,0.926,-0.244,2155160
-0.003,0.361,0.925,-0.122,2155164
-0.003,0.361,0.925,-0.061,2155168
-0.004,0.361,0.925,-0.061,2155172
-0.004,0.361,0.925,-0.244,2155176
-0.004,0.361,0.925,-0.244,2155180
-0.002,0.361,0.927,-0.244,2155184
-0.002,0.361,0.927,-0.183,2155188
-0.001,0.361,0.925,-0.183,2155192
-0.001,0.361,0.925,-0.122,2155196
-0.001,0.361,0.925,-0.122,2155200
-0.001,0.36,0.925,-0.122,2155204
