Acc_X,Acc_Y,Acc_Z,Rot_Z,Millis
-0.002,0.053,1.0,-0.305,1960936
-0.004,0.052,1.0,-0.183,1960940
-0.004,0.052,1.0,-0.183,1960944
-0.004,0.052,1.0,-0.183,1960948
-0.003,0.053,1.001,-0.244,1960952
-0.003,0.053,1.001,-0.183,1960956
-0.005,0.052,1.0,-0.183,1960960
-0.005,0.052,1.0,-0.183,1960963
-0.005,0.052,1.0,-0.244,1960967
-0.004,0.053,1.001,-0.183,1960971
-0.004,0.053,1.001,-0.061,1960975
-0.002,0.052,0.998,-0.305,1960979
-0.002,0.052,0.998,-0.305,1960983
-0.002,0.052,0.998,-0.122,1960987
-0.003,0.052,0.998,-0.122,1960991
-0.003,0.052,0.998,-0.244,1960995
-0.004,0.053,1.001,-0.244,1960999
-0.004,0.053,1.001,-0.244,1961003
-0.004,0.053,1.001,-0.244,1961007
-0.004,0.053,0.999,-0.183,1961011
-0.004,0.053,0.999,-0.305,1961015
-0.005,0.054,0.999,-0.122,1961019
-0.005,0.054,0.999,-0.122,1961023
-0.005,0.054,0.999,-0.244,1961027
-0.003,0.052,0.998,-0.305,1961031
-0.003,0.052,0.998,-0.244,1961035
-0.004,0.053,0.998,-0.183,1961039
-0.004,0.053,0.998,-0.183,1961043
-0.004,0.053,0.998,-0.122,1961047
-0.004,0.054,1.0,-0.244,1961051
-0.004,0.054,1.0,-0.183,1961055
-0.004,0.053,0.999,-0.183,1961059
-0.004,0.053,0.999,-0.183,1961063
-0.004,0.053,0.999,-0.122,1961067
-0.005,0.053,0.999,-0.183,1961071
-0.005,0.053,0.999,-0.244,1961075
-0.004,0.052,0.998,-0.183,1961079
-0.004,0.052,0.998,-0.183,1961083
-0.004,0.052,0.998,-0.244,1961087
-0.004,0.051,1.0,-0.244,1961090
-0.004,0.051,1.0,-0.183,1961094
-0.006,0.052,0.998,-0.183,1961098
-0.006,0.052,0.998,-0.183,1961102
-0.006,0.052,0.998,-0.305,1961106
-0.004,0.053,0.998,-0.244,1961110
-0.004,0.053,0.998,-0.183,1961114
-0.004,0.053,0.999,-0.122,1961118
-0.004,0.053,0.999,-0.122,1961122
-0.004,0.053,0.999,-0.183,1961126
-0.004,0.052,1.001,-0.183,1961130
-0.004,0.052,1.001,-0.061,1961134
-0.004,0.052,0.999,-0.244,1961138
-0.004,0.052,0.999,-0.244,1961142
-0.004,0.052,0.999,-0.305,1961146
-0.003,0.053,0.999,-0.122,1961150
-0.003,0.053,0.999,-0.122,1961154
-0.004,0.053,1.0,-0.183,1961158
-0.004,0.053,1.0,-0.183,1961162
-0.004,0.053,1.0,-0.122,1961166
-0.003,0.052,1.0,-0.183,1961170
-0.003,0.052,1.0,-0.122,1961174
-0.005,0.053,0.998,-0.244,1961178
-0.005,0.053,0.998,-0.244,1961182
-0.005,0.053,0.998,-0.183,1961186
-0.005,0.052,1.0,-0.244,1961190
-0.005,0.052,1.0,-0.061,1961194
-0.003,0.052,1.0,-0.122,1961198
-0.003,0.052,1.0,-0.122,1961202
-0.003,0.052,1.0,-0.122,1961206
-0.003,0.053,1.0,-0.183,1961210
-0.003,0.053,1.0,-0.183,1961213
-0.004,0.053,0.999,-0.122,1961217
-0.004,0.053,0.999,-0.122,1961221
-0.004,0.053,0.999,-0.244,1961225
-0.002,0.054,0.999,-0.122,1961229
-0.002,0.054,0.999,-0.183,1961233
-0.002,0.054,0.998,-0.061,1961237
-0.002,0.054,0.998,-0.061,1961241
-0.002,0.054,0.998,-0.122,1961245
-0.004,0.052,0.998,-0.183,1961249
-0.004,0.052,0.998,-0.183,1961253
-0.004,0.052,1.0,-0.244,1961257
-0.004,0.052,1.0,-0.244,1961261
-0.004,0.052,1.0,-0.183,1961265
-0.004,0.053,1.0,-0.305,1961269
-0.004,0.053,1.0,-0.305,1961273
-0.004,0.052,1.0,-0.366,1961277
-0.004,0.052,1.0,-0.366,1961281
-0.004,0.052,1.0,-0.305,1961285
-0.004,0.053,0.999,-0.183,1961289
-0.004,0.053,0.999,-0.122,1961293
-0.003,0.052,1.0,-0.244,1961297
-0.003,0.052,1.0,-0.244,1961301
-0.003,0.052,1.0,-0.122,1961305
-0.004,0.052,0.999,-0.122,1961309
-0.004,0.052,0.999,-0.122,1961313
-0.005,0.054,1.0,-0.061,1961317
-0.005,0.054,1.0,-0.061,1961321
-0.005,0.054,1.0,0.0,1961325
-0.004,0.053,1.0,-0.122,1961329
-0.004,0.053,1.0,-0.244,1961333
-0.003,0.053,1.001,-0.122,1961337
-0.003,0.053,1.001,-0.122,1961341
-0.003,0.053,1.001,-0.122,1961345
-0.006,0.052,1.0,-0.183,1961349
-0.006,0.052,1.0,-0.244,1961352
-0.004,0.052,0.999,-0.183,1961356
-0.004,0.052,0.999,-0.183,1961360
-0.004,0.052,0.999,-0.183,1961364
-0.004,0.051,1.0,-0.122,1961368
-0.004,0.051,1.0,-0.122,1961372
-0.004,0.052,1.0,-0.244,1961376
-0.004,0.052,1.0,-0.244,1961380
-0.004,0.052,1.0,-0.183,1961384
-0.003,0.053,1.0,-0.122,1961388
-0.003,0.053,1.0,-0.183,1961392
-0.003,0.051,0.999,-0.061,1961396
-0.003,0.051,0.999,-0.061,1961400
-0.003,0.051,0.999,-0.061,1961404
-0.003,0.051,0.999,-0.061,1961408
-0.003,0.051,0.999,-0.122,1961412
-0.005,0.053,0.999,-0.122,1961416
-0.005,0.053,0.999,-0.122,1961420
-0.005,0.053,0.999,-0.183,1961424
-0.002,0.053,0.999,-0.244,1961428
-0.002,0.053,0.999,-0.305,1961432
-0.003,0.051,0.999,-0.366,1961436
-0.003,0.051,0.999,-0.366,1961440
-0.003,0.051,0.999,-0.122,1961444
-0.004,0.053,1.0,-0.183,1961448
-0.004,0.053,1.0,-0.244,1961452
-0.005,0.053,1.0,-0.183,1961456
-0.005,0.053,1.0,-0.183,1961460
-0.005,0.053,1.0,-0.122,1961464
-0.004,0.052,0.999,-0.244,1961468
-0.004,0.052,0.999,-0.244,1961472
-0.003,0.052,0.998,-0.183,1961476
-0.003,0.052,0.998,-0.183,1961480
-0.003,0.052,0.998,-0.183,1961484
-0.004,0.052,0.999,-0.122,1961488
-0.004,0.052,0.999,-0.305,1961491
-0.004,0.052,0.998,-0.244,1961495
-0.004,0.052,0.998,-0.244,1961499
-0.004,0.052,0.998,-0.061,1961503
-0.006,0.053,0.998,-0.183,1961507
-0.006,0.053,0.998,-0.305,1961511
-0.004,0.054,0.999,-0.305,1961515
-0.004,0.054,0.999,-0.305,1961519
-0.004,0.054,0.999,-0.122,1961523
-0.005,0.053,1.0,-0.061,1961527
-0.005,0.053,1.0,-0.122,1961531
-0.003,0.053,1.0,-0.122,1961535
-0.003,0.053,1.0,-0.122,1961539
-0.003,0.053,1.0,-0.122,1961543
-0.002,0.052,0.999,-0.244,1961547
-0.002,0.052,0.999,-0.183,1961551
-0.005,0.053,0.998,-0.183,1961555
-0.005,0.053,0.998,-0.183,1961559
-0.005,0.053,0.998,-0.305,1961563
-0.003,0.052,0.998,-0.244,1961567
-0.003,0.052,0.998,-0.183,1961571
-0.005,0.053,1.0,-0.183,1961575
-0.005,0.053,1.0,-0.183,1961579
-0.005,0.053,1.0,-0.244,1961583
-0.005,0.053,0.999,-0.305,1961587
-0.005,0.053,0.999,-0.305,1961591
-0.004,0.052,1.001,-0.305,1961595
-0.004,0.052,1.001,-0.305,1961599
-0.004,0.052,1.001,-0.183,1961603
-0.005,0.052,1.0,-0.183,1961607
-0.005,0.052,1.0,-0.305,1961611
-0.004,0.052,0.999,-0.366,1961615
-0.004,0.052,0.999,-0.366,1961618
-0.004,0.052,0.999,-0.244,1961622
-0.004,0.054,1.001,-0.244,1961626
-0.004,0.054,1.001,-0.183,1961630
-0.002,0.054,0.999,-0.244,1961634
-0.002,0.054,0.999,-0.244,1961638
-0.002,0.054,0.999,-0.183,1961642
-0.003,0.054,0.998,-0.122,1961646
-0.003,0.054,0.998,-0.244,1961650
-0.002,0.054,1.0,-0.244,1961654
-0.002,0.054,1.0,-0.244,1961658
-0.002,0.054,1.0,-0.244,1961662
-0.003,0.054,0.998,-0.183,1961666
-0.003,0.054,0.998,-0.122,1961670
-0.004,0.053,0.997,-0.244,1961674
-0.004,0.053,0.997,-0.244,1961678
-0.004,0.053,0.997,-0.122,1961682
-0.004,0.054,0.999,-0.183,1961686
-0.004,0.054,0.999,-0.183,1961690
-0.004,0.053,0.999,-0.183,1961694
-0.004,0.053,0.999,-0.122,1961698
-0.004,0.053,0.999,-0.122,1961702
-0.004,0.054,1.0,-0.183,1961706
-0.004,0.054,1.0,-0.183,1961710
-0.002,0.053,1.0,-0.244,1961714
-0.002,0.053,1.0,-0.244,1961718
-0.002,0.053,1.0,-0.244,1961722
-0.002,0.053,0.999,-0.183,1961726
-0.002,0.053,0.999,-0.122,1961730
-0.005,0.053,0.999,-0.183,1961734
-0.005,0.053,0.999,-0.183,1961738
-0.005,0.053,0.999,-0.122,1961742
-0.003,0.052,0.999,-0.244,1961746
-0.003,0.052,0.999,-0.183,1961749
-0.006,0.052,1.0,-0.183,1961753
-0.006,0.052,1.0,-0.122,1961757
-0.006,0.052,1.0,-0.122,1961761
-0.005,0.052,0.999,-0.305,1961765
-0.005,0.052,0.999,-0.183,1961769
-0.003,0.053,0.999,-0.244,1961773
-0.003,0.053,0.999,-0.061,1961777
-0.003,0.053,0.999,-0.061,1961781
-0.004,0.053,0.998,-0.244,1961785
-0.004,0.053,0.998,-0.244,1961789
-0.002,0.052,0.999,-0.183,1961793
-0.002,0.052,0.999,-0.122,1961797
-0.002,0.052,0.999,-0.122,1961801
-0.003,0.053,0.999,-0.122,1961805
-0.003,0.053,0.999,-0.122,1961809
-0.003,0.053,0.999,-0.183,1961813
-0.003,0.053,0.999,-0.244,1961817
-0.003,0.053,0.999,-0.244,1961821
-0.003,0.053,0.999,-0.183,1961825
-0.003,0.053,0.999,-0.427,1961829
-0.003,0.052,0.999,-0.183,1961833
-0.003,0.052,0.999,-0.122,1961837
-0.003,0.052,0.999,-0.122,1961841
-0.004,0.053,0.998,-0.183,1961845
-0.004,0.053,0.998,-0.305,1961849
-0.004,0.055,0.998,-0.305,1961853
-0.004,0.055,0.998,-0.244,1961857
-0.004,0.055,0.998,-0.244,1961861
-0.003,0.054,0.999,-0.305,1961865
-0.003,0.054,0.999,-0.244,1961869
-0.002,0.053,0.999,-0.244,1961873
-0.002,0.053,0.999,-0.122,1961877
-0.002,0.053,0.999,-0.122,1961880
-0.003,0.053,0.998,-0.183,1961884
-0.003,0.053,0.998,-0.244,1961888
-0.005,0.052,0.999,-0.183,1961892
-0.005,0.052,0.999,-0.061,1961896
-0.005,0.052,0.999,-0.061,1961900
-0.003,0.053,1.001,-0.183,1961904
-0.003,0.053,1.001,-0.183,1961908
-0.003,0.053,1.0,-0.244,1961912
-0.003,0.053,1.0,-0.122,1961916
-0.003,0.053,1.0,-0.122,1961920
-0.002,0.052,1.0,-0.183,1961924
-0.002,0.052,1.0,-0.183,1961928
-0.004,0.051,0.999,-0.183,1961932
-0.004,0.051,0.999,-0.061,1961936
-0.004,0.051,0.999,-0.061,1961940
-0.003,0.052,0.998,-0.122,1961944
-0.003,0.052,0.998,-0.305,1961948
-0.004,0.052,0.999,-0.122,1961952
-0.004,0.052,0.999,-0.061,1961956
-0.004,0.052,0.999,-0.061,1961960
-0.004,0.052,1.001,-0.061,1961964
-0.004,0.052,1.001,-0.244,1961968
-0.003,0.053,0.999,-0.183,1961972
-0.003,0.053,0.999,-0.183,1961976
-0.003,0.053,0.999,-0.183,1961980
-0.001,0.052,0.999,-0.244,1961984
-0.001,0.052,0.999,-0.183,1961988
-0.002,0.053,1.0,-0.183,1961992
-0.002,0.053,1.0,-0.061,1961996
-0.002,0.053,1.0,-0.061,1962000
-0.002,0.054,0.999,-0.122,1962004
-0.002,0.054,0.999,-0.366,1962008
-0.003,0.052,0.998,-0.244,1962011
-0.003,0.052,0.998,-0.366,1962015
-0.003,0.052,0.998,-0.366,1962019
-0.005,0.052,0.998,-0.244,1962023
-0.005,0.052,0.998,-0.244,1962027
-0.004,0.053,0.999,-0.244,1962031
-0.004,0.053,0.999,-0.122,1962035
-0.004,0.053,0.999,-0.122,1962039
-0.004,0.052,0.999,-0.366,1962043
-0.004,0.052,0.999,-0.183,1962047
-0.003,0.052,0.997,-0.122,1962051
-0.003,0.052,0.997,-0.305,1962055
-0.003,0.052,0.997,-0.305,1962059
-0.003,0.052,0.999,-0.183,1962063
-0.003,0.052,0.999,-0.183,1962067
-0.003,0.053,0.999,-0.305,1962071
-0.003,0.053,0.999,-0.122,1962075
-0.003,0.053,0.999,-0.122,1962079
-0.003,0.052,1.0,-0.183,1962083
-0.003,0.052,1.0,-0.183,1962087
-0.004,0.051,0.999,-0.244,1962091
-0.004,0.051,0.999,-0.244,1962095
-0.004,0.051,0.999,-0.244,1962099
-0.004,0.051,0.998,-0.305,1962103
-0.004,0.051,0.998,-0.122,1962107
-0.002,0.053,0.999,-0.305,1962111
-0.002,0.053,0.999,-0.366,1962115
-0.002,0.053,0.999,-0.366,1962119
-0.005,0.053,0.998,-0.183,1962123
-0.005,0.053,0.998,-0.183,1962127
-0.003,0.052,0.999,-0.244,1962131
-0.003,0.052,0.999,-0.183,1962135
-0.003,0.052,0.999,-0.183,1962139
-0.003,0.052,0.998,-0.244,1962143
-0.003,0.052,0.998,-0.244,1962146
-0.004,0.054,1.0,-0.183,1962150
-0.004,0.054,1.0,-0.061,1962154
-0.004,0.054,1.0,-0.061,1962158
-0.004,0.052,1.0,0.0,1962162
-0.004,0.052,1.0,-0.122,1962166
-0.003,0.051,0.999,-0.244,1962170
-0.003,0.051,0.999,-0.122,1962174
-0.003,0.051,0.999,-0.122,1962178
-0.003,0.052,1.0,-0.244,1962182
-0.003,0.052,1.0,-0.305,1962186
-0.004,0.054,1.001,-0.122,1962190
-0.004,0.054,1.001,-0.061,1962194
-0.004,0.054,1.001,-0.061,1962198
-0.002,0.054,0.998,-0.244,1962202
-0.002,0.054,0.998,-0.183,1962206
-0.004,0.053,1.0,-0.183,1962210
-0.004,0.053,1.0,-0.244,1962214
-0.004,0.053,1.0,-0.244,1962218
-0.004,0.054,1.001,-0.183,1962222
-0.004,0.054,1.001,-0.183,1962226
-0.003,0.053,0.999,-0.305,1962230
-0.003,0.053,0.999,-0.183,1962234
-0.003,0.053,0.999,-0.183,1962238
-0.003,0.052,1.0,-0.122,1962242
-0.003,0.052,1.0,-0.122,1962246
-0.004,0.053,1.0,-0.183,1962250
-0.004,0.053,1.0,-0.183,1962254
-0.004,0.053,1.0,-0.183,1962258
-0.004,0.053,0.999,0.0,1962262
-0.004,0.053,0.999,-0.061,1962265
-0.004,0.053,1.0,-0.244,1962269
-0.004,0.053,1.0,-0.061,1962273
-0.004,0.053,1.0,-0.061,1962277
-0.003,0.052,1.0,-0.183,1962281
-0.003,0.052,1.0,-0.122,1962285
-0.004,0.052,0.999,0.0,1962289
-0.004,0.052,0.999,-0.183,1962293
-0.004,0.052,0.999,-0.183,1962297
-0.004,0.052,0.999,-0.122,1962301
-0.004,0.052,0.999,-0.122,1962305
-0.003,0.052,0.999,-0.244,1962309
-0.003,0.052,0.999,-0.183,1962313
-0.003,0.052,0.999,-0.183,1962317
-0.004,0.054,1.001,-0.122,1962321
-0.004,0.054,1.001,-0.244,1962325
-0.004,0.054,1.0,-0.244,1962329
-0.004,0.054,1.0,-0.122,1962333
-0.004,0.054,1.0,-0.122,1962337
-0.004,0.052,1.0,-0.244,1962341
-0.004,0.052,1.0,-0.305,1962345
-0.003,0.051,0.999,-0.183,1962349
-0.003,0.051,0.999,-0.183,1962353
-0.003,0.051,0.999,-0.183,1962357
-0.004,0.053,0.999,-0.244,1962361
-0.004,0.053,0.999,-0.183,1962365
-0.004,0.053,0.998,-0.244,1962369
-0.004,0.053,0.998,-0.061,1962373
-0.004,0.053,0.998,-0.061,1962377
-0.004,0.053,1.001,-0.122,1962380
-0.004,0.053,1.001,-0.244,1962384
-0.003,0.053,0.999,-0.244,1962388
-0.003,0.053,0.999,-0.122,1962392
-0.003,0.053,0.999,-0.122,1962396
-0.004,0.053,1.0,-0.183,1962400
-0.004,0.053,1.0,-0.244,1962404
-0.002,0.052,1.0,-0.244,1962408
-0.002,0.052,1.0,-0.366,1962412
-0.002,0.052,1.0,-0.366,1962416
-0.003,0.052,0.999,-0.244,1962420
-0.003,0.052,0.999,-0.244,1962424
-0.002,0.052,1.0,-0.244,1962428
-0.002,0.052,1.0,-0.183,1962432
-0.002,0.052,1.0,-0.183,1962436
-0.005,0.053,0.999,-0.366,1962440
-0.005,0.053,0.999,-0.366,1962444
-0.003,0.052,1.0,-0.061,1962448
-0.003,0.052,1.0,-0.122,1962452
-0.003,0.052,1.0,-0.122,1962456
-0.004,0.052,1.0,-0.244,1962460
-0.004,0.052,1.0,0.0,1962464
-0.002,0.053,1.0,-0.122,1962468
-0.002,0.053,1.0,-0.183,1962472
-0.002,0.053,1.0,-0.183,1962476
-0.005,0.053,1.0,-0.122,1962480
-0.005,0.053,1.0,-0.122,1962484
-0.003,0.053,1.0,-0.244,1962488
-0.003,0.053,1.0,-0.122,1962492
-0.003,0.053,1.0,-0.122,1962496
-0.004,0.052,0.999,-0.244,1962500
-0.004,0.052,0.999,-0.244,1962504
-0.003,0.052,0.997,-0.183,1962508
-0.003,0.052,0.997,-0.183,1962512
-0.003,0.052,0.997,-0.183,1962516
-0.004,0.053,0.999,-0.244,1962520
-0.004,0.053,0.999,-0.122,1962523
-0.005,0.052,1.001,-0.244,1962527
-0.005,0.052,1.001,-0.244,1962531
-0.005,0.052,1.001,-0.244,1962535
-0.004,0.053,0.998,-0.122,1962539
-0.004,0.053,0.998,-0.244,1962543
-0.003,0.054,0.999,-0.122,1962547
-0.003,0.054,0.999,-0.183,1962551
-0.003,0.054,0.999,-0.183,1962555
-0.003,0.052,1.0,-0.122,1962559
-0.003,0.052,1.0,-0.244,1962563
-0.006,0.053,0.998,-0.244,1962567
-0.006,0.053,0.998,-0.183,1962571
-0.006,0.053,0.998,-0.183,1962575
-0.004,0.052,0.998,-0.183,1962579
-0.004,0.052,0.998,-0.183,1962583
-0.005,0.052,1.0,-0.244,1962587
-0.005,0.052,1.0,-0.244,1962591
-0.005,0.052,1.0,-0.244,1962595
-0.004,0.053,1.0,-0.122,1962599
-0.004,0.053,1.0,-0.183,1962603
-0.003,0.053,1.0,-0.244,1962607
-0.003,0.053,1.0,-0.183,1962611
-0.003,0.053,1.0,-0.183,1962615
-0.006,0.052,0.999,-0.122,1962619
-0.006,0.052,0.999,-0.183,1962623
-0.004,0.053,1.0,-0.183,1962627
-0.004,0.053,1.0,-0.183,1962631
-0.004,0.053,1.0,-0.183,1962635
-0.004,0.053,1.0,-0.183,1962639
-0.004,0.053,1.0,-0.366,1962643
-0.002,0.052,0.997,-0.427,1962647
-0.002,0.052,0.997,-0.122,1962651
-0.002,0.052,0.997,-0.122,1962654
-0.002,0.052,0.998,-0.122,1962658
-0.002,0.052,0.998,-0.183,1962662
-0.003,0.053,1.001,-0.183,1962666
-0.003,0.053,1.001,-0.183,1962670
-0.003,0.053,1.001,-0.183,1962674
-0.004,0.053,1.0,-0.305,1962678
-0.004,0.053,1.0,-0.244,1962682
-0.004,0.053,0.999,-0.183,1962686
-0.004,0.053,0.999,-0.244,1962690
-0.004,0.053,0.999,-0.244,1962694
-0.005,0.052,0.999,-0.244,1962698
-0.005,0.052,0.999,-0.183,1962702
-0.004,0.052,0.999,-0.122,1962706
-0.004,0.052,0.999,-0.122,1962710
-0.004,0.052,0.999,-0.122,1962714
-0.004,0.053,1.0,-0.122,1962718
-0.004,0.053,1.0,-0.061,1962722
-0.004,0.053,1.0,-0.244,1962726
-0.004,0.053,1.0,-0.305,1962730
-0.004,0.053,1.0,-0.305,1962734
-0.004,0.053,0.999,-0.061,1962738
-0.004,0.053,0.999,-0.061,1962742
-0.004,0.053,0.998,-0.183,1962746
-0.004,0.053,0.998,-0.183,1962750
-0.004,0.053,0.998,-0.183,1962754
-0.004,0.053,1.001,-0.183,1962758
-0.004,0.053,1.001,-0.122,1962762
-0.004,0.053,1.0,-0.122,1962766
-0.004,0.053,1.0,-0.122,1962770
-0.004,0.053,1.0,-0.122,1962774
-0.004,0.053,0.996,-0.122,1962778
-0.004,0.053,0.996,-0.122,1962781
-0.003,0.053,0.999,-0.244,1962785
-0.003,0.053,0.999,-0.244,1962789
-0.003,0.053,0.999,-0.244,1962793
-0.005,0.054,0.998,-0.244,1962797
-0.005,0.054,0.998,-0.061,1962801
-0.004,0.052,0.999,-0.122,1962805
-0.004,0.052,0.999,-0.366,1962809
-0.004,0.052,0.999,-0.366,1962813
-0.004,0.053,0.999,-0.244,1962817
-0.004,0.053,0.999,-0.122,1962821
-0.004,0.052,1.0,-0.122,1962825
-0.004,0.052,1.0,-0.122,1962829
-0.004,0.052,1.0,-0.122,1962833
-0.002,0.052,1.0,-0.183,1962837
-0.002,0.052,1.0,-0.183,1962841
-0.004,0.051,0.999,-0.183,1962845
-0.004,0.051,0.999,-0.244,1962849
-0.004,0.051,0.999,-0.244,1962853
-0.006,0.053,0.999,-0.305,1962857
-0.006,0.053,0.999,-0.305,1962861
-0.004,0.052,1.0,-0.183,1962865
-0.004,0.052,1.0,-0.183,1962869
-0.004,0.052,1.0,-0.183,1962873
-0.003,0.053,0.998,-0.305,1962877
-0.003,0.053,0.998,-0.244,1962881
-0.003,0.053,1.0,-0.183,1962885
-0.003,0.053,1.0,-0.366,1962889
-0.003,0.053,1.0,-0.366,1962893
-0.001,0.051,1.001,-0.305,1962897
-0.001,0.051,1.001,-0.122,1962901
-0.003,0.052,1.001,-0.244,1962905
-0.003,0.052,1.001,-0.183,1962909
-0.003,0.052,1.001,-0.183,1962912
-0.002,0.053,1.0,-0.244,1962916
-0.002,0.053,1.0,-0.183,1962920
-0.004,0.052,1.0,-0.122,1962924
-0.004,0.052,1.0,-0.183,1962928
-0.004,0.052,1.0,-0.183,1962932
-0.002,0.052,1.0,-0.305,1962936
-0.002,0.052,1.0,-0.183,1962940
-0.001,0.053,0.999,-0.122,1962944
-0.001,0.053,0.999,-0.183,1962948
-0.001,0.053,0.999,-0.183,1962952
-0.004,0.053,1.0,-0.244,1962956
-0.004,0.053,1.0,-0.244,1962960
-0.005,0.051,1.001,-0.244,1962964
-0.005,0.051,1.001,-0.122,1962968
-0.005,0.051,1.001,-0.122,1962972
-0.004,0.052,1.0,-0.122,1962976
-0.004,0.052,1.0,-0.183,1962980
-0.005,0.054,0.998,-0.366,1962984
-0.005,0.054,0.998,-0.122,1962988
-0.005,0.054,0.998,-0.122,1962992
-0.004,0.054,0.999,-0.183,1962996
-0.004,0.054,0.999,-0.183,1963000
-0.004,0.053,0.998,-0.122,1963004
-0.004,0.053,0.998,-0.183,1963008
-0.004,0.053,0.998,-0.183,1963012
-0.003,0.054,0.999,-0.183,1963016
-0.003,0.054,0.999,-0.122,1963020
-0.004,0.053,0.999,-0.183,1963024
-0.004,0.053,0.999,-0.183,1963028
-0.004,0.053,0.999,-0.183,1963032
-0.004,0.053,0.999,-0.122,1963036
-0.004,0.053,0.999,-0.366,1963040
-0.004,0.052,0.999,-0.244,1963043
-0.004,0.052,0.999,-0.061,1963047
-0.004,0.052,0.999,-0.061,1963051
-0.004,0.054,1.0,-0.122,1963055
-0.004,0.054,1.0,-0.122,1963059
-0.004,0.054,0.999,-0.061,1963063
-0.004,0.054,0.999,-0.122,1963067
-0.004,0.054,0.999,-0.122,1963071
-0.005,0.053,0.998,-0.244,1963075
-0.005,0.053,0.998,-0.244,1963079
-0.005,0.053,0.997,-0.244,1963083
-0.005,0.053,0.997,-0.183,1963087
-0.005,0.053,0.997,-0.183,1963091
-0.003,0.052,0.999,-0.244,1963095
-0.003,0.052,0.999,-0.305,1963099
-0.003,0.054,1.0,-0.244,1963103
-0.003,0.054,1.0,-0.122,1963107
-0.003,0.054,1.0,-0.122,1963111
-0.004,0.053,1.001,-0.183,1963115
-0.004,0.053,1.001,-0.183,1963119
-0.003,0.052,1.001,-0.122,1963123
-0.003,0.052,1.001,-0.122,1963127
-0.003,0.052,1.001,-0.122,1963131
-0.002,0.052,1.0,-0.305,1963135
-0.002,0.052,1.0,-0.183,1963139
-0.001,0.052,0.999,-0.183,1963143
-0.001,0.052,0.999,-0.122,1963147
-0.001,0.052,0.999,-0.122,1963151
-0.002,0.053,0.998,-0.244,1963155
-0.002,0.053,0.998,-0.061,1963159
-0.002,0.053,0.998,-0.244,1963163
-0.002,0.053,0.998,-0.427,1963167
-0.002,0.053,0.998,-0.427,1963171
-0.003,0.051,0.999,-0.183,1963175
-0.003,0.051,0.999,-0.183,1963179
-0.003,0.053,0.999,-0.183,1963183
-0.003,0.053,0.999,-0.244,1963187
-0.003,0.053,0.999,-0.244,1963190
-0.004,0.052,1.0,-0.305,1963194
-0.004,0.052,1.0,-0.305,1963198
-0.003,0.052,0.999,-0.244,1963202
-0.003,0.052,0.999,-0.183,1963206
-0.003,0.052,0.999,-0.183,1963210
-0.003,0.052,1.001,-0.244,1963214
-0.003,0.052,1.001,-0.122,1963218
-0.002,0.052,0.998,-0.183,1963222
-0.002,0.052,0.998,-0.244,1963226
-0.002,0.052,0.998,-0.244,1963230
-0.004,0.053,1.002,-0.122,1963234
-0.004,0.053,1.002,-0.122,1963238
-0.003,0.053,0.999,-0.305,1963242
-0.003,0.053,0.999,-0.366,1963246
-0.003,0.053,0.999,-0.366,1963250
-0.001,0.053,1.001,-0.244,1963254
-0.001,0.053,1.001,-0.183,1963258
-0.003,0.054,1.0,-0.305,1963262
-0.003,0.054,1.0,-0.305,1963266
-0.003,0.054,1.0,-0.305,1963270
-0.005,0.052,0.999,-0.244,1963274
-0.005,0.052,0.999,-0.244,1963278
-0.003,0.052,0.999,-0.244,1963282
-0.003,0.052,0.999,-0.183,1963286
-0.003,0.052,0.999,-0.183,1963290
-0.003,0.054,0.999,-0.244,1963294
-0.003,0.054,0.999,-0.244,1963298
-0.003,0.054,0.999,-0.244,1963302
-0.003,0.054,0.999,-0.305,1963306
-0.003,0.054,0.999,-0.305,1963310
-0.004,0.052,0.999,-0.122,1963314
-0.004,0.052,0.999,-0.183,1963318
-0.004,0.053,0.998,-0.244,1963321
-0.004,0.053,0.998,-0.305,1963325
-0.004,0.053,0.998,-0.305,1963329
-0.003,0.053,1.0,-0.244,1963333
-0.003,0.053,1.0,-0.122,1963337
-0.004,0.053,1.0,-0.366,1963341
-0.004,0.053,1.0,-0.183,1963345
-0.004,0.053,1.0,-0.183,1963349
-0.006,0.053,1.0,-0.183,1963353
-0.006,0.053,1.0,-0.244,1963357
-0.005,0.053,0.999,-0.244,1963361
-0.005,0.053,0.999,-0.183,1963365
-0.005,0.053,0.999,-0.183,1963369
-0.005,0.053,1.0,-0.183,1963373
-0.005,0.053,1.0,-0.183,1963377
-0.003,0.053,0.999,-0.244,1963381
-0.003,0.053,0.999,-0.244,1963385
-0.003,0.053,0.999,-0.244,1963389
-0.003,0.052,1.0,-0.183,1963393
-0.003,0.052,1.0,-0.183,1963397
-0.006,0.053,1.001,-0.244,1963401
-0.006,0.053,1.001,0.0,1963405
-0.006,0.053,1.001,0.0,1963409
-0.003,0.052,0.999,-0.244,1963413
-0.003,0.052,0.999,-0.305,1963417
-0.002,0.052,0.999,-0.061,1963421
-0.002,0.052,0.999,-0.122,1963425
-0.002,0.052,0.999,-0.122,1963429
-0.004,0.053,0.998,-0.183,1963433
-0.004,0.053,0.998,-0.183,1963437
-0.003,0.053,0.999,-0.244,1963440
-0.003,0.053,0.999,-0.244,1963444
-0.003,0.053,0.999,-0.244,1963448
-0.004,0.052,0.999,-0.244,1963452
-0.004,0.052,0.999,-0.244,1963456
-0.004,0.053,0.999,-0.183,1963460
-0.004,0.053,0.999,-0.305,1963464
-0.004,0.053,0.999,-0.305,1963468
-0.004,0.053,0.999,-0.183,1963472
-0.004,0.053,0.999,-0.122,1963476
-0.003,0.051,1.0,-0.183,1963480
-0.003,0.051,1.0,-0.122,1963484
-0.003,0.051,1.0,-0.122,1963488
-0.005,0.052,1.0,-0.244,1963492
-0.005,0.052,1.0,-0.244,1963496
-0.004,0.056,1.0,-0.122,1963500
-0.004,0.056,1.0,-0.122,1963504
-0.004,0.056,1.0,-0.122,1963508
-0.002,0.054,0.999,-0.183,1963512
-0.002,0.054,0.999,-0.122,1963516
-0.003,0.052,0.998,-0.244,1963520
-0.003,0.052,0.998,-0.244,1963524
-0.003,0.052,0.998,-0.244,1963528
-0.004,0.053,0.998,-0.305,1963532
-0.004,0.053,0.998,-0.244,1963536
-0.005,0.054,0.999,-0.122,1963540
-0.005,0.054,0.999,-0.244,1963544
-0.005,0.054,0.999,-0.244,1963548
-0.004,0.054,1.0,-0.244,1963552
-0.004,0.054,1.0,-0.244,1963556
-0.005,0.052,1.0,-0.183,1963560
-0.005,0.052,1.0,-0.244,1963564
-0.005,0.052,1.0,-0.244,1963568
-0.005,0.052,0.999,-0.244,1963572
-0.005,0.052,0.999,-0.244,1963576
-0.004,0.054,0.999,-0.122,1963580
-0.004,0.054,0.999,-0.366,1963583
-0.004,0.054,0.999,-0.366,1963587
-0.004,0.053,1.0,-0.244,1963591
-0.004,0.053,1.0,-0.305,1963595
-0.004,0.052,0.999,-0.305,1963599
-0.004,0.052,0.999,-0.244,1963603
-0.004,0.052,0.999,-0.244,1963607
-0.006,0.052,0.998,-0.183,1963611
-0.006,0.052,0.998,-0.305,1963615
-0.004,0.053,0.999,-0.305,1963619
-0.004,0.053,0.999,-0.366,1963623
-0.004,0.053,0.999,-0.366,1963627
-0.004,0.054,0.999,-0.183,1963631
-0.004,0.054,0.999,-0.183,1963635
-0.004,0.054,0.999,-0.244,1963639
-0.004,0.054,0.999,-0.244,1963643
-0.004,0.054,0.999,-0.244,1963647
-0.003,0.052,1.0,-0.183,1963651
-0.003,0.052,1.0,-0.305,1963655
-0.003,0.053,0.999,-0.244,1963659
-0.003,0.053,0.999,-0.183,1963663
-0.003,0.053,0.999,-0.183,1963667
-0.003,0.054,0.998,-0.122,1963671
-0.003,0.054,0.998,-0.183,1963675
-0.003,0.052,0.998,-0.305,1963679
-0.003,0.052,0.998,-0.244,1963683
-0.003,0.052,0.998,-0.244,1963687
-0.003,0.052,0.999,-0.244,1963691
-0.003,0.052,0.999,-0.244,1963695
-0.004,0.052,1.002,-0.305,1963699
-0.004,0.052,1.002,-0.366,1963703
-0.004,0.052,1.002,-0.366,1963707
-0.004,0.052,0.999,-0.183,1963711
-0.004,0.052,0.999,-0.061,1963715
-0.003,0.052,0.998,-0.122,1963719
-0.003,0.052,0.998,-0.244,1963722
-0.003,0.052,0.998,-0.244,1963726
-0.005,0.054,0.999,-0.366,1963730
-0.005,0.054,0.999,-0.244,1963734
-0.004,0.053,1.001,-0.122,1963738
-0.004,0.053,1.001,-0.244,1963742
-0.004,0.053,1.001,-0.244,1963746
-0.004,0.053,1.0,-0.183,1963750
-0.004,0.053,1.0,-0.244,1963754
-0.003,0.053,1.0,-0.244,1963758
-0.003,0.053,1.0,-0.122,1963762
-0.003,0.053,1.0,-0.122,1963766
-0.003,0.052,0.999,-0.061,1963770
-0.003,0.052,0.999,-0.183,1963774
-0.004,0.052,1.0,-0.183,1963778
-0.004,0.052,1.0,-0.427,1963782
-0.004,0.052,1.0,-0.427,1963786
-0.005,0.052,1.001,-0.366,1963790
-0.005,0.052,1.001,-0.183,1963794
-0.004,0.051,0.999,-0.366,1963798
-0.004,0.051,0.999,-0.366,1963802
-0.004,0.051,0.999,-0.366,1963806
-0.005,0.052,0.999,-0.183,1963810
-0.005,0.052,0.999,-0.122,1963814
-0.006,0.052,1.0,-0.183,1963818
-0.006,0.052,1.0,-0.183,1963822
-0.006,0.052,1.0,-0.183,1963826
-0.005,0.052,1.0,-0.244,1963830
-0.005,0.052,1.0,-0.183,1963834
-0.002,0.054,1.001,-0.122,1963838
-0.002,0.054,1.001,-0.244,1963842
-0.002,0.054,1.001,-0.244,1963846
-0.005,0.054,0.998,-0.244,1963850
-0.005,0.054,0.998,-0.183,1963853
-0.004,0.053,0.999,-0.183,1963857
-0.004,0.053,0.999,-0.183,1963861
-0.004,0.053,0.999,-0.183,1963865
-0.005,0.053,1.001,-0.305,1963869
-0.005,0.053,1.001,-0.183,1963873
-0.004,0.052,0.999,-0.305,1963877
-0.004,0.052,0.999,-0.244,1963881
-0.004,0.052,0.999,-0.244,1963885
-0.004,0.053,0.998,-0.244,1963889
-0.004,0.053,0.998,-0.244,1963893
-0.003,0.053,0.999,-0.244,1963897
-0.003,0.053,0.999,-0.244,1963901
-0.003,0.053,0.999,-0.244,1963905
-0.004,0.053,0.998,-0.183,1963909
-0.004,0.053,0.998,-0.122,1963913
-0.005,0.053,1.001,-0.183,1963917
-0.005,0.053,1.001,-0.122,1963921
-0.005,0.053,1.001,-0.122,1963925
-0.003,0.053,1.0,-0.183,1963929
-0.003,0.053,1.0,-0.183,1963933
-0.005,0.052,0.999,-0.183,1963937
-0.005,0.052,0.999,-0.061,1963941
-0.005,0.052,0.999,-0.061,1963945
-0.004,0.052,1.0,-0.244,1963949
-0.004,0.052,1.0,-0.244,1963953
-0.005,0.053,1.0,-0.244,1963957
-0.005,0.053,1.0,-0.244,1963961
-0.005,0.053,1.0,-0.244,1963965
-0.004,0.054,1.0,-0.244,1963969
-0.004,0.054,1.0,-0.244,1963973
-0.004,0.052,1.0,-0.183,1963977
-0.004,0.052,1.0,-0.122,1963981
-0.004,0.052,1.0,-0.122,1963985
-0.002,0.052,0.998,-0.122,1963989
-0.002,0.052,0.998,-0.183,1963992
-0.003,0.052,0.999,-0.244,1963996
-0.003,0.052,0.999,-0.244,1964000
-0.003,0.052,0.999,-0.244,1964004
-0.002,0.052,1.001,-0.122,1964008
-0.002,0.052,1.001,-0.183,1964012
-0.003,0.052,1.0,-0.244,1964016
-0.003,0.052,1.0,-0.183,1964020
-0.003,0.052,1.0,-0.183,1964024
-0.005,0.053,1.001,-0.244,1964028
-0.005,0.053,1.001,-0.183,1964032
-0.004,0.053,0.999,-0.183,1964036
-0.004,0.053,0.999,-0.183,1964040
-0.004,0.053,0.999,-0.183,1964044
-0.002,0.054,0.998,-0.183,1964048
-0.002,0.054,0.998,-0.244,1964052
-0.004,0.052,1.0,-0.183,1964056
-0.004,0.052,1.0,-0.061,1964060
-0.004,0.052,1.0,-0.061,1964064
-0.003,0.053,0.999,-0.122,1964068
-0.003,0.053,0.999,-0.183,1964072
-0.003,0.053,0.998,-0.122,1964076
-0.003,0.053,0.998,-0.122,1964080
-0.003,0.053,0.998,-0.122,1964084
-0.004,0.054,0.997,-0.061,1964088
-0.004,0.054,0.997,-0.122,1964092
-0.003,0.054,0.999,-0.122,1964096
-0.003,0.054,0.999,-0.183,1964100
-0.003,0.054,0.999,-0.183,1964104
-0.006,0.054,1.0,-0.244,1964108
-0.006,0.054,1.0,-0.183,1964112
-0.004,0.053,1.0,-0.244,1964116
-0.004,0.053,1.0,-0.305,1964120
-0.004,0.053,1.0,-0.305,1964124
-0.003,0.052,0.999,-0.244,1964128
-0.003,0.052,0.999,-0.122,1964132
-0.004,0.053,0.999,-0.061,1964136
-0.004,0.053,0.999,-0.183,1964139
-0.004,0.053,0.999,-0.183,1964143
-0.005,0.054,0.999,-0.244,1964147
-0.005,0.054,0.999,-0.183,1964151
-0.005,0.052,1.0,-0.183,1964155
-0.005,0.052,1.0,-0.244,1964159
-0.005,0.052,1.0,-0.244,1964163
-0.005,0.051,0.999,-0.061,1964167
-0.005,0.051,0.999,-0.183,1964171
-0.005,0.052,1.0,-0.244,1964175
-0.005,0.052,1.0,-0.122,1964179
-0.005,0.052,1.0,-0.122,1964183
-0.004,0.052,0.998,-0.183,1964187
-0.004,0.052,0.998,-0.244,1964191
-0.003,0.052,0.999,-0.183,1964195
-0.003,0.052,0.999,-0.122,1964199
-0.006,0.053,1.0,-0.061,1964203
-0.006,0.053,1.0,-0.061,1964207
-0.006,0.053,1.0,-0.122,1964211
-0.006,0.052,1.0,-0.183,1964215
-0.006,0.052,1.0,-0.183,1964219
-0.003,0.053,0.999,-0.183,1964223
-0.003,0.053,0.999,-0.183,1964227
-0.003,0.053,0.999,-0.122,1964231
-0.002,0.052,0.998,-0.244,1964235
-0.002,0.052,0.998,-0.183,1964239
-0.003,0.052,0.999,-0.305,1964243
-0.003,0.052,0.999,-0.305,1964247
-0.003,0.052,0.999,-0.366,1964251
-0.005,0.054,1.0,-0.305,1964255
-0.005,0.054,1.0,-0.183,1964259
-0.004,0.052,1.0,-0.183,1964263
-0.004,0.052,1.0,-0.183,1964267
-0.004,0.052,1.0,-0.122,1964271
-0.004,0.053,0.998,-0.305,1964275
-0.004,0.053,0.998,-0.183,1964279
-0.004,0.052,0.998,-0.183,1964282
-0.004,0.052,0.998,-0.183,1964286
-0.004,0.052,0.998,-0.122,1964290
-0.003,0.054,1.0,-0.122,1964294
-0.003,0.054,1.0,-0.305,1964298
-0.004,0.052,0.999,-0.244,1964302
-0.004,0.052,0.999,-0.244,1964306
-0.004,0.052,0.999,0.0,1964310
-0.006,0.052,1.0,-0.244,1964314
-0.006,0.052,1.0,-0.183,1964318
-0.005,0.052,0.999,-0.244,1964322
-0.005,0.052,0.999,-0.244,1964326
-0.005,0.052,0.999,-0.183,1964330
-0.003,0.052,0.999,-0.183,1964334
-0.003,0.052,0.999,-0.305,1964338
-0.003,0.053,1.001,-0.244,1964342
-0.003,0.053,1.001,-0.244,1964346
-0.003,0.053,1.001,-0.122,1964350
-0.004,0.053,1.0,-0.122,1964354
-0.004,0.053,1.0,-0.183,1964358
-0.005,0.054,0.999,-0.183,1964362
-0.005,0.054,0.999,-0.183,1964366
-0.005,0.054,0.999,-0.122,1964370
-0.003,0.053,0.999,-0.183,1964374
-0.003,0.053,0.999,-0.244,1964378
-0.003,0.053,0.999,-0.244,1964382
-0.004,0.054,0.999,-0.183,1964386
-0.004,0.054,0.999,-0.183,1964390
-0.003,0.053,0.999,-0.183,1964394
-0.003,0.053,0.999,-0.183,1964397
-0.003,0.052,0.998,-0.183,1964401
-0.003,0.052,0.998,-0.183,1964405
-0.003,0.052,0.998,-0.244,1964409
-0.003,0.052,1.0,-0.183,1964413
-0.003,0.052,1.0,-0.244,1964417
-0.004,0.052,1.001,-0.183,1964421
-0.004,0.052,1.001,-0.183,1964425
-0.004,0.052,1.001,-0.244,1964429
-0.003,0.053,1.0,-0.183,1964433
-0.003,0.053,1.0,-0.122,1964437
-0.002,0.054,1.0,-0.183,1964441
-0.002,0.054,1.0,-0.183,1964445
-0.002,0.054,1.0,-0.244,1964449
-0.003,0.051,1.001,-0.244,1964453
-0.003,0.051,1.001,-0.183,1964457
-0.005,0.052,0.999,-0.244,1964461
-0.005,0.052,0.999,-0.244,1964465
-0.005,0.052,0.999,-0.183,1964469
-0.005,0.052,0.999,-0.244,1964473
-0.005,0.052,0.999,-0.305,1964477
-0.005,0.052,0.999,-0.183,1964481
-0.005,0.052,0.999,-0.183,1964485
-0.005,0.052,0.999,-0.122,1964489
-0.004,0.052,1.0,-0.122,1964493
-0.004,0.052,1.0,-0.122,1964497
-0.004,0.052,1.0,-0.122,1964501
-0.004,0.052,0.998,-0.244,1964505
-0.004,0.052,0.998,-0.244,1964509
-0.004,0.052,0.999,-0.183,1964513
-0.004,0.052,0.999,-0.122,1964517
-0.005,0.052,0.998,-0.183,1964521
-0.005,0.052,0.998,-0.183,1964524
-0.005,0.052,0.998,-0.183,1964528
-0.005,0.053,1.0,-0.122,1964532
-0.005,0.053,1.0,-0.183,1964536
-0.005,0.053,1.0,-0.183,1964540
-0.004,0.052,1.001,-0.305,1964544
-0.004,0.052,1.001,-0.183,1964548
-0.005,0.052,0.999,-0.122,1964552
-0.005,0.052,0.999,-0.183,1964556
-0.006,0.052,1.0,-0.122,1964560
-0.006,0.052,1.0,-0.122,1964564
-0.006,0.052,1.0,-0.244,1964568
-0.005,0.052,1.0,-0.244,1964572
-0.005,0.052,1.0,-0.183,1964576
-0.005,0.053,1.001,-0.183,1964580
-0.005,0.053,1.001,-0.183,1964584
-0.005,0.053,1.001,-0.183,1964588
-0.004,0.053,1.0,-0.244,1964592
-0.004,0.053,1.0,-0.244,1964596
-0.004,0.053,1.0,-0.244,1964600
-0.002,0.052,0.997,-0.244,1964604
-0.002,0.052,0.997,-0.122,1964608
-0.004,0.053,1.0,-0.122,1964612
-0.004,0.053,1.0,-0.122,1964616
-0.003,0.052,1.0,-0.244,1964620
-0.003,0.052,1.0,-0.244,1964624
-0.003,0.052,1.0,-0.183,1964628
-0.003,0.052,1.0,-0.183,1964632
-0.003,0.052,1.0,-0.122,1964636
-0.003,0.054,1.001,-0.183,1964640
-0.003,0.054,1.001,-0.183,1964644
-0.003,0.054,1.001,-0.244,1964648
-0.005,0.053,1.0,-0.183,1964652
-0.005,0.053,1.0,-0.122,1964655
-0.004,0.053,0.998,-0.305,1964659
-0.004,0.053,0.998,-0.305,1964663
-0.004,0.053,0.998,-0.305,1964667
-0.004,0.053,1.0,-0.183,1964671
-0.004,0.053,1.0,-0.305,1964675
-0.003,0.053,1.0,-0.183,1964679
-0.003,0.053,1.0,-0.183,1964683
-0.003,0.053,1.0,-0.244,1964687
-0.004,0.052,0.999,-0.244,1964691
-0.004,0.052,0.999,-0.122,1964695
-0.003,0.052,0.999,-0.122,1964699
-0.003,0.052,0.999,-0.122,1964703
-0.003,0.052,0.999,-0.244,1964707
-0.005,0.052,1.0,-0.122,1964711
-0.005,0.052,1.0,-0.122,1964715
-0.004,0.052,0.998,-0.244,1964719
-0.004,0.052,0.998,-0.244,1964723
-0.004,0.052,0.998,-0.305,1964727
-0.004,0.052,1.001,-0.244,1964731
-0.004,0.052,1.001,-0.183,1964735
-0.004,0.052,1.0,-0.183,1964739
-0.004,0.052,1.0,-0.183,1964743
-0.004,0.052,1.0,-0.244,1964747
-0.004,0.053,1.0,0.0,1964751
-0.004,0.053,1.0,0.0,1964755
-0.004,0.053,1.0,0.0,1964759
-0.003,0.052,0.999,-0.305,1964762
-0.003,0.052,0.999,-0.305,1964766
-0.004,0.052,0.998,-0.183,1964770
-0.004,0.052,0.998,-0.244,1964774
-0.004,0.052,0.998,-0.244,1964778
-0.002,0.053,0.997,-0.183,1964782
-0.002,0.053,0.997,-0.183,1964786
-0.003,0.053,0.998,-0.061,1964790
-0.003,0.053,0.998,-0.183,1964794
-0.003,0.053,0.998,-0.183,1964798
-0.004,0.054,0.999,-0.122,1964802
-0.004,0.054,0.999,0.0,1964806
-0.002,0.053,0.999,-0.061,1964810
-0.002,0.053,0.999,-0.244,1964814
-0.002,0.053,0.999,-0.244,1964818
-0.004,0.054,0.999,-0.244,1964822
-0.004,0.054,0.999,-0.244,1964826
-0.001,0.052,0.999,-0.183,1964830
-0.001,0.052,0.999,-0.183,1964834
-0.001,0.052,0.999,-0.183,1964838
-0.002,0.052,0.999,-0.061,1964842
-0.002,0.052,0.999,-0.061,1964846
-0.003,0.053,1.0,-0.183,1964850
-0.003,0.053,1.0,-0.122,1964854
-0.003,0.053,1.0,-0.122,1964858
-0.005,0.053,1.0,-0.244,1964862
-0.005,0.053,1.0,-0.244,1964866
-0.004,0.052,0.999,-0.183,1964870
-0.004,0.052,0.999,-0.183,1964874
-0.002,0.053,0.998,-0.122,1964878
-0.002,0.053,0.998,-0.122,1964882
-0.002,0.053,0.998,-0.183,1964886
-0.003,0.053,0.999,-0.244,1964890
-0.003,0.053,0.999,-0.122,1964894
-0.005,0.053,1.0,-0.244,1964898
-0.005,0.053,1.0,-0.244,1964902
-0.005,0.053,1.0,-0.305,1964905
-0.002,0.053,0.998,-0.122,1964909
-0.002,0.053,0.998,-0.061,1964913
-0.003,0.052,1.0,-0.061,1964917
-0.003,0.052,1.0,-0.061,1964921
-0.003,0.052,1.0,-0.305,1964925
-0.005,0.053,0.999,-0.305,1964929
-0.005,0.053,0.999,-0.244,1964933
-0.005,0.052,0.998,-0.183,1964937
-0.005,0.052,0.998,-0.183,1964941
-0.005,0.052,0.998,-0.122,1964945
-0.005,0.051,0.998,-0.183,1964949
-0.005,0.051,0.998,-0.122,1964953
-0.004,0.052,0.999,-0.183,1964957
-0.004,0.052,0.999,-0.183,1964961
-0.004,0.052,0.999,-0.183,1964965
-0.002,0.052,0.998,-0.244,1964969
-0.002,0.052,0.998,-0.183,1964973
-0.003,0.052,1.0,-0.122,1964977
-0.003,0.052,1.0,-0.122,1964981
-0.003,0.052,1.0,-0.122,1964985
-0.003,0.053,0.999,-0.122,1964989
-0.003,0.053,0.999,-0.305,1964993
-0.003,0.052,0.999,-0.183,1964997
-0.003,0.052,0.999,-0.183,1965001
-0.003,0.052,0.999,-0.244,1965005
-0.004,0.052,1.0,-0.183,1965009
-0.004,0.052,1.0,-0.244,1965013
-0.004,0.052,1.0,-0.244,1965017
-0.004,0.052,1.0,-0.244,1965021
-0.004,0.052,1.0,-0.183,1965025
-0.004,0.053,0.999,-0.244,1965029
-0.004,0.053,0.999,-0.305,1965033
-0.003,0.053,1.0,-0.244,1965037
-0.003,0.053,1.0,-0.244,1965041
-0.003,0.053,1.0,-0.122,1965044
-0.003,0.052,1.0,-0.183,1965048
-0.003,0.052,1.0,-0.183,1965052
-0.004,0.053,1.001,-0.244,1965056
-0.004,0.053,1.001,-0.244,1965060
-0.004,0.053,1.001,-0.305,1965064
-0.003,0.052,0.999,-0.244,1965068
-0.003,0.052,0.999,-0.305,1965072
-0.003,0.053,0.998,-0.122,1965076
-0.003,0.053,0.998,-0.122,1965080
-0.003,0.053,0.998,-0.183,1965084
-0.004,0.054,1.0,-0.244,1965088
-0.004,0.054,1.0,-0.122,1965092
-0.004,0.052,1.0,-0.122,1965096
-0.004,0.052,1.0,-0.122,1965100
-0.004,0.052,1.0,-0.183,1965104
-0.003,0.052,1.0,-0.061,1965108
-0.003,0.052,1.0,-0.183,1965112
-0.004,0.053,0.999,-0.244,1965116
-0.004,0.053,0.999,-0.244,1965120
-0.004,0.053,0.999,-0.122,1965124
-0.004,0.053,0.999,-0.183,1965128
-0.004,0.053,0.999,-0.305,1965132
-0.004,0.054,0.998,-0.244,1965136
-0.004,0.054,0.998,-0.244,1965140
-0.004,0.054,0.998,-0.305,1965144
-0.003,0.052,0.998,-0.244,1965148
-0.003,0.052,0.998,-0.244,1965152
-0.003,0.052,0.999,-0.244,1965156
-0.003,0.052,0.999,-0.244,1965160
-0.003,0.052,0.999,-0.061,1965164
-0.004,0.052,0.997,-0.305,1965167
-0.004,0.052,0.997,-0.305,1965171
-0.003,0.052,0.999,-0.183,1965175
-0.003,0.052,0.999,-0.183,1965179
-0.003,0.052,0.999,-0.122,1965183
-0.004,0.052,0.998,-0.244,1965187
-0.004,0.052,0.998,-0.183,1965191
-0.005,0.052,0.998,-0.061,1965195
-0.005,0.052,0.998,-0.061,1965199
-0.005,0.052,0.998,-0.122,1965203
-0.003,0.052,1.001,-0.061,1965207
-0.003,0.052,1.001,-0.122,1965211
-0.004,0.052,1.0,-0.183,1965215
-0.004,0.052,1.0,-0.183,1965219
-0.004,0.052,1.0,-0.122,1965223
-0.003,0.053,0.999,-0.122,1965227
-0.003,0.053,0.999,-0.305,1965231
-0.003,0.054,1.0,-0.244,1965235
-0.003,0.054,1.0,-0.244,1965239
-0.003,0.054,1.0,-0.183,1965243
-0.004,0.053,0.999,-0.122,1965247
-0.004,0.053,0.999,-0.183,1965251
-0.004,0.053,1.0,-0.183,1965255
-0.004,0.053,1.0,-0.183,1965259
-0.004,0.053,1.0,-0.366,1965263
-0.004,0.052,0.997,-0.305,1965267
-0.004,0.052,0.997,-0.183,1965271
-0.002,0.052,0.999,-0.183,1965275
-0.002,0.052,0.999,-0.183,1965279
-0.002,0.052,0.999,-0.305,1965283
-0.003,0.052,1.0,-0.244,1965287
-0.003,0.052,1.0,-0.183,1965291
-0.003,0.053,1.0,-0.122,1965295
-0.003,0.053,1.0,-0.122,1965298
-0.003,0.053,1.0,-0.122,1965302
-0.004,0.052,1.0,-0.183,1965306
-0.004,0.052,1.0,-0.122,1965310
-0.005,0.053,1.0,-0.122,1965314
-0.005,0.053,1.0,-0.122,1965318
-0.005,0.053,1.0,-0.183,1965322
-0.003,0.054,1.001,-0.183,1965326
-0.003,0.054,1.001,-0.244,1965330
-0.004,0.053,1.0,-0.183,1965334
-0.004,0.053,1.0,-0.183,1965338
-0.004,0.053,1.0,-0.183,1965342
-0.003,0.052,1.0,-0.122,1965346
-0.003,0.052,1.0,-0.122,1965350
-0.004,0.054,0.999,-0.183,1965354
-0.004,0.054,0.999,-0.183,1965358
-0.004,0.054,0.999,-0.244,1965362
-0.004,0.052,1.0,-0.183,1965366
-0.004,0.052,1.0,-0.183,1965370
-0.005,0.052,0.997,-0.244,1965374
-0.005,0.052,0.997,-0.244,1965378
-0.005,0.052,0.997,-0.183,1965382
-0.003,0.053,0.999,-0.183,1965386
-0.003,0.053,0.999,-0.244,1965390
-0.005,0.053,0.998,-0.183,1965394
-0.005,0.053,0.998,-0.183,1965398
-0.005,0.053,0.998,-0.122,1965402
-0.004,0.053,0.999,-0.183,1965406
-0.004,0.053,0.999,-0.244,1965410
-0.004,0.052,1.001,-0.305,1965414
-0.004,0.052,1.001,-0.305,1965418
-0.004,0.052,1.001,-0.183,1965422
-0.005,0.053,1.0,-0.122,1965426
-0.005,0.053,1.0,-0.244,1965429
-0.003,0.053,1.002,-0.244,1965433
-0.003,0.053,1.002,-0.244,1965437
-0.003,0.053,1.002,-0.244,1965441
-0.004,0.052,0.999,-0.183,1965445
-0.004,0.052,0.999,-0.122,1965449
-0.004,0.052,0.999,-0.244,1965453
-0.004,0.052,0.999,-0.244,1965457
-0.004,0.052,0.999,-0.305,1965461
-0.003,0.053,1.0,-0.305,1965465
-0.003,0.053,1.0,-0.122,1965469
-0.003,0.054,1.0,-0.183,1965473
-0.003,0.054,1.0,-0.183,1965477
-0.003,0.054,1.0,-0.244,1965481
-0.005,0.052,1.0,-0.244,1965485
-0.005,0.052,1.0,-0.183,1965489
-0.003,0.052,1.0,-0.061,1965493
-0.003,0.052,1.0,-0.061,1965497
-0.003,0.052,1.0,-0.244,1965501
-0.003,0.053,0.998,-0.244,1965505
-0.003,0.053,0.998,-0.183,1965509
-0.005,0.053,1.0,-0.244,1965513
-0.005,0.053,1.0,-0.244,1965517
-0.005,0.053,1.0,-0.305,1965521
-0.005,0.052,1.0,-0.122,1965525
-0.005,0.052,1.0,-0.244,1965529
-0.004,0.052,0.998,-0.244,1965533
-0.004,0.052,0.998,-0.244,1965537
-0.004,0.052,0.998,-0.244,1965541
-0.004,0.053,0.999,0.0,1965545
-0.004,0.053,0.999,-0.244,1965548
-0.005,0.052,0.999,-0.305,1965552
-0.005,0.052,0.999,-0.305,1965556
-0.005,0.052,0.999,-0.183,1965560
-0.003,0.052,0.999,-0.183,1965564
-0.003,0.052,0.999,-0.122,1965568
-0.004,0.052,1.0,-0.122,1965572
-0.004,0.052,1.0,-0.122,1965576
-0.004,0.052,1.0,-0.061,1965580
-0.003,0.053,1.0,0.0,1965584
-0.003,0.053,1.0,-0.122,1965588
-0.005,0.053,0.999,-0.244,1965592
-0.005,0.053,0.999,-0.244,1965596
-0.005,0.053,0.999,-0.122,1965600
-0.004,0.052,1.0,-0.122,1965604
-0.004,0.052,1.0,-0.122,1965608
-0.004,0.053,0.998,-0.122,1965612
-0.004,0.053,0.998,-0.122,1965616
-0.004,0.053,0.998,-0.244,1965620
-0.002,0.054,0.997,-0.244,1965624
-0.002,0.054,0.997,-0.183,1965628
-0.003,0.054,0.998,-0.244,1965632
-0.003,0.054,0.998,-0.244,1965636
-0.003,0.054,0.998,-0.305,1965640
-0.002,0.052,0.999,-0.244,1965644
-0.002,0.052,0.999,-0.122,1965648
-0.004,0.051,1.0,-0.183,1965652
-0.004,0.051,1.0,-0.183,1965656
-0.004,0.051,1.0,-0.183,1965660
-0.004,0.052,1.0,-0.244,1965664
-0.004,0.052,1.0,-0.183,1965668
-0.003,0.053,0.999,-0.183,1965671
-0.003,0.053,0.999,-0.183,1965675
-0.003,0.053,0.999,-0.183,1965679
-0.005,0.054,0.998,-0.122,1965683
-0.005,0.054,0.998,-0.061,1965687
-0.003,0.054,0.999,-0.305,1965691
-0.003,0.054,0.999,-0.305,1965695
-0.003,0.054,0.999,-0.305,1965699
-0.004,0.052,0.999,-0.183,1965703
-0.004,0.052,0.999,-0.244,1965707
-0.004,0.052,0.999,-0.366,1965711
-0.004,0.052,0.999,-0.366,1965715
-0.004,0.052,0.999,-0.366,1965719
-0.002,0.052,1.0,-0.183,1965723
-0.002,0.052,1.0,-0.183,1965727
-0.004,0.053,0.999,-0.183,1965731
-0.004,0.053,0.999,-0.183,1965735
-0.004,0.053,0.999,-0.244,1965739
-0.003,0.054,0.998,-0.244,1965743
-0.003,0.054,0.998,-0.183,1965747
-0.004,0.053,0.998,-0.183,1965751
-0.004,0.053,0.998,-0.183,1965755
-0.004,0.053,0.998,-0.305,1965759
-0.004,0.053,0.998,-0.122,1965763
-0.004,0.053,0.998,-0.122,1965767
-0.004,0.052,0.999,-0.183,1965771
-0.004,0.052,0.999,-0.183,1965775
-0.004,0.052,0.999,-0.305,1965779
-0.003,0.053,1.001,-0.183,1965783
-0.003,0.053,1.001,-0.244,1965787
-0.002,0.052,1.0,-0.244,1965791
-0.002,0.052,1.0,-0.244,1965795
-0.002,0.052,1.0,-0.366,1965799
-0.004,0.053,0.999,-0.122,1965803
-0.004,0.053,0.999,-0.122,1965807
-0.004,0.053,0.999,-0.244,1965811
-0.004,0.053,0.999,-0.244,1965815
-0.004,0.053,0.999,-0.244,1965818
-0.003,0.053,0.998,-0.244,1965822
-0.003,0.053,0.998,-0.183,1965826
-0.004,0.053,1.0,-0.244,1965830
-0.004,0.053,1.0,-0.244,1965834
-0.004,0.053,1.0,-0.183,1965838
-0.003,0.053,1.0,-0.183,1965842
-0.003,0.053,1.0,-0.122,1965846
-0.005,0.053,0.999,-0.122,1965850
-0.005,0.053,0.999,-0.122,1965854
-0.005,0.053,0.999,-0.183,1965858
-0.004,0.052,1.0,-0.244,1965862
-0.004,0.052,1.0,-0.305,1965866
-0.004,0.052,0.999,-0.183,1965870
-0.004,0.052,0.999,-0.183,1965874
-0.004,0.052,0.999,-0.122,1965878
-0.005,0.053,0.998,-0.122,1965882
-0.005,0.053,0.998,-0.244,1965886
-0.003,0.053,0.999,-0.183,1965890
-0.003,0.053,0.999,-0.183,1965894
-0.003,0.053,0.999,-0.244,1965898
-0.004,0.052,1.0,-0.122,1965902
-0.004,0.052,1.0,-0.244,1965906
-0.003,0.053,1.0,-0.305,1965910
-0.003,0.053,1.0,-0.305,1965914
-0.003,0.053,1.0,-0.183,1965918
-0.003,0.054,0.999,-0.183,1965922
-0.003,0.054,0.999,-0.183,1965926
-0.003,0.054,0.999,-0.183,1965930
-0.003,0.054,0.999,-0.183,1965934
-0.003,0.054,0.999,-0.122,1965938
-0.003,0.052,1.0,-0.122,1965941
-0.003,0.052,1.0,-0.305,1965945
-0.003,0.053,1.0,-0.183,1965949
-0.003,0.053,1.0,-0.183,1965953
-0.003,0.053,1.0,-0.122,1965957
-0.003,0.053,1.0,0.0,1965961
-0.003,0.053,1.0,-0.061,1965965
-0.005,0.052,0.999,-0.427,1965969
-0.005,0.052,0.999,-0.427,1965973
-0.005,0.052,0.999,-0.244,1965977
-0.004,0.053,1.001,-0.122,1965981
-0.004,0.053,1.001,-0.183,1965985
-0.004,0.053,1.0,-0.183,1965989
-0.004,0.053,1.0,-0.183,1965993
-0.004,0.053,1.0,-0.122,1965997
-0.003,0.052,1.001,-0.122,1966001
-0.003,0.052,1.001,-0.122,1966005
-0.005,0.053,1.0,-0.183,1966009
-0.005,0.053,1.0,-0.183,1966013
-0.005,0.053,1.0,-0.183,1966017
-0.003,0.053,1.0,-0.366,1966021
-0.003,0.053,1.0,-0.305,1966025
-0.003,0.054,1.0,-0.183,1966029
-0.003,0.054,1.0,-0.183,1966033
-0.003,0.054,1.0,-0.244,1966037
-0.005,0.054,0.998,-0.305,1966041
-0.005,0.054,0.998,-0.183,1966045
-0.003,0.053,0.999,-0.122,1966049
-0.003,0.053,0.999,-0.122,1966053
-0.003,0.053,0.999,-0.183,1966057
-0.004,0.055,0.998,-0.183,1966060
-0.004,0.055,0.998,-0.305,1966064
-0.004,0.052,1.0,-0.244,1966068
-0.004,0.052,1.0,-0.244,1966072
-0.004,0.052,1.0,-0.244,1966076
-0.004,0.052,1.0,-0.183,1966080
-0.004,0.052,1.0,-0.244,1966084
-0.004,0.052,0.998,-0.244,1966088
-0.004,0.052,0.998,-0.244,1966092
-0.004,0.052,0.998,-0.244,1966096
-0.002,0.053,0.999,-0.244,1966100
-0.002,0.053,0.999,-0.244,1966104
-0.003,0.052,0.999,-0.122,1966108
-0.003,0.052,0.999,-0.122,1966112
-0.003,0.052,0.999,-0.244,1966116
-0.004,0.053,0.999,-0.183,1966120
-0.004,0.053,0.999,-0.183,1966124
-0.002,0.052,1.001,-0.244,1966128
-0.002,0.052,1.001,-0.244,1966132
-0.002,0.052,1.001,-0.244,1966136
-0.002,0.052,1.0,-0.366,1966140
-0.002,0.052,1.0,-0.244,1966144
-0.005,0.052,0.999,-0.305,1966148
-0.005,0.052,0.999,-0.305,1966152
-0.005,0.052,0.999,-0.183,1966156
-0.005,0.052,1.0,-0.183,1966160
-0.005,0.052,1.0,-0.122,1966164
-0.003,0.053,1.0,-0.244,1966168
-0.003,0.053,1.0,-0.244,1966172
-0.003,0.053,1.0,-0.183,1966176
-0.003,0.053,0.998,-0.305,1966180
-0.003,0.053,0.998,-0.305,1966184
-0.004,0.054,1.0,-0.122,1966188
-0.004,0.054,1.0,-0.122,1966191
-0.004,0.054,1.0,-0.183,1966195
-0.002,0.053,1.0,-0.122,1966199
-0.002,0.053,1.0,-0.122,1966203
-0.004,0.053,0.999,-0.244,1966207
-0.004,0.053,0.999,-0.244,1966211
-0.004,0.053,0.999,-0.183,1966215
-0.005,0.055,0.999,0.0,1966219
-0.005,0.055,0.999,-0.244,1966223
-0.004,0.053,0.999,-0.183,1966227
-0.004,0.053,0.999,-0.183,1966231
-0.004,0.053,0.999,-0.305,1966235
-0.004,0.054,0.998,-0.122,1966239
-0.004,0.054,0.998,-0.122,1966243
-0.003,0.054,0.998,-0.244,1966247
-0.003,0.054,0.998,-0.244,1966251
-0.003,0.054,0.998,-0.183,1966255
-0.003,0.052,0.999,-0.183,1966259
-0.003,0.052,0.999,-0.244,1966263
-0.003,0.053,0.998,-0.183,1966267
-0.003,0.053,0.998,-0.183,1966271
-0.003,0.053,0.998,-0.305,1966275
-0.005,0.052,0.999,-0.305,1966279
-0.005,0.052,0.999,-0.183,1966283
-0.005,0.051,0.998,-0.122,1966287
-0.005,0.051,0.998,-0.122,1966291
-0.005,0.051,0.998,-0.305,1966295
-0.003,0.052,1.0,-0.244,1966299
-0.003,0.052,1.0,-0.122,1966303
-0.003,0.052,0.999,-0.122,1966307
-0.003,0.052,0.999,-0.122,1966311
-0.003,0.052,0.999,-0.244,1966315
-0.004,0.052,1.0,-0.427,1966318
-0.004,0.052,1.0,-0.244,1966322
-0.002,0.053,0.999,-0.122,1966326
-0.002,0.053,0.999,-0.122,1966330
-0.002,0.053,0.999,-0.305,1966334
-0.003,0.052,1.0,-0.122,1966338
-0.003,0.052,1.0,-0.122,1966342
-0.004,0.052,0.999,-0.244,1966346
-0.004,0.052,0.999,-0.244,1966350
-0.004,0.052,0.999,-0.244,1966354
-0.002,0.054,0.998,-0.244,1966358
-0.002,0.054,0.998,-0.244,1966362
-0.002,0.053,1.0,-0.183,1966366
-0.002,0.053,1.0,-0.183,1966370
-0.002,0.053,1.0,-0.122,1966374
-0.003,0.052,1.0,-0.183,1966378
-0.003,0.052,1.0,-0.122,1966382
-0.005,0.053,0.999,-0.061,1966386
-0.005,0.053,0.999,-0.061,1966390
-0.005,0.053,0.999,-0.061,1966394
-0.004,0.052,1.0,-0.244,1966398
-0.004,0.052,1.0,-0.305,1966402
-0.002,0.052,1.0,-0.061,1966406
-0.002,0.052,1.0,-0.061,1966410
-0.002,0.052,1.0,-0.183,1966414
-0.003,0.053,0.998,-0.183,1966418
-0.003,0.053,0.998,-0.183,1966422
-0.005,0.053,0.999,-0.183,1966426
-0.005,0.053,0.999,-0.183,1966430
-0.005,0.053,0.999,-0.183,1966434
-0.004,0.051,1.0,-0.183,1966438
-0.004,0.051,1.0,-0.183,1966442
-0.003,0.052,0.999,-0.122,1966446
-0.003,0.052,0.999,-0.122,1966450
-0.003,0.052,0.999,-0.183,1966454
-0.005,0.053,0.999,-0.244,1966458
-0.005,0.053,0.999,-0.183,1966462
-0.005,0.052,0.998,-0.122,1966466
-0.005,0.052,0.998,-0.122,1966469
-0.005,0.052,0.998,-0.183,1966473
-0.004,0.052,0.999,-0.183,1966477
-0.004,0.052,0.999,-0.183,1966481
-0.004,0.052,1.0,-0.122,1966485
-0.004,0.052,1.0,-0.122,1966489
-0.004,0.052,1.0,-0.061,1966493
-0.005,0.052,1.001,-0.244,1966497
-0.005,0.052,1.001,-0.244,1966501
-0.004,0.052,1.0,-0.183,1966505
-0.004,0.052,1.0,-0.183,1966509
-0.004,0.052,1.0,-0.183,1966513
-0.004,0.053,0.998,-0.244,1966517
-0.004,0.053,0.998,-0.244,1966521
-0.006,0.053,1.0,-0.122,1966525
-0.006,0.053,1.0,-0.122,1966529
-0.006,0.053,1.0,-0.244,1966533
-0.003,0.052,1.0,-0.122,1966537
-0.003,0.052,1.0,-0.244,1966541
-0.003,0.054,0.999,-0.244,1966545
-0.003,0.054,0.999,-0.244,1966549
-0.003,0.054,0.999,-0.122,1966553
-0.002,0.054,1.001,-0.183,1966557
-0.002,0.054,1.001,-0.305,1966561
-0.003,0.053,1.0,-0.183,1966565
-0.003,0.053,1.0,-0.183,1966569
-0.003,0.053,1.0,-0.122,1966573
-0.004,0.052,0.997,-0.061,1966577
-0.004,0.052,0.997,-0.061,1966581
-0.003,0.052,1.0,-0.183,1966584
-0.003,0.052,1.0,-0.183,1966588
-0.003,0.052,1.0,-0.183,1966592
-0.003,0.053,1.0,-0.244,1966596
-0.003,0.053,1.0,-0.122,1966600
-0.004,0.053,0.998,-0.183,1966604
-0.004,0.053,0.998,-0.183,1966608
-0.004,0.053,0.998,-0.122,1966612
-0.004,0.052,1.0,-0.122,1966616
-0.004,0.052,1.0,-0.183,1966620
-0.004,0.054,0.998,-0.122,1966624
-0.004,0.054,0.998,-0.122,1966628
-0.004,0.054,0.998,-0.122,1966632
-0.004,0.052,1.0,-0.183,1966636
-0.004,0.052,1.0,-0.122,1966640
-0.003,0.052,1.001,-0.183,1966644
-0.003,0.052,1.001,-0.183,1966648
-0.003,0.052,1.001,-0.244,1966652
-0.004,0.052,1.0,-0.122,1966656
-0.004,0.052,1.0,-0.183,1966660
-0.005,0.052,0.997,-0.244,1966664
-0.005,0.052,0.997,-0.244,1966668
-0.005,0.052,0.997,-0.305,1966672
-0.005,0.052,0.999,-0.183,1966676
-0.005,0.052,0.999,-0.183,1966680
-0.004,0.051,1.001,-0.305,1966684
-0.004,0.051,1.001,-0.305,1966688
-0.004,0.051,1.001,-0.244,1966692
-0.003,0.053,1.0,-0.183,1966696
-0.003,0.053,1.0,-0.061,1966700
-0.005,0.052,0.998,-0.183,1966704
-0.005,0.052,0.998,-0.183,1966708
-0.005,0.052,0.998,-0.183,1966712
-0.005,0.052,0.999,-0.183,1966715
-0.005,0.052,0.999,-0.183,1966719
-0.005,0.054,0.998,-0.244,1966723
-0.005,0.054,0.998,-0.244,1966727
-0.005,0.054,0.998,-0.244,1966731
-0.004,0.054,1.0,-0.244,1966735
-0.004,0.054,1.0,-0.244,1966739
-0.002,0.053,1.0,-0.183,1966743
-0.002,0.053,1.0,-0.183,1966747
-0.002,0.053,1.0,-0.244,1966751
-0.004,0.054,0.999,-0.244,1966755
-0.004,0.054,0.999,-0.183,1966759
-0.002,0.053,0.998,-0.122,1966763
-0.002,0.053,0.998,-0.122,1966767
-0.002,0.053,0.998,-0.183,1966771
-0.003,0.053,0.999,-0.244,1966775
-0.003,0.053,0.999,-0.244,1966779
-0.002,0.053,1.0,-0.183,1966783
-0.002,0.053,1.0,-0.183,1966787
-0.002,0.053,1.0,-0.183,1966791
-0.004,0.052,1.002,-0.183,1966795
-0.004,0.052,1.002,-0.244,1966799
-0.002,0.052,0.999,-0.183,1966803
-0.002,0.052,0.999,-0.183,1966807
-0.002,0.052,0.999,-0.183,1966811
-0.004,0.053,1.0,-0.305,1966815
-0.004,0.053,1.0,-0.183,1966819
-0.005,0.053,0.999,-0.244,1966823
-0.005,0.053,0.999,-0.244,1966827
-0.005,0.053,0.999,-0.244,1966831
-0.005,0.054,0.997,-0.122,1966835
-0.005,0.054,0.997,-0.305,1966839
-0.004,0.052,0.998,-0.244,1966842
-0.004,0.052,0.998,-0.244,1966846
-0.004,0.052,0.998,-0.061,1966850
-0.004,0.052,0.998,-0.122,1966854
-0.004,0.052,0.998,-0.244,1966858
-0.004,0.052,0.998,-0.244,1966862
-0.004,0.052,0.998,-0.244,1966866
-0.004,0.052,0.998,-0.244,1966870
-0.005,0.052,0.999,-0.183,1966874
-0.005,0.052,0.999,-0.244,1966878
-0.005,0.052,0.999,-0.244,1966882
-0.005,0.052,0.999,-0.244,1966886
-0.005,0.052,0.999,-0.183,1966890
-0.005,0.051,1.0,-0.061,1966894
-0.005,0.051,1.0,-0.183,1966898
-0.006,0.053,1.0,-0.244,1966902
-0.006,0.053,1.0,-0.244,1966906
-0.006,0.053,1.0,-0.183,1966910
-0.006,0.053,0.999,-0.061,1966914
-0.006,0.053,0.999,-0.183,1966918
-0.003,0.054,1.0,-0.366,1966922
-0.003,0.054,1.0,-0.366,1966926
-0.003,0.054,1.0,-0.244,1966930
-0.005,0.052,0.999,-0.183,1966934
-0.005,0.052,0.999,-0.183,1966938
-0.003,0.053,0.998,-0.061,1966942
-0.003,0.053,0.998,-0.061,1966946
-0.003,0.053,0.998,-0.305,1966950
-0.001,0.053,0.999,-0.183,1966954
-0.001,0.053,0.999,-0.183,1966958
-0.003,0.052,1.0,-0.244,1966962
-0.003,0.052,1.0,-0.244,1966966
-0.003,0.052,1.0,-0.122,1966970
-0.004,0.053,0.997,-0.183,1966973
-0.004,0.053,0.997,0.0,1966977
-0.004,0.054,0.998,-0.061,1966981
-0.004,0.054,0.998,-0.061,1966985
-0.004,0.054,0.998,-0.244,1966989
-0.003,0.053,0.998,-0.366,1966993
-0.003,0.053,0.998,-0.305,1966997
-0.004,0.053,1.0,-0.183,1967001
-0.004,0.053,1.0,-0.183,1967005
-0.004,0.053,1.0,-0.183,1967009
-0.005,0.053,1.0,-0.305,1967013
-0.005,0.053,1.0,-0.183,1967017
-0.003,0.052,0.999,-0.183,1967021
-0.003,0.052,0.999,-0.183,1967025
-0.003,0.052,0.999,-0.244,1967029
-0.005,0.052,1.0,-0.244,1967033
-0.005,0.052,1.0,-0.183,1967037
-0.004,0.053,0.999,-0.122,1967041
-0.004,0.053,0.999,-0.122,1967045
-0.004,0.053,0.999,-0.183,1967049
-0.004,0.052,1.0,-0.244,1967053
-0.004,0.052,1.0,-0.244,1967057
-0.005,0.052,0.999,-0.061,1967061
-0.005,0.052,0.999,-0.061,1967065
-0.005,0.052,0.999,-0.122,1967069
-0.004,0.052,0.997,-0.244,1967073
-0.004,0.052,0.997,-0.305,1967077
-0.004,0.052,1.0,-0.183,1967081
-0.004,0.052,1.0,-0.183,1967085
-0.004,0.052,1.0,-0.183,1967089
-0.005,0.053,1.0,-0.122,1967092
-0.005,0.053,1.0,-0.122,1967096
-0.004,0.054,1.0,-0.183,1967100
-0.004,0.054,1.0,-0.183,1967104
-0.004,0.054,1.0,-0.183,1967108
-0.003,0.053,0.999,-0.122,1967112
-0.003,0.053,0.999,-0.122,1967116
-0.004,0.054,1.0,-0.183,1967120
-0.004,0.054,1.0,-0.183,1967124
-0.004,0.054,1.0,-0.183,1967128
-0.005,0.055,1.0,-0.244,1967132
-0.005,0.055,1.0,-0.244,1967136
-0.004,0.054,0.999,-0.122,1967140
-0.004,0.054,0.999,-0.122,1967144
-0.004,0.054,0.999,-0.183,1967148
-0.002,0.053,0.999,-0.183,1967152
-0.002,0.053,0.999,-0.244,1967156
-0.004,0.054,1.001,-0.305,1967160
-0.004,0.054,1.001,-0.305,1967164
-0.004,0.054,1.001,-0.122,1967168
-0.004,0.054,0.997,-0.305,1967172
-0.004,0.054,0.997,-0.305,1967176
-0.004,0.053,0.997,-0.305,1967180
-0.004,0.053,0.997,-0.305,1967184
-0.004,0.053,0.997,-0.122,1967188
-0.004,0.053,1.0,-0.183,1967192
-0.004,0.053,1.0,-0.305,1967196
-0.004,0.052,1.0,-0.122,1967200
-0.004,0.052,1.0,-0.122,1967204
-0.004,0.052,1.0,-0.305,1967208
-0.003,0.052,0.999,-0.183,1967212
-0.003,0.052,0.999,-0.122,1967216
-0.003,0.052,1.002,-0.183,1967219
-0.003,0.052,1.002,-0.183,1967223
-0.003,0.052,1.002,-0.183,1967227
-0.005,0.05,0.998,-0.183,1967231
-0.005,0.05,0.998,-0.183,1967235
-0.003,0.05,0.999,-0.183,1967239
-0.003,0.05,0.999,-0.183,1967243
-0.003,0.05,0.999,-0.183,1967247
-0.004,0.046,1.005,-0.122,1967251
-0.004,0.046,1.005,-0.122,1967255
-0.004,0.047,0.996,-0.061,1967259
-0.004,0.047,0.996,-0.061,1967263
-0.004,0.047,0.996,-0.244,1967267
-0.004,0.048,1.0,-0.244,1967271
-0.004,0.048,1.0,-0.061,1967275
-0.004,0.051,1.007,-0.061,1967279
-0.004,0.051,1.007,-0.061,1967283
-0.004,0.051,1.007,-0.183,1967287
-0.002,0.052,0.996,-0.061,1967291
-0.002,0.052,0.996,-0.122,1967295
-0.003,0.054,0.998,-0.122,1967299
-0.003,0.054,0.998,-0.122,1967303
-0.003,0.054,0.998,-0.122,1967307
-0.002,0.056,1.003,-0.305,1967311
-0.002,0.056,1.003,-0.305,1967315
0.0,0.055,0.998,-0.244,1967319
0.0,0.055,0.998,-0.244,1967323
0.0,0.055,0.998,-0.183,1967327
0.0,0.054,1.0,-0.183,1967331
0.0,0.054,1.0,-0.244,1967335
0.0,0.052,1.002,-0.305,1967339
0.0,0.052,1.002,-0.305,1967342
0.0,0.052,1.002,-0.305,1967346
0.0,0.053,1.0,-0.305,1967350
0.0,0.053,1.0,-0.305,1967354
-0.0,0.053,1.0,-0.366,1967358
-0.0,0.053,1.0,-0.366,1967362
-0.0,0.053,1.0,-0.244,1967366
-0.001,0.052,1.002,-0.183,1967370
-0.001,0.052,1.002,-0.244,1967374
-0.001,0.052,1.006,-0.183,1967378
-0.001,0.052,1.006,-0.183,1967382
-0.001,0.052,1.006,-0.061,1967386
-0.001,0.051,1.008,-0.183,1967390
-0.001,0.051,1.008,-0.244,1967394
-0.003,0.047,1.003,-0.244,1967398
-0.003,0.047,1.003,-0.244,1967402
-0.003,0.047,1.003,-0.183,1967406
-0.006,0.047,0.994,-0.244,1967410
-0.006,0.047,0.994,-0.183,1967414
-0.006,0.047,1.0,-0.244,1967418
-0.006,0.047,1.0,-0.244,1967422
-0.006,0.047,1.0,-0.244,1967426
-0.009,0.049,0.993,0.0,1967430
-0.009,0.049,0.993,-0.122,1967434
-0.009,0.051,0.987,-0.122,1967438
-0.009,0.051,0.987,-0.122,1967441
-0.009,0.051,0.987,-0.244,1967445
-0.008,0.055,0.992,-0.122,1967449
-0.008,0.055,0.992,-0.183,1967453
-0.007,0.059,0.999,-0.183,1967457
-0.007,0.059,0.999,-0.183,1967461
-0.007,0.059,0.999,-0.061,1967465
-0.008,0.061,0.998,-0.061,1967469
-0.008,0.061,0.998,-0.061,1967473
-0.007,0.063,0.993,-0.122,1967477
-0.007,0.063,0.993,-0.122,1967481
-0.007,0.063,0.993,-0.183,1967485
-0.007,0.066,0.992,-0.122,1967489
-0.007,0.066,0.992,-0.183,1967493
-0.009,0.066,0.996,-0.305,1967497
-0.009,0.066,0.996,-0.305,1967501
-0.009,0.066,0.996,-0.183,1967505
-0.008,0.065,0.997,-0.122,1967509
-0.008,0.065,0.997,0.0,1967513
-0.009,0.064,0.995,-0.305,1967517
-0.009,0.064,0.995,-0.305,1967521
-0.009,0.064,0.995,-0.305,1967525
-0.01,0.062,0.995,-0.122,1967529
-0.01,0.062,0.995,-0.305,1967533
-0.008,0.061,0.996,-0.244,1967537
-0.008,0.061,0.996,-0.244,1967541
-0.008,0.061,0.996,-0.305,1967545
-0.005,0.058,0.999,-0.305,1967549
-0.005,0.058,0.999,-0.183,1967553
-0.004,0.055,1.0,-0.244,1967557
-0.004,0.055,1.0,-0.244,1967561
-0.004,0.055,1.0,-0.244,1967565
-0.005,0.051,0.999,-0.183,1967568
-0.005,0.051,0.999,-0.122,1967572
-0.003,0.049,1.0,-0.244,1967576
-0.003,0.049,1.0,-0.244,1967580
-0.003,0.049,1.0,-0.183,1967584
0.0,0.047,1.001,-0.183,1967588
0.0,0.047,1.001,-0.244,1967592
0.001,0.047,1.001,-0.366,1967596
0.001,0.047,1.001,-0.366,1967600
0.001,0.047,1.001,-0.122,1967604
0.001,0.046,1.003,-0.061,1967608
0.001,0.046,1.003,-0.366,1967612
0.001,0.045,1.004,-0.183,1967616
0.001,0.045,1.004,-0.183,1967620
0.001,0.045,1.004,-0.183,1967624
0.003,0.045,1.003,-0.122,1967628
0.003,0.045,1.003,-0.305,1967632
-0.001,0.046,1.001,-0.183,1967636
-0.001,0.046,1.001,-0.183,1967640
-0.001,0.046,1.001,-0.122,1967644
-0.002,0.048,1.001,-0.122,1967648
-0.002,0.048,1.001,-0.122,1967652
-0.002,0.051,1.003,-0.183,1967656
-0.002,0.051,1.003,-0.183,1967660
-0.002,0.051,1.003,-0.244,1967664
-0.002,0.053,1.0,-0.183,1967668
-0.002,0.053,1.0,-0.122,1967672
-0.004,0.054,0.997,-0.122,1967676
-0.004,0.054,0.997,-0.122,1967680
-0.004,0.054,0.997,-0.305,1967683
-0.004,0.059,0.996,-0.183,1967687
-0.004,0.059,0.996,-0.183,1967691
-0.005,0.059,0.997,-0.122,1967695
-0.005,0.059,0.997,-0.122,1967699
-0.005,0.059,0.997,-0.183,1967703
-0.007,0.061,0.996,-0.244,1967707
-0.007,0.061,0.996,-0.244,1967711
-0.008,0.061,0.996,-0.183,1967715
-0.008,0.061,0.996,-0.183,1967719
-0.008,0.061,0.996,-0.122,1967723
-0.009,0.063,0.996,-0.183,1967727
-0.009,0.063,0.996,-0.122,1967731
-0.01,0.064,0.994,-0.183,1967735
-0.01,0.064,0.994,-0.183,1967739
-0.01,0.064,0.994,-0.122,1967743
-0.01,0.062,0.995,-0.061,1967747
-0.01,0.062,0.995,-0.061,1967751
-0.012,0.062,0.992,-0.122,1967755
-0.012,0.062,0.992,-0.122,1967759
-0.012,0.062,0.992,0.0,1967763
-0.011,0.062,0.997,-0.122,1967767
-0.011,0.062,0.997,-0.244,1967771
-0.012,0.061,1.002,-0.244,1967775
-0.012,0.061,1.002,-0.244,1967779
-0.012,0.061,1.002,-0.305,1967783
-0.011,0.058,0.999,-0.305,1967787
-0.011,0.058,0.999,-0.244,1967791
-0.01,0.054,1.003,-0.427,1967795
-0.01,0.054,1.003,-0.427,1967799
-0.01,0.054,1.003,-0.366,1967803
-0.006,0.048,1.007,-0.366,1967807
-0.006,0.048,1.007,-0.366,1967811
-0.002,0.043,0.993,-0.244,1967815
-0.002,0.043,0.993,-0.244,1967818
-0.002,0.043,0.993,-0.305,1967822
-0.001,0.041,0.99,-0.427,1967826
-0.001,0.041,0.99,-0.366,1967830
-0.0,0.039,1.009,-0.366,1967834
-0.0,0.039,1.009,-0.366,1967838
-0.0,0.039,1.009,-0.183,1967842
0.002,0.04,1.009,-0.183,1967846
0.002,0.04,1.009,-0.244,1967850
0.004,0.041,1.003,-0.244,1967854
0.004,0.041,1.003,-0.244,1967858
0.004,0.041,1.003,-0.183,1967862
0.005,0.042,1.002,-0.122,1967866
0.005,0.042,1.002,-0.244,1967870
0.006,0.045,1.004,-0.122,1967874
0.006,0.045,1.004,-0.122,1967878
0.006,0.045,1.004,-0.183,1967882
0.005,0.049,1.006,0.061,1967886
0.005,0.049,1.006,-0.122,1967890
0.006,0.053,1.005,-0.122,1967894
0.006,0.053,1.005,-0.122,1967898
0.006,0.053,1.005,-0.061,1967902
0.006,0.056,1.0,-0.183,1967906
0.006,0.056,1.0,-0.183,1967910
0.003,0.058,0.998,-0.183,1967914
0.003,0.058,0.998,-0.183,1967918
0.003,0.058,0.998,-0.122,1967922
0.001,0.059,0.998,-0.183,1967926
0.001,0.059,0.998,-0.122,1967930
-0.002,0.06,1.0,-0.122,1967934
-0.002,0.06,1.0,-0.122,1967938
-0.002,0.06,1.0,-0.122,1967942
-0.003,0.059,0.997,-0.183,1967946
-0.003,0.059,0.997,-0.061,1967949
-0.007,0.06,0.998,-0.122,1967953
-0.007,0.06,0.998,-0.122,1967957
-0.007,0.06,0.998,-0.183,1967961
-0.009,0.058,0.998,-0.183,1967965
-0.009,0.058,0.998,-0.244,1967969
-0.012,0.059,0.996,-0.122,1967973
-0.012,0.059,0.996,-0.122,1967977
-0.012,0.059,0.996,-0.244,1967981
-0.014,0.058,0.994,-0.183,1967985
-0.014,0.058,0.994,-0.244,1967989
-0.015,0.058,0.995,-0.183,1967993
-0.015,0.058,0.995,-0.183,1967997
-0.015,0.058,0.995,-0.122,1968001
-0.015,0.057,0.994,-0.244,1968005
-0.015,0.057,0.994,-0.244,1968009
-0.014,0.054,0.996,-0.366,1968013
-0.014,0.054,0.996,-0.366,1968017
-0.014,0.054,0.996,-0.305,1968021
-0.013,0.053,0.996,-0.244,1968025
-0.013,0.053,0.996,-0.244,1968029
-0.012,0.052,0.997,-0.244,1968033
-0.012,0.052,0.997,-0.244,1968037
-0.012,0.052,0.997,-0.366,1968041
-0.01,0.05,0.998,-0.244,1968045
-0.01,0.05,0.998,0.0,1968049
-0.005,0.05,1.0,-0.183,1968053
-0.005,0.05,1.0,-0.183,1968057
-0.005,0.05,1.0,-0.183,1968061
-0.005,0.051,0.998,-0.122,1968065
-0.005,0.051,0.998,-0.244,1968069
-0.003,0.051,1.0,0.0,1968073
-0.003,0.051,1.0,0.0,1968076
-0.003,0.051,1.0,0.0,1968080
0.0,0.052,1.001,-0.183,1968084
0.0,0.052,1.001,-0.244,1968088
0.002,0.053,0.999,-0.122,1968092
0.002,0.053,0.999,-0.122,1968096
0.002,0.053,0.999,-0.183,1968100
0.004,0.053,1.006,-0.183,1968104
0.004,0.053,1.006,-0.061,1968108
0.003,0.053,0.999,-0.183,1968112
0.003,0.053,0.999,-0.183,1968116
0.003,0.053,0.999,-0.061,1968120
0.004,0.052,1.004,-0.183,1968124
0.004,0.052,1.004,-0.305,1968128
0.004,0.052,1.003,-0.244,1968132
0.004,0.052,1.003,-0.244,1968136
0.004,0.052,1.003,-0.183,1968140
0.004,0.052,1.005,-0.122,1968144
0.004,0.052,1.005,-0.366,1968148
0.001,0.051,1.001,-0.061,1968152
0.001,0.051,1.001,-0.061,1968156
0.001,0.051,1.001,-0.122,1968160
0.002,0.051,1.003,-0.122,1968164
0.002,0.051,1.003,-0.183,1968168
0.002,0.051,1.003,-0.183,1968172
0.002,0.051,1.003,-0.183,1968176
0.002,0.051,1.003,-0.122,1968180
-0.002,0.052,1.003,-0.183,1968184
-0.002,0.052,1.003,-0.122,1968188
-0.004,0.051,1.001,-0.183,1968191
-0.004,0.051,1.001,-0.183,1968195
-0.004,0.051,1.001,-0.183,1968199
-0.005,0.051,0.998,-0.244,1968203
-0.005,0.051,0.998,-0.122,1968207
-0.008,0.052,1.0,-0.183,1968211
-0.008,0.052,1.0,-0.183,1968215
-0.008,0.052,1.0,-0.244,1968219
-0.008,0.053,0.998,-0.122,1968223
-0.008,0.053,0.998,-0.305,1968227
-0.01,0.053,0.996,-0.305,1968231
-0.01,0.053,0.996,-0.305,1968235
-0.01,0.053,0.996,-0.244,1968239
-0.012,0.054,0.994,-0.305,1968243
-0.012,0.054,0.994,-0.183,1968247
-0.014,0.054,0.996,-0.061,1968251
-0.014,0.054,0.996,-0.061,1968255
-0.014,0.054,0.996,-0.122,1968259
-0.014,0.056,0.995,-0.244,1968263
-0.014,0.056,0.995,-0.244,1968267
-0.011,0.056,0.995,-0.122,1968271
-0.011,0.056,0.995,-0.122,1968275
-0.011,0.056,0.995,0.0,1968279
-0.01,0.056,0.997,-0.122,1968283
-0.01,0.056,0.997,-0.183,1968287
-0.008,0.056,0.998,-0.366,1968291
-0.008,0.056,0.998,-0.366,1968295
-0.008,0.056,0.998,-0.122,1968299
-0.007,0.059,0.996,-0.061,1968303
-0.007,0.059,0.996,-0.183,1968307
-0.004,0.06,0.997,-0.244,1968311
-0.004,0.06,0.997,-0.244,1968315
-0.004,0.06,0.997,-0.366,1968319
-0.005,0.06,0.998,-0.183,1968323
-0.005,0.06,0.998,-0.183,1968327
-0.002,0.058,0.997,-0.244,1968330
-0.002,0.058,0.997,-0.244,1968334
-0.002,0.058,0.997,-0.183,1968338
-0.003,0.058,0.998,-0.061,1968342
-0.003,0.058,0.998,-0.183,1968346
-0.002,0.055,1.0,-0.244,1968350
-0.002,0.055,1.0,-0.244,1968354
-0.002,0.055,1.0,-0.244,1968358
0.0,0.055,1.001,-0.244,1968362
0.0,0.055,1.001,-0.244,1968366
0.0,0.052,1.002,-0.183,1968370
0.0,0.052,1.002,-0.183,1968374
0.0,0.052,1.002,-0.183,1968378
-0.0,0.051,1.002,-0.244,1968382
-0.0,0.051,1.002,-0.366,1968386
-0.001,0.05,1.003,-0.061,1968390
-0.001,0.05,1.003,-0.061,1968394
-0.001,0.05,1.003,-0.122,1968398
-0.001,0.049,0.997,-0.244,1968402
-0.001,0.049,0.997,-0.244,1968406
-0.002,0.047,1.003,-0.122,1968410
-0.002,0.047,1.003,-0.122,1968414
-0.002,0.047,1.003,-0.183,1968418
-0.003,0.047,1.01,-0.183,1968422
-0.003,0.047,1.01,-0.305,1968426
-0.001,0.047,0.999,-0.183,1968430
-0.001,0.047,0.999,-0.183,1968434
-0.001,0.047,0.999,-0.122,1968438
0.0,0.047,1.0,-0.122,1968441
0.0,0.047,1.0,-0.061,1968445
-0.001,0.048,0.998,-0.183,1968449
-0.001,0.048,0.998,-0.183,1968453
-0.001,0.048,0.998,-0.244,1968457
-0.002,0.05,1.003,-0.122,1968461
-0.002,0.05,1.003,-0.183,1968465
-0.001,0.052,0.999,-0.183,1968469
-0.001,0.052,0.999,-0.183,1968473
-0.001,0.052,0.999,0.0,1968477
-0.005,0.053,1.002,-0.183,1968481
-0.005,0.053,1.002,-0.305,1968485
-0.005,0.053,1.002,-0.305,1968489
-0.004,0.056,0.995,-0.183,1968493
-0.004,0.056,0.995,-0.061,1968497
-0.006,0.058,0.996,-0.183,1968501
-0.006,0.058,0.996,-0.183,1968505
-0.006,0.058,0.996,-0.183,1968509
-0.007,0.059,0.999,-0.061,1968513
-0.007,0.059,0.999,-0.122,1968517
-0.008,0.06,0.995,-0.061,1968521
-0.008,0.06,0.995,-0.183,1968525
-0.008,0.06,0.995,-0.183,1968529
-0.008,0.06,0.998,-0.183,1968533
-0.008,0.06,0.998,-0.183,1968537
-0.009,0.059,0.994,-0.122,1968541
-0.009,0.059,0.994,-0.183,1968544
-0.009,0.059,0.994,-0.183,1968548
-0.009,0.058,0.998,-0.183,1968552
-0.009,0.058,0.998,0.0,1968556
-0.009,0.059,0.995,-0.122,1968560
-0.009,0.059,0.995,-0.244,1968564
-0.009,0.059,0.995,-0.244,1968568
-0.008,0.056,0.999,-0.122,1968572
-0.008,0.056,0.999,-0.244,1968576
-0.008,0.055,0.998,-0.061,1968580
-0.008,0.055,0.998,0.0,1968584
-0.008,0.055,0.998,0.0,1968588
-0.006,0.053,0.995,-0.183,1968592
-0.006,0.053,0.995,-0.244,1968596
-0.006,0.053,0.997,-0.244,1968600
-0.006,0.053,0.997,-0.122,1968604
-0.006,0.053,0.997,-0.122,1968608
-0.006,0.053,1.0,-0.183,1968612
-0.006,0.053,1.0,-0.244,1968616
-0.006,0.052,1.0,-0.244,1968620
-0.006,0.052,1.0,-0.244,1968624
-0.006,0.052,1.0,-0.244,1968628
-0.003,0.052,0.998,-0.244,1968632
-0.003,0.052,0.998,-0.122,1968636
-0.002,0.051,0.998,-0.061,1968640
-0.002,0.051,0.998,-0.183,1968644
-0.002,0.051,0.998,-0.183,1968648
-0.001,0.05,1.002,-0.305,1968652
-0.001,0.05,1.002,-0.305,1968655
0.001,0.048,1.003,-0.183,1968659
0.001,0.048,1.003,-0.122,1968663
0.001,0.048,1.003,-0.122,1968667
0.001,0.05,1.002,-0.122,1968671
0.001,0.05,1.002,-0.244,1968675
0.001,0.05,1.002,-0.122,1968679
0.001,0.05,1.002,-0.183,1968683
0.001,0.05,1.002,-0.183,1968687
0.002,0.05,0.999,-0.244,1968691
0.002,0.05,0.999,-0.244,1968695
0.003,0.051,1.002,-0.122,1968699
0.003,0.051,1.002,-0.183,1968703
0.003,0.051,1.002,-0.183,1968707
0.001,0.052,1.005,-0.183,1968711
0.001,0.052,1.005,-0.244,1968715
0.0,0.053,0.998,-0.244,1968719
0.0,0.053,0.998,-0.183,1968723
0.0,0.053,0.998,-0.183,1968727
0.001,0.054,1.001,-0.183,1968731
0.001,0.054,1.001,-0.183,1968735
-0.001,0.056,0.998,-0.183,1968739
-0.001,0.056,0.998,-0.061,1968743
-0.001,0.056,0.998,-0.061,1968747
-0.004,0.054,0.999,-0.183,1968751
-0.004,0.054,0.999,-0.183,1968755
-0.005,0.054,0.997,-0.183,1968759
-0.005,0.054,0.997,-0.244,1968763
-0.005,0.054,0.997,-0.244,1968767
-0.006,0.055,0.999,-0.122,1968771
-0.006,0.055,0.999,-0.122,1968775
-0.007,0.053,0.998,-0.122,1968779
-0.007,0.053,0.998,-0.122,1968783
-0.007,0.053,0.998,-0.122,1968787
-0.006,0.055,0.998,-0.183,1968791
-0.006,0.055,0.998,-0.122,1968795
-0.008,0.053,0.998,-0.061,1968798
-0.008,0.053,0.998,-0.305,1968802
-0.008,0.053,0.998,-0.305,1968806
-0.01,0.055,0.994,-0.244,1968810
-0.01,0.055,0.994,-0.183,1968814
-0.009,0.056,0.998,-0.244,1968818
-0.009,0.056,0.998,-0.305,1968822
-0.009,0.054,0.997,-0.122,1968826
-0.009,0.054,0.997,-0.122,1968830
-0.009,0.054,0.997,-0.183,1968834
-0.007,0.055,0.998,-0.244,1968838
-0.007,0.055,0.998,-0.305,1968842
-0.007,0.055,0.998,-0.305,1968846
-0.007,0.058,0.997,-0.183,1968850
-0.007,0.058,0.997,-0.122,1968854
-0.006,0.056,0.997,-0.244,1968858
-0.006,0.056,0.997,-0.244,1968862
-0.006,0.056,0.998,-0.183,1968866
-0.006,0.056,0.998,-0.183,1968870
-0.006,0.056,0.998,-0.244,1968874
-0.004,0.054,1.0,-0.244,1968878
-0.004,0.054,1.0,-0.122,1968882
-0.004,0.054,0.999,-0.122,1968886
-0.004,0.054,0.999,-0.122,1968890
-0.004,0.054,0.999,0.0,1968894
-0.001,0.055,1.0,-0.122,1968898
-0.001,0.055,1.0,-0.122,1968902
-0.003,0.053,1.003,-0.122,1968906
-0.003,0.053,1.003,-0.122,1968910
-0.003,0.053,1.003,-0.244,1968914
-0.001,0.052,1.0,-0.244,1968918
-0.001,0.052,1.0,-0.244,1968922
0.0,0.052,1.003,-0.183,1968926
0.0,0.052,1.003,-0.183,1968929
0.0,0.052,1.003,-0.183,1968933
-0.001,0.053,1.002,-0.244,1968937
-0.001,0.053,1.002,-0.244,1968941
-0.0,0.05,1.001,-0.305,1968945
-0.0,0.05,1.001,-0.305,1968949
-0.0,0.05,1.001,-0.305,1968953
0.001,0.051,1.001,-0.183,1968957
0.001,0.051,1.001,-0.183,1968961
0.001,0.051,1.001,-0.183,1968965
-0.003,0.052,1.002,-0.305,1968969
-0.003,0.052,1.002,-0.244,1968973
-0.002,0.052,1.002,-0.183,1968977
-0.002,0.052,1.002,-0.122,1968981
-0.002,0.052,1.002,-0.122,1968985
-0.003,0.051,1.0,0.0,1968989
-0.003,0.051,1.0,-0.122,1968993
-0.004,0.051,1.0,-0.122,1968997
-0.004,0.051,1.0,-0.244,1969001
-0.004,0.051,1.0,-0.244,1969005
-0.005,0.052,0.998,-0.366,1969009
-0.005,0.052,0.998,-0.183,1969013
-0.005,0.053,0.999,-0.183,1969017
-0.005,0.053,0.999,-0.183,1969021
-0.005,0.053,0.999,-0.183,1969025
-0.006,0.053,0.999,-0.122,1969029
-0.006,0.053,0.999,-0.122,1969033
-0.005,0.053,0.999,-0.122,1969037
-0.005,0.053,0.999,-0.061,1969040
-0.005,0.053,0.999,-0.061,1969044
-0.007,0.055,0.998,-0.122,1969048
-0.007,0.055,0.998,-0.244,1969052
-0.009,0.055,0.998,-0.183,1969056
-0.009,0.055,0.998,-0.183,1969060
-0.009,0.055,0.998,-0.183,1969064
-0.007,0.057,0.999,-0.366,1969068
-0.007,0.057,0.999,-0.305,1969072
-0.005,0.058,0.998,-0.244,1969076
-0.005,0.058,0.998,-0.183,1969080
-0.005,0.058,0.998,-0.183,1969084
-0.008,0.057,0.999,-0.183,1969088
-0.008,0.057,0.999,-0.427,1969092
-0.008,0.057,0.999,-0.427,1969096
-0.008,0.057,0.999,-0.183,1969100
-0.008,0.057,0.999,-0.183,1969104
-0.005,0.056,0.997,-0.183,1969108
-0.005,0.056,0.997,-0.122,1969112
-0.005,0.057,0.998,-0.183,1969116
-0.005,0.057,0.998,-0.305,1969120
-0.005,0.057,0.998,-0.305,1969124
-0.004,0.053,1.0,-0.244,1969128
-0.004,0.053,1.0,-0.061,1969132
-0.004,0.052,0.997,-0.244,1969136
-0.004,0.052,0.997,-0.244,1969140
-0.004,0.052,0.997,-0.244,1969144
-0.004,0.052,0.999,-0.183,1969148
-0.004,0.052,0.999,-0.183,1969152
-0.002,0.053,1.002,-0.183,1969156
-0.002,0.053,1.002,-0.183,1969160
-0.002,0.053,1.002,-0.183,1969164
-0.001,0.052,1.0,-0.183,1969168
-0.001,0.052,1.0,-0.122,1969172
-0.003,0.052,1.001,-0.305,1969175
-0.003,0.052,1.001,-0.305,1969179
-0.003,0.052,1.001,-0.305,1969183
-0.001,0.052,1.002,-0.122,1969187
-0.001,0.052,1.002,-0.122,1969191
-0.002,0.05,1.0,-0.244,1969195
-0.002,0.05,1.0,-0.183,1969199
-0.002,0.05,1.0,-0.183,1969203
-0.001,0.05,1.0,-0.183,1969207
-0.001,0.05,1.0,-0.122,1969211
-0.002,0.051,1.001,-0.061,1969215
-0.002,0.051,1.001,-0.122,1969219
-0.002,0.051,1.001,-0.122,1969223
-0.001,0.052,1.002,-0.183,1969227
-0.001,0.052,1.002,-0.244,1969231
-0.002,0.052,1.001,-0.122,1969235
-0.002,0.052,1.001,-0.183,1969239
-0.002,0.052,1.001,-0.183,1969243
-0.001,0.051,0.999,-0.061,1969247
-0.001,0.051,0.999,-0.305,1969251
-0.001,0.051,1.0,-0.305,1969255
-0.001,0.051,1.0,-0.183,1969259
-0.001,0.051,1.0,-0.183,1969263
-0.004,0.052,0.999,-0.244,1969267
-0.004,0.052,0.999,-0.183,1969271
-0.004,0.052,0.998,-0.183,1969275
-0.004,0.052,0.998,-0.305,1969279
-0.004,0.052,0.998,-0.305,1969283
-0.005,0.054,0.999,-0.122,1969287
-0.005,0.054,0.999,-0.122,1969291
-0.006,0.055,1.0,-0.183,1969295
-0.006,0.055,1.0,-0.244,1969299
-0.004,0.054,0.998,-0.244,1969303
-0.004,0.054,0.998,-0.244,1969306
-0.004,0.054,0.998,-0.244,1969310
-0.006,0.055,0.998,-0.183,1969314
-0.006,0.055,0.998,-0.244,1969318
-0.006,0.055,0.998,-0.244,1969322
-0.006,0.055,0.998,-0.244,1969326
-0.006,0.055,0.998,-0.183,1969330
-0.007,0.056,0.999,-0.183,1969334
-0.007,0.056,0.999,-0.122,1969338
-0.006,0.055,0.999,-0.305,1969342
-0.006,0.055,0.999,-0.305,1969346
-0.006,0.055,0.999,-0.183,1969350
-0.005,0.054,0.998,-0.061,1969354
-0.005,0.054,0.998,-0.183,1969358
-0.006,0.054,0.999,-0.183,1969362
-0.006,0.054,0.999,-0.183,1969366
-0.006,0.054,0.999,-0.122,1969370
-0.007,0.053,0.998,-0.061,1969374
-0.007,0.053,0.998,-0.244,1969378
-0.008,0.052,0.999,-0.244,1969382
-0.008,0.052,0.999,-0.244,1969386
-0.008,0.052,0.999,-0.122,1969390
-0.004,0.053,1.0,-0.305,1969394
-0.004,0.053,1.0,-0.244,1969398
-0.003,0.053,0.998,-0.244,1969402
-0.003,0.053,0.998,-0.244,1969406
-0.003,0.053,0.998,-0.122,1969410
-0.004,0.053,0.999,-0.305,1969414
-0.004,0.053,0.999,-0.244,1969418
-0.004,0.052,0.999,-0.183,1969422
-0.004,0.052,0.999,-0.183,1969426
-0.004,0.052,0.999,-0.305,1969430
-0.003,0.051,1.002,-0.183,1969434
-0.003,0.051,1.002,-0.244,1969438
-0.003,0.052,1.0,-0.305,1969442
-0.003,0.052,1.0,-0.305,1969446
-0.003,0.052,1.0,-0.244,1969450
-0.002,0.053,1.0,-0.305,1969453
-0.002,0.053,1.0,-0.183,1969457
-0.002,0.052,1.0,-0.183,1969461
-0.002,0.052,1.0,-0.183,1969465
-0.002,0.052,1.0,-0.183,1969469
-0.002,0.052,1.001,-0.305,1969473
-0.002,0.052,1.001,-0.305,1969477
-0.004,0.051,1.0,-0.244,1969481
-0.004,0.051,1.0,-0.244,1969485
-0.004,0.051,1.0,-0.122,1969489
-0.003,0.051,0.999,-0.183,1969493
-0.003,0.051,0.999,-0.244,1969497
-0.003,0.052,1.0,-0.244,1969501
-0.003,0.052,1.0,-0.244,1969505
-0.003,0.052,1.0,-0.183,1969509
-0.001,0.052,1.0,-0.244,1969513
-0.001,0.052,1.0,-0.244,1969517
-0.002,0.053,1.0,-0.183,1969521
-0.002,0.053,1.0,-0.183,1969525
-0.002,0.053,1.0,-0.061,1969529
-0.005,0.053,1.0,-0.305,1969533
-0.005,0.053,1.0,-0.366,1969537
-0.006,0.053,1.0,-0.244,1969541
-0.006,0.053,1.0,-0.244,1969545
-0.006,0.053,1.0,-0.305,1969549
-0.006,0.054,1.0,-0.244,1969553
-0.006,0.054,1.0,-0.183,1969557
-0.005,0.054,0.998,-0.244,1969561
-0.005,0.054,0.998,-0.244,1969565
-0.005,0.054,0.998,-0.183,1969569
-0.004,0.053,0.999,-0.122,1969573
-0.004,0.053,0.999,-0.183,1969576
-0.007,0.053,1.0,-0.183,1969580
-0.007,0.053,1.0,-0.183,1969584
-0.007,0.053,1.0,-0.305,1969588
-0.005,0.053,0.999,-0.244,1969592
-0.005,0.053,0.999,-0.122,1969596
-0.006,0.053,1.001,-0.305,1969600
-0.006,0.053,1.001,-0.305,1969604
-0.006,0.053,1.001,-0.122,1969608
-0.005,0.053,1.0,-0.122,1969612
-0.005,0.053,1.0,-0.183,1969616
-0.004,0.055,0.997,-0.305,1969620
-0.004,0.055,0.997,-0.305,1969624
-0.004,0.055,0.997,-0.305,1969628
-0.007,0.054,0.999,-0.122,1969632
-0.007,0.054,0.999,-0.061,1969636
-0.005,0.052,0.998,-0.183,1969640
-0.005,0.052,0.998,-0.183,1969644
-0.005,0.052,0.998,-0.244,1969648
-0.005,0.054,0.999,-0.244,1969652
-0.005,0.054,0.999,-0.244,1969656
-0.004,0.052,0.997,-0.122,1969660
-0.004,0.052,0.997,-0.122,1969664
-0.004,0.052,0.997,-0.183,1969668
-0.005,0.053,0.999,-0.183,1969672
-0.005,0.053,0.999,-0.305,1969676
-0.004,0.054,1.0,-0.305,1969680
-0.004,0.054,1.0,-0.305,1969684
-0.004,0.054,1.0,-0.244,1969688
-0.004,0.053,0.997,-0.244,1969692
-0.004,0.053,0.997,-0.244,1969696
-0.005,0.053,0.998,-0.244,1969700
-0.005,0.053,0.998,-0.244,1969704
-0.005,0.053,0.998,-0.183,1969707
-0.005,0.054,0.999,-0.244,1969711
-0.005,0.054,0.999,-0.244,1969715
-0.004,0.052,1.0,-0.061,1969719
-0.004,0.052,1.0,-0.061,1969723
-0.004,0.052,1.0,-0.244,1969727
-0.004,0.052,1.0,-0.305,1969731
-0.004,0.052,1.0,-0.122,1969735
-0.004,0.053,1.0,-0.183,1969739
-0.004,0.053,1.0,-0.183,1969743
-0.004,0.053,1.0,-0.183,1969747
-0.004,0.053,1.0,-0.183,1969751
-0.004,0.053,1.0,-0.183,1969755
-0.005,0.051,1.0,-0.061,1969759
-0.005,0.051,1.0,-0.061,1969763
-0.005,0.051,1.0,-0.122,1969767
-0.004,0.052,0.999,0.0,1969771
-0.004,0.052,0.999,-0.122,1969775
-0.004,0.054,1.0,-0.122,1969779
-0.004,0.054,1.0,-0.122,1969783
-0.004,0.054,1.0,-0.183,1969787
-0.004,0.053,1.0,-0.122,1969791
-0.004,0.053,1.0,-0.305,1969795
-0.003,0.052,1.0,-0.183,1969799
-0.003,0.052,1.0,-0.183,1969803
-0.003,0.052,1.0,-0.244,1969807
-0.002,0.052,1.0,-0.305,1969811
-0.002,0.052,1.0,-0.305,1969815
-0.005,0.052,0.999,-0.183,1969819
-0.005,0.052,0.999,-0.183,1969823
-0.005,0.052,0.999,-0.122,1969826
-0.005,0.052,1.0,-0.122,1969830
-0.005,0.052,1.0,-0.122,1969834
-0.004,0.053,1.001,-0.183,1969838
-0.004,0.053,1.001,-0.183,1969842
-0.004,0.053,1.001,-0.183,1969846
-0.002,0.053,1.0,-0.183,1969850
-0.002,0.053,1.0,-0.183,1969854
-0.004,0.053,1.0,0.0,1969858
-0.004,0.053,1.0,0.0,1969862
-0.004,0.053,1.0,-0.061,1969866
-0.003,0.054,0.999,-0.183,1969870
-0.003,0.054,0.999,-0.183,1969874
-0.002,0.053,0.999,-0.305,1969878
-0.002,0.053,0.999,-0.305,1969882
-0.002,0.053,0.999,-0.305,1969886
-0.003,0.053,0.999,-0.122,1969890
-0.003,0.053,0.999,-0.122,1969894
-0.003,0.054,1.0,-0.183,1969898
-0.003,0.054,1.0,-0.183,1969902
-0.003,0.054,1.0,-0.244,1969906
-0.004,0.053,0.999,-0.183,1969910
-0.004,0.053,0.999,-0.122,1969914
-0.002,0.054,0.998,-0.122,1969918
-0.002,0.054,0.998,-0.122,1969922
-0.002,0.054,0.998,-0.183,1969926
-0.002,0.053,1.0,-0.061,1969930
-0.002,0.053,1.0,-0.244,1969934
-0.005,0.053,1.0,-0.122,1969938
-0.005,0.053,1.0,-0.122,1969941
-0.005,0.053,1.0,0.061,1969945
-0.003,0.052,0.998,-0.427,1969949
-0.003,0.052,0.998,-0.488,1969953
-0.004,0.053,0.999,-0.183,1969957
-0.004,0.053,0.999,-0.183,1969961
-0.004,0.053,0.999,-0.183,1969965
-0.006,0.053,1.002,-0.061,1969969
-0.006,0.053,1.002,-0.122,1969973
-0.005,0.053,1.0,-0.122,1969977
-0.005,0.053,1.0,-0.122,1969981
-0.005,0.053,1.0,-0.244,1969985
-0.005,0.054,0.997,-0.183,1969989
-0.005,0.054,0.997,-0.122,1969993
-0.007,0.054,1.001,-0.122,1969997
-0.007,0.054,1.001,-0.122,1970001
-0.007,0.054,1.001,-0.183,1970005
-0.005,0.053,1.001,-0.305,1970009
-0.005,0.053,1.001,-0.183,1970013
-0.005,0.053,0.999,-0.122,1970017
-0.005,0.053,0.999,-0.122,1970021
-0.005,0.053,0.999,-0.122,1970025
-0.005,0.053,0.999,-0.061,1970029
-0.005,0.053,0.999,-0.244,1970033
-0.004,0.053,1.001,-0.183,1970037
-0.004,0.053,1.001,-0.183,1970041
-0.004,0.053,1.001,-0.122,1970045
-0.004,0.054,0.998,-0.183,1970049
-0.004,0.054,0.998,0.0,1970053
-0.004,0.054,0.998,0.0,1970056
-0.005,0.052,1.0,-0.122,1970060
-0.005,0.052,1.0,-0.244,1970064
-0.003,0.054,1.0,-0.183,1970068
-0.003,0.054,1.0,-0.183,1970072
-0.003,0.054,1.0,-0.183,1970076
-0.004,0.054,0.998,-0.244,1970080
-0.004,0.054,0.998,-0.305,1970084
-0.003,0.054,1.0,-0.183,1970088
-0.003,0.054,1.0,-0.122,1970092
-0.003,0.054,1.0,-0.122,1970096
-0.003,0.053,0.998,-0.305,1970100
-0.003,0.053,0.998,-0.427,1970104
-0.003,0.052,0.998,-0.244,1970108
-0.003,0.052,0.998,-0.183,1970112
-0.003,0.052,0.998,-0.183,1970116
-0.004,0.052,1.001,-0.305,1970120
-0.004,0.052,1.001,-0.305,1970124
-0.004,0.052,1.0,-0.183,1970128
-0.004,0.052,1.0,-0.183,1970132
-0.004,0.052,1.0,-0.183,1970136
-0.003,0.053,0.998,-0.061,1970140
-0.003,0.053,0.998,-0.183,1970144
-0.003,0.052,0.999,-0.244,1970148
-0.003,0.052,0.999,-0.061,1970152
-0.003,0.052,0.999,-0.061,1970156
-0.003,0.052,0.999,-0.244,1970160
-0.003,0.052,0.999,-0.183,1970164
-0.003,0.053,0.999,-0.122,1970168
-0.003,0.053,0.999,-0.061,1970172
-0.003,0.053,0.999,-0.061,1970176
-0.002,0.052,0.997,-0.122,1970180
-0.002,0.052,0.997,-0.061,1970184
-0.003,0.052,0.999,-0.122,1970188
-0.003,0.052,0.999,-0.183,1970191
-0.005,0.052,1.0,-0.183,1970195
-0.005,0.052,1.0,-0.183,1970199
-0.005,0.052,1.0,-0.061,1970203
-0.007,0.053,1.0,-0.122,1970207
-0.007,0.053,1.0,-0.183,1970211
-0.007,0.053,1.0,-0.183,1970215
-0.005,0.053,0.999,-0.244,1970219
-0.005,0.053,0.999,-0.122,1970223
-0.003,0.052,0.998,-0.183,1970227
-0.003,0.052,0.998,-0.183,1970231
-0.003,0.052,0.998,-0.183,1970235
-0.006,0.054,0.999,-0.122,1970239
-0.006,0.054,0.999,-0.244,1970243
-0.006,0.054,0.999,-0.122,1970247
-0.006,0.054,0.999,-0.183,1970251
-0.005,0.054,0.999,-0.183,1970255
-0.005,0.054,0.999,-0.183,1970259
-0.005,0.054,0.999,-0.061,1970263
-0.005,0.053,0.998,-0.183,1970267
-0.005,0.053,0.998,-0.061,1970271
-0.006,0.053,0.999,-0.122,1970275
-0.006,0.053,0.999,-0.122,1970279
-0.006,0.053,0.999,-0.244,1970283
-0.004,0.053,1.001,-0.183,1970287
-0.004,0.053,1.001,-0.061,1970291
-0.004,0.053,0.999,-0.122,1970295
-0.004,0.053,0.999,-0.122,1970299
-0.004,0.053,0.999,-0.122,1970303
-0.003,0.054,0.998,-0.244,1970307
-0.003,0.054,0.998,-0.244,1970311
-0.003,0.054,0.999,-0.183,1970315
-0.003,0.054,0.999,-0.183,1970319
-0.003,0.054,0.999,-0.244,1970322
-0.005,0.052,0.998,-0.244,1970326
-0.005,0.052,0.998,-0.183,1970330
-0.004,0.052,1.0,-0.244,1970334
-0.004,0.052,1.0,-0.244,1970338
-0.004,0.052,1.0,-0.244,1970342
-0.003,0.053,1.0,-0.122,1970346
-0.003,0.053,1.0,-0.122,1970350
-0.004,0.052,0.999,-0.122,1970354
-0.004,0.052,0.999,-0.122,1970358
-0.004,0.052,0.999,-0.122,1970362
-0.004,0.051,1.0,-0.305,1970366
-0.004,0.051,1.0,-0.244,1970370
-0.004,0.052,1.0,-0.305,1970374
-0.004,0.052,1.0,-0.305,1970378
-0.004,0.052,1.0,-0.183,1970382
-0.002,0.052,0.999,-0.244,1970386
-0.002,0.052,0.999,-0.183,1970390
-0.002,0.052,1.0,-0.061,1970394
-0.002,0.052,1.0,-0.061,1970398
-0.002,0.052,1.0,-0.183,1970402
-0.002,0.053,1.0,-0.122,1970406
-0.002,0.053,1.0,-0.183,1970410
-0.004,0.053,1.0,-0.244,1970414
-0.004,0.053,1.0,-0.244,1970418
-0.004,0.053,1.0,-0.183,1970422
-0.004,0.053,0.999,-0.183,1970426
-0.004,0.053,0.999,-0.305,1970430
-0.004,0.053,0.998,-0.305,1970434
-0.004,0.053,0.998,-0.305,1970438
-0.004,0.053,0.998,-0.244,1970442
-0.004,0.055,0.998,-0.061,1970446
-0.004,0.055,0.998,-0.122,1970450
-0.004,0.053,0.999,-0.122,1970454
-0.004,0.053,0.999,-0.122,1970457
-0.004,0.053,0.999,-0.122,1970461
-0.005,0.053,0.999,-0.244,1970465
-0.005,0.053,0.999,-0.244,1970469
-0.005,0.055,1.0,-0.183,1970473
-0.005,0.055,1.0,-0.183,1970477
-0.005,0.055,1.0,-0.122,1970481
-0.005,0.054,0.999,-0.183,1970485
-0.005,0.054,0.999,-0.183,1970489
-0.005,0.052,1.0,-0.061,1970493
-0.005,0.052,1.0,-0.061,1970497
-0.005,0.052,1.0,-0.244,1970501
-0.005,0.053,0.999,-0.244,1970505
-0.005,0.053,0.999,-0.366,1970509
-0.005,0.054,0.998,-0.183,1970513
-0.005,0.054,0.998,-0.183,1970517
-0.005,0.054,0.998,-0.244,1970521
-0.006,0.053,1.0,-0.244,1970525
-0.006,0.053,1.0,-0.183,1970529
-0.004,0.053,0.998,-0.244,1970533
-0.004,0.053,0.998,-0.244,1970537
-0.004,0.053,0.998,-0.183,1970541
-0.004,0.052,0.999,-0.244,1970545
-0.004,0.052,0.999,-0.244,1970549
-0.004,0.053,0.999,-0.366,1970553
-0.004,0.053,0.999,-0.366,1970557
-0.004,0.053,0.999,-0.305,1970561
-0.003,0.053,0.999,-0.061,1970565
-0.003,0.053,0.999,-0.122,1970569
-0.004,0.053,1.0,-0.183,1970573
-0.004,0.053,1.0,-0.183,1970577
-0.004,0.053,1.0,-0.122,1970581
-0.003,0.053,0.999,-0.183,1970585
-0.003,0.053,0.999,-0.183,1970589
-0.002,0.053,0.999,-0.183,1970593
-0.002,0.053,0.999,-0.183,1970597
-0.002,0.053,0.999,-0.183,1970600
-0.004,0.053,0.999,-0.183,1970604
-0.004,0.053,0.999,-0.183,1970608
-0.002,0.052,1.0,-0.122,1970612
-0.002,0.052,1.0,-0.122,1970616
-0.002,0.052,1.0,-0.244,1970620
-0.003,0.053,0.998,-0.244,1970624
-0.003,0.053,0.998,-0.183,1970628
-0.005,0.052,0.999,-0.183,1970632
-0.005,0.052,0.999,-0.183,1970636
-0.005,0.052,0.999,-0.183,1970640
-0.003,0.052,1.0,-0.122,1970644
-0.003,0.052,1.0,-0.122,1970648
-0.004,0.053,0.999,-0.061,1970652
-0.004,0.053,0.999,-0.061,1970656
-0.004,0.053,0.999,-0.122,1970660
-0.005,0.052,0.999,-0.122,1970664
-0.005,0.052,0.999,-0.244,1970668
-0.006,0.052,0.999,-0.122,1970672
-0.006,0.052,0.999,-0.122,1970676
-0.006,0.052,0.999,-0.183,1970680
-0.005,0.054,0.999,-0.244,1970684
-0.005,0.054,0.999,-0.183,1970688
-0.004,0.055,0.999,-0.183,1970692
-0.004,0.055,0.999,-0.183,1970696
-0.004,0.055,0.999,-0.183,1970700
-0.006,0.054,0.997,-0.183,1970704
-0.006,0.054,0.997,-0.183,1970708
-0.005,0.054,0.999,-0.183,1970712
-0.005,0.054,0.999,-0.183,1970716
-0.005,0.054,0.999,-0.244,1970720
-0.006,0.054,1.0,-0.183,1970724
-0.006,0.054,1.0,-0.244,1970728
-0.006,0.055,1.0,-0.122,1970732
-0.006,0.055,1.0,-0.122,1970736
-0.006,0.055,1.0,-0.183,1970739
-0.004,0.054,0.999,-0.183,1970743
-0.004,0.054,0.999,-0.183,1970747
-0.003,0.052,0.996,-0.244,1970751
-0.003,0.052,0.996,-0.244,1970755
-0.003,0.052,0.996,-0.183,1970759
-0.006,0.055,0.999,-0.183,1970763
-0.006,0.055,0.999,-0.366,1970767
-0.006,0.054,0.999,-0.183,1970771
-0.006,0.054,0.999,-0.183,1970775
-0.006,0.054,0.999,-0.183,1970779
-0.006,0.053,0.999,-0.183,1970783
-0.006,0.053,0.999,-0.244,1970787
-0.004,0.052,0.999,-0.244,1970791
-0.004,0.052,0.999,-0.244,1970795
-0.004,0.052,0.999,-0.122,1970799
-0.004,0.052,0.998,-0.061,1970803
-0.004,0.052,0.998,-0.244,1970807
-0.003,0.054,1.0,-0.244,1970811
-0.003,0.054,1.0,-0.244,1970815
-0.003,0.054,1.0,-0.183,1970819
-0.005,0.054,0.999,-0.244,1970823
-0.005,0.054,0.999,-0.183,1970827
-0.003,0.053,0.999,-0.244,1970831
-0.003,0.053,0.999,-0.244,1970835
-0.003,0.053,0.999,-0.244,1970839
-0.004,0.052,1.0,-0.122,1970843
-0.004,0.052,1.0,-0.122,1970847
-0.004,0.053,1.0,-0.183,1970851
-0.004,0.053,1.0,-0.183,1970855
-0.004,0.053,1.0,-0.122,1970859
-0.003,0.053,1.0,-0.122,1970862
-0.003,0.053,1.0,-0.183,1970866
-0.005,0.053,1.0,-0.244,1970870
-0.005,0.053,1.0,-0.244,1970874
-0.005,0.053,1.0,-0.366,1970878
-0.004,0.053,0.999,-0.305,1970882
-0.004,0.053,0.999,-0.061,1970886
-0.003,0.052,1.0,-0.244,1970890
-0.003,0.052,1.0,-0.244,1970894
-0.003,0.052,1.0,-0.244,1970898
-0.005,0.052,0.998,-0.244,1970902
-0.005,0.052,0.998,-0.183,1970906
-0.003,0.053,1.0,-0.122,1970910
-0.003,0.053,1.0,-0.122,1970914
-0.003,0.053,1.0,-0.183,1970918
-0.004,0.054,0.999,-0.061,1970922
-0.004,0.054,0.999,-0.183,1970926
-0.004,0.054,1.0,-0.122,1970930
-0.004,0.054,1.0,-0.122,1970934
-0.004,0.054,1.0,-0.061,1970938
-0.003,0.053,1.0,-0.122,1970942
-0.003,0.053,1.0,-0.183,1970946
-0.005,0.054,0.999,-0.183,1970950
-0.005,0.054,0.999,-0.183,1970954
-0.005,0.054,0.999,-0.244,1970958
-0.003,0.053,0.999,-0.305,1970962
-0.003,0.053,0.999,-0.183,1970966
-0.002,0.054,1.0,-0.122,1970970
-0.002,0.054,1.0,-0.122,1970974
-0.002,0.054,1.0,-0.244,1970978
-0.004,0.054,0.999,-0.183,1970982
-0.004,0.054,0.999,-0.305,1970986
-0.005,0.053,0.998,-0.366,1970990
-0.005,0.053,0.998,-0.366,1970994
-0.005,0.053,0.998,-0.244,1970997
-0.004,0.054,1.0,-0.244,1971001
-0.004,0.054,1.0,-0.183,1971005
-0.005,0.053,0.999,-0.244,1971009
-0.005,0.053,0.999,-0.244,1971013
-0.005,0.053,0.999,-0.183,1971017
-0.005,0.054,0.997,-0.183,1971021
-0.005,0.054,0.997,-0.183,1971025
-0.005,0.055,0.998,-0.122,1971029
-0.005,0.055,0.998,-0.122,1971033
-0.005,0.055,0.998,-0.183,1971037
-0.005,0.053,0.999,-0.244,1971041
-0.005,0.053,0.999,-0.122,1971045
-0.002,0.052,1.0,-0.244,1971049
-0.002,0.052,1.0,-0.244,1971053
-0.002,0.052,1.0,-0.305,1971057
-0.004,0.05,0.999,-0.244,1971061
-0.004,0.05,0.999,-0.244,1971065
-0.006,0.053,1.0,-0.183,1971069
-0.006,0.053,1.0,-0.183,1971073
-0.006,0.053,1.0,-0.305,1971077
-0.005,0.052,1.0,-0.305,1971081
-0.005,0.052,1.0,-0.244,1971085
-0.003,0.051,1.0,-0.244,1971089
-0.003,0.051,1.0,-0.244,1971093
-0.003,0.051,1.0,-0.183,1971097
-0.004,0.052,1.0,-0.122,1971101
-0.004,0.052,1.0,-0.061,1971105
-0.004,0.053,1.0,-0.183,1971109
-0.004,0.053,1.0,-0.183,1971113
-0.004,0.053,1.0,-0.183,1971117
-0.003,0.052,0.999,-0.122,1971121
-0.003,0.052,0.999,-0.183,1971125
-0.004,0.054,1.001,-0.244,1971128
-0.004,0.054,1.001,-0.244,1971132
-0.004,0.054,1.001,-0.122,1971136
-0.002,0.053,0.998,-0.183,1971140
-0.002,0.053,0.998,-0.244,1971144
-0.003,0.052,0.999,-0.183,1971148
-0.003,0.052,0.999,-0.183,1971152
-0.003,0.052,0.999,-0.122,1971156
-0.003,0.053,0.999,-0.183,1971160
-0.003,0.053,0.999,-0.122,1971164
-0.004,0.054,1.0,-0.122,1971168
-0.004,0.054,1.0,-0.122,1971172
-0.004,0.054,1.0,-0.305,1971176
-0.003,0.054,0.999,-0.305,1971180
-0.003,0.054,0.999,-0.183,1971184
-0.003,0.054,0.999,-0.061,1971188
-0.003,0.054,0.999,-0.061,1971192
-0.003,0.054,0.999,-0.122,1971196
-0.003,0.055,1.0,-0.183,1971200
-0.003,0.055,1.0,-0.122,1971204
-0.005,0.055,0.999,-0.183,1971208
-0.005,0.055,0.999,-0.183,1971212
-0.005,0.055,0.999,-0.183,1971216
-0.005,0.054,0.999,-0.305,1971220
-0.005,0.054,0.999,-0.366,1971224
-0.005,0.054,0.999,-0.183,1971228
-0.005,0.054,0.999,-0.183,1971232
-0.005,0.054,0.999,-0.183,1971236
-0.004,0.055,1.001,-0.183,1971240
-0.004,0.055,1.001,-0.122,1971244
-0.006,0.054,0.999,-0.122,1971248
-0.006,0.054,0.999,-0.122,1971252
-0.006,0.054,0.999,-0.183,1971256
-0.005,0.054,0.998,-0.244,1971259
-0.005,0.054,0.998,-0.305,1971263
-0.004,0.056,1.0,-0.183,1971267
-0.004,0.056,1.0,-0.183,1971271
-0.004,0.056,1.0,-0.244,1971275
-0.003,0.055,0.999,-0.305,1971279
-0.003,0.055,0.999,-0.183,1971283
-0.002,0.053,0.998,-0.122,1971287
-0.002,0.053,0.998,-0.122,1971291
-0.002,0.053,0.998,-0.122,1971295
-0.004,0.051,1.0,-0.183,1971299
-0.004,0.051,1.0,-0.183,1971303
-0.004,0.053,0.999,-0.244,1971307
-0.004,0.053,0.999,-0.244,1971311
-0.004,0.053,0.999,-0.305,1971315
-0.004,0.053,1.0,-0.244,1971319
-0.004,0.053,1.0,-0.244,1971323
-0.004,0.052,0.999,-0.244,1971327
-0.004,0.052,0.999,-0.244,1971331
-0.004,0.052,0.999,-0.122,1971335
-0.004,0.051,0.999,-0.061,1971339
-0.004,0.051,0.999,-0.061,1971343
-0.004,0.054,1.0,-0.061,1971347
-0.004,0.054,1.0,-0.061,1971351
-0.004,0.054,1.0,-0.183,1971355
-0.003,0.053,1.001,-0.183,1971359
-0.003,0.053,1.001,-0.183,1971363
-0.004,0.053,0.999,-0.122,1971367
-0.004,0.053,0.999,-0.122,1971371
-0.004,0.053,0.999,-0.244,1971375
-0.004,0.053,0.999,-0.122,1971379
-0.004,0.053,0.999,-0.122,1971383
-0.004,0.053,0.999,-0.183,1971387
-0.004,0.053,0.999,-0.183,1971391
-0.004,0.053,0.999,-0.183,1971395
-0.003,0.053,0.999,-0.244,1971399
-0.003,0.053,0.999,-0.244,1971402
-0.003,0.054,1.0,-0.244,1971406
-0.003,0.054,1.0,-0.244,1971410
-0.003,0.054,1.0,-0.183,1971414
-0.003,0.053,0.999,-0.183,1971418
-0.003,0.053,0.999,-0.244,1971422
-0.003,0.054,0.999,-0.183,1971426
-0.003,0.054,0.999,-0.183,1971430
-0.003,0.054,0.999,-0.122,1971434
-0.002,0.054,0.998,-0.183,1971438
-0.002,0.054,0.998,-0.183,1971442
-0.004,0.052,0.998,-0.244,1971446
-0.004,0.052,0.998,-0.244,1971450
-0.004,0.052,0.998,-0.244,1971454
-0.004,0.054,0.999,-0.183,1971458
-0.004,0.054,0.999,-0.183,1971462
-0.004,0.053,0.999,-0.122,1971466
-0.004,0.053,0.999,-0.122,1971470
-0.004,0.053,0.999,-0.244,1971474
-0.006,0.054,1.0,-0.244,1971478
-0.006,0.054,1.0,-0.122,1971482
-0.006,0.055,0.999,-0.122,1971486
-0.006,0.055,0.999,-0.122,1971490
-0.006,0.055,0.999,-0.183,1971494
-0.004,0.054,1.0,-0.122,1971498
-0.004,0.054,1.0,-0.122,1971502
-0.004,0.054,0.999,-0.305,1971506
-0.004,0.054,0.999,-0.305,1971510
-0.004,0.054,0.999,-0.244,1971514
-0.005,0.053,0.998,-0.244,1971518
-0.005,0.053,0.998,-0.122,1971522
-0.003,0.052,0.998,-0.061,1971526
-0.003,0.052,0.998,-0.061,1971530
-0.003,0.052,0.998,-0.061,1971534
-0.004,0.054,0.998,-0.183,1971538
-0.004,0.054,0.998,-0.366,1971542
-0.006,0.054,1.0,-0.244,1971546
-0.006,0.054,1.0,-0.244,1971549
-0.006,0.054,1.0,-0.183,1971553
-0.003,0.053,1.0,-0.183,1971557
-0.003,0.053,1.0,-0.122,1971561
-0.002,0.055,0.999,-0.122,1971565
-0.002,0.055,0.999,-0.122,1971569
-0.002,0.055,0.999,-0.183,1971573
-0.005,0.054,0.999,-0.244,1971577
-0.005,0.054,0.999,-0.183,1971581
-0.003,0.052,0.998,-0.122,1971585
-0.003,0.052,0.998,-0.122,1971589
-0.003,0.052,0.998,-0.305,1971593
-0.002,0.052,0.997,-0.366,1971597
-0.002,0.052,0.997,-0.305,1971601
-0.005,0.053,0.998,-0.305,1971605
-0.005,0.053,0.998,-0.305,1971609
-0.005,0.053,0.998,-0.183,1971613
-0.003,0.053,0.999,-0.122,1971617
-0.003,0.053,0.999,-0.183,1971621
-0.005,0.052,1.001,-0.183,1971625
-0.005,0.052,1.001,-0.183,1971629
-0.005,0.052,1.001,-0.061,1971633
-0.003,0.053,1.0,-0.183,1971637
-0.003,0.053,1.0,-0.183,1971641
-0.003,0.052,0.999,-0.183,1971645
-0.003,0.052,0.999,-0.183,1971649
-0.003,0.052,0.999,-0.122,1971653
-0.003,0.052,1.001,-0.183,1971657
-0.003,0.052,1.001,-0.244,1971661
-0.004,0.052,0.998,-0.244,1971665
-0.004,0.052,0.998,-0.244,1971669
-0.004,0.052,0.998,-0.183,1971673
-0.005,0.051,0.999,-0.244,1971677
-0.005,0.051,0.999,-0.244,1971681
-0.004,0.052,0.999,-0.244,1971685
-0.004,0.052,0.999,-0.244,1971689
-0.004,0.052,0.999,-0.305,1971692
-0.004,0.053,0.999,-0.244,1971696
-0.004,0.053,0.999,-0.183,1971700
-0.005,0.052,0.999,-0.244,1971704
-0.005,0.052,0.999,-0.244,1971708
-0.005,0.052,0.999,-0.122,1971712
-0.005,0.053,0.998,-0.122,1971716
-0.005,0.053,0.998,-0.366,1971720
-0.004,0.054,0.998,-0.305,1971724
-0.004,0.054,0.998,-0.305,1971728
-0.004,0.054,0.998,-0.244,1971732
-0.003,0.054,0.999,-0.244,1971736
-0.003,0.054,0.999,-0.183,1971740
-0.006,0.053,1.0,-0.244,1971744
-0.006,0.053,1.0,-0.244,1971748
-0.006,0.053,1.0,-0.122,1971752
-0.003,0.053,0.999,-0.122,1971756
-0.003,0.053,0.999,-0.183,1971760
-0.004,0.053,0.999,-0.122,1971764
-0.004,0.053,0.999,-0.183,1971768
-0.004,0.053,0.999,-0.183,1971772
-0.005,0.053,0.999,-0.305,1971776
-0.005,0.053,0.999,-0.305,1971780
-0.006,0.054,0.999,-0.244,1971784
-0.006,0.054,0.999,-0.122,1971788
-0.006,0.054,0.999,-0.122,1971792
-0.004,0.054,0.999,-0.122,1971796
-0.004,0.054,0.999,-0.183,1971800
-0.005,0.054,0.998,-0.183,1971804
-0.005,0.054,0.998,-0.244,1971808
-0.005,0.054,0.998,-0.244,1971812
-0.003,0.054,0.999,-0.183,1971816
-0.003,0.054,0.999,-0.122,1971820
-0.004,0.052,0.999,-0.183,1971824
-0.004,0.052,0.999,-0.183,1971828
-0.004,0.052,0.999,-0.183,1971832
-0.004,0.052,0.998,-0.183,1971836
-0.004,0.052,0.998,-0.061,1971839
-0.004,0.054,0.999,-0.305,1971843
-0.004,0.054,0.999,-0.305,1971847
-0.004,0.054,0.999,-0.305,1971851
-0.005,0.053,1.0,-0.305,1971855
-0.005,0.053,1.0,-0.061,1971859
-0.004,0.052,0.998,-0.061,1971863
-0.004,0.052,0.998,-0.305,1971867
-0.004,0.052,0.998,-0.305,1971871
-0.004,0.051,0.999,-0.244,1971875
-0.004,0.051,0.999,-0.305,1971879
-0.005,0.053,1.0,-0.366,1971883
-0.005,0.053,1.0,-0.244,1971887
-0.005,0.053,1.0,-0.244,1971891
-0.005,0.052,1.0,-0.183,1971895
-0.005,0.052,1.0,-0.183,1971899
-0.003,0.053,0.999,-0.061,1971903
-0.003,0.053,0.999,-0.183,1971907
-0.003,0.053,0.999,-0.183,1971911
-0.003,0.053,1.0,-0.183,1971915
-0.003,0.053,1.0,-0.244,1971919
-0.006,0.053,1.0,-0.244,1971923
-0.006,0.053,1.0,-0.244,1971927
-0.006,0.053,1.0,-0.244,1971931
-0.004,0.053,0.999,-0.183,1971935
-0.004,0.053,0.999,-0.183,1971939
-0.003,0.054,1.0,-0.244,1971943
-0.003,0.054,1.0,-0.305,1971947
-0.003,0.054,1.0,-0.305,1971951
-0.006,0.054,1.0,-0.305,1971955
-0.006,0.054,1.0,-0.183,1971959
-0.004,0.054,0.999,-0.061,1971963
-0.004,0.054,0.999,-0.244,1971966
-0.004,0.054,0.999,-0.244,1971970
-0.003,0.053,0.997,-0.122,1971974
-0.003,0.053,0.997,-0.061,1971978
-0.005,0.053,0.999,-0.122,1971982
-0.005,0.053,0.999,-0.122,1971986
-0.005,0.053,0.999,-0.122,1971990
-0.005,0.053,1.0,-0.183,1971994
-0.005,0.053,1.0,-0.183,1971998
-0.006,0.053,0.999,-0.183,1972002
-0.006,0.053,0.999,-0.244,1972006
-0.006,0.053,0.999,-0.244,1972010
-0.004,0.052,1.0,-0.305,1972014
-0.004,0.052,1.0,-0.244,1972018
-0.005,0.054,1.0,-0.183,1972022
-0.005,0.054,1.0,-0.183,1972026
-0.005,0.054,1.0,-0.183,1972030
-0.005,0.053,0.996,-0.183,1972034
-0.005,0.053,0.996,-0.244,1972038
-0.005,0.053,0.999,-0.122,1972042
-0.005,0.053,0.999,-0.183,1972046
-0.005,0.053,0.999,-0.183,1972050
-0.004,0.053,1.001,-0.183,1972054
-0.004,0.053,1.001,-0.061,1972058
-0.004,0.054,1.0,-0.122,1972062
-0.004,0.054,1.0,-0.305,1972066
-0.004,0.054,1.0,-0.305,1972070
-0.004,0.053,0.999,-0.183,1972074
-0.004,0.053,0.999,-0.122,1972078
-0.002,0.053,1.0,-0.244,1972082
-0.002,0.053,1.0,-0.183,1972086
-0.002,0.053,1.0,-0.183,1972090
-0.004,0.054,0.999,-0.122,1972094
-0.004,0.054,0.999,-0.183,1972098
-0.004,0.053,0.998,-0.244,1972101
-0.004,0.053,0.998,-0.122,1972105
-0.004,0.053,0.998,-0.122,1972109
-0.004,0.053,0.998,-0.183,1972113
-0.004,0.053,0.998,-0.061,1972117
-0.005,0.054,0.999,-0.244,1972121
-0.005,0.054,0.999,-0.244,1972125
-0.005,0.054,0.999,-0.244,1972129
-0.006,0.052,1.001,-0.244,1972133
-0.006,0.052,1.001,-0.122,1972137
-0.004,0.054,0.999,-0.122,1972141
-0.004,0.054,0.999,-0.122,1972145
-0.004,0.054,0.999,-0.122,1972149
-0.002,0.054,0.999,-0.183,1972153
-0.002,0.054,0.999,-0.244,1972157
-0.003,0.053,1.0,-0.244,1972161
-0.003,0.053,1.0,-0.244,1972165
-0.003,0.053,1.0,-0.244,1972169
-0.002,0.053,0.998,-0.244,1972173
-0.002,0.053,0.998,-0.244,1972177
-0.003,0.054,0.998,-0.183,1972181
-0.003,0.054,0.998,-0.122,1972185
-0.003,0.054,0.998,-0.122,1972189
-0.003,0.053,0.999,-0.183,1972193
-0.003,0.053,0.999,-0.244,1972197
-0.004,0.055,1.0,-0.183,1972201
-0.004,0.055,1.0,-0.305,1972205
-0.004,0.055,1.0,-0.305,1972209
-0.003,0.053,1.0,-0.122,1972213
-0.003,0.053,1.0,-0.061,1972217
-0.003,0.053,0.998,-0.061,1972221
-0.003,0.053,0.998,-0.183,1972224
-0.003,0.053,0.998,-0.183,1972228
-0.003,0.054,0.999,-0.061,1972232
-0.003,0.054,0.999,-0.183,1972236
-0.005,0.053,1.0,-0.305,1972240
-0.005,0.053,1.0,-0.122,1972244
-0.005,0.053,1.0,-0.122,1972248
-0.004,0.052,1.001,-0.122,1972252
-0.004,0.052,1.001,-0.183,1972256
-0.004,0.053,0.996,-0.122,1972260
-0.004,0.053,0.996,-0.183,1972264
-0.004,0.053,0.996,-0.183,1972268
-0.004,0.053,0.999,-0.244,1972272
-0.004,0.053,0.999,-0.183,1972276
-0.005,0.054,1.005,-0.183,1972280
-0.005,0.054,1.005,-0.122,1972284
-0.005,0.054,1.005,-0.122,1972288
-0.004,0.054,0.996,-0.244,1972292
-0.004,0.054,0.996,-0.366,1972296
-0.005,0.054,0.994,-0.366,1972300
-0.005,0.054,0.994,-0.122,1972304
-0.005,0.054,0.994,-0.122,1972308
-0.005,0.055,1.002,-0.183,1972312
-0.005,0.055,1.002,-0.183,1972316
-0.007,0.054,1.0,-0.244,1972320
-0.007,0.054,1.0,-0.244,1972324
-0.007,0.054,1.0,-0.244,1972328
-0.004,0.052,0.998,-0.183,1972332
-0.004,0.052,0.998,-0.244,1972336
-0.004,0.053,0.999,-0.183,1972340
-0.004,0.053,0.999,-0.061,1972344
-0.004,0.053,0.999,-0.061,1972348
-0.005,0.052,0.998,-0.061,1972351
-0.005,0.052,0.998,-0.122,1972355
-0.004,0.052,0.998,-0.183,1972359
-0.004,0.052,0.998,-0.183,1972363
-0.004,0.052,0.998,-0.183,1972367
-0.004,0.052,1.0,-0.183,1972371
-0.004,0.052,1.0,-0.305,1972375
-0.003,0.052,0.999,-0.305,1972379
-0.003,0.052,0.999,-0.366,1972383
-0.003,0.052,0.999,-0.366,1972387
-0.003,0.052,1.001,-0.061,1972391
-0.003,0.052,1.001,-0.244,1972395
-0.005,0.052,1.0,-0.305,1972399
-0.005,0.052,1.0,-0.305,1972403
-0.005,0.052,1.0,-0.305,1972407
-0.003,0.052,0.999,-0.183,1972411
-0.003,0.052,0.999,-0.183,1972415
-0.004,0.053,1.001,-0.122,1972419
-0.004,0.053,1.001,-0.183,1972423
-0.004,0.053,1.001,-0.183,1972427
-0.003,0.055,1.0,-0.122,1972431
-0.003,0.055,1.0,-0.183,1972435
-0.004,0.054,1.001,-0.244,1972439
-0.004,0.054,1.001,-0.122,1972443
-0.004,0.054,1.001,-0.122,1972447
-0.004,0.054,0.998,-0.122,1972451
-0.004,0.054,0.998,-0.122,1972455
-0.004,0.054,0.997,-0.244,1972459
-0.004,0.054,0.997,-0.244,1972463
-0.004,0.054,0.997,-0.244,1972467
-0.003,0.054,1.0,-0.122,1972471
-0.003,0.054,1.0,-0.122,1972475
-0.004,0.054,1.0,-0.183,1972479
-0.004,0.054,1.0,-0.122,1972483
-0.004,0.054,1.0,-0.122,1972486
-0.003,0.055,0.998,-0.122,1972490
-0.003,0.055,0.998,-0.183,1972494
-0.004,0.054,0.998,-0.122,1972498
-0.004,0.054,0.998,-0.122,1972502
-0.004,0.054,0.998,-0.122,1972506
-0.005,0.054,0.999,-0.183,1972510
-0.005,0.054,0.999,-0.122,1972514
-0.005,0.054,0.999,-0.244,1972518
-0.005,0.054,0.999,-0.305,1972522
-0.005,0.054,0.999,-0.305,1972526
-0.005,0.055,0.999,-0.183,1972530
-0.005,0.055,0.999,-0.366,1972534
-0.006,0.054,0.997,-0.183,1972538
-0.006,0.054,0.997,-0.122,1972542
-0.006,0.054,0.997,-0.122,1972546
-0.003,0.053,0.998,-0.305,1972550
-0.003,0.053,0.998,-0.305,1972554
-0.004,0.053,0.999,-0.183,1972558
-0.004,0.053,0.999,-0.244,1972562
-0.004,0.053,0.999,-0.244,1972566
-0.005,0.052,1.0,-0.244,1972570
-0.005,0.052,1.0,-0.183,1972574
-0.004,0.053,1.0,-0.305,1972578
-0.004,0.053,1.0,-0.244,1972582
-0.004,0.053,1.0,-0.244,1972586
-0.004,0.053,1.0,-0.183,1972590
-0.004,0.053,1.0,-0.183,1972594
-0.004,0.051,1.0,-0.122,1972598
-0.004,0.051,1.0,-0.183,1972602
-0.004,0.051,1.0,-0.183,1972606
-0.003,0.052,0.998,-0.183,1972610
-0.003,0.052,0.998,-0.122,1972614
-0.003,0.052,0.998,-0.244,1972617
-0.003,0.052,0.998,-0.183,1972621
-0.003,0.052,0.998,-0.183,1972625
-0.003,0.054,0.997,-0.122,1972629
-0.003,0.054,0.997,-0.122,1972633
-0.004,0.054,1.001,-0.244,1972637
-0.004,0.054,1.001,-0.183,1972641
-0.004,0.054,1.001,-0.183,1972645
-0.004,0.052,1.002,-0.061,1972649
-0.004,0.052,1.002,-0.305,1972653
-0.003,0.052,0.999,-0.305,1972657
-0.003,0.052,0.999,-0.061,1972661
-0.003,0.052,0.999,-0.061,1972665
-0.002,0.053,1.0,-0.183,1972669
-0.002,0.053,1.0,-0.305,1972673
-0.004,0.054,0.998,-0.122,1972677
-0.004,0.054,0.998,-0.183,1972681
-0.004,0.054,0.998,-0.183,1972685
-0.004,0.053,1.0,-0.305,1972689
-0.004,0.053,1.0,-0.183,1972693
-0.003,0.053,1.0,-0.244,1972697
-0.003,0.053,1.0,-0.122,1972701
-0.003,0.053,1.0,-0.122,1972705
-0.004,0.052,0.999,-0.061,1972709
-0.004,0.052,0.999,-0.183,1972713
-0.005,0.052,1.0,-0.244,1972717
-0.005,0.052,1.0,-0.183,1972721
-0.005,0.052,1.0,-0.183,1972725
-0.006,0.053,0.999,-0.366,1972729
-0.006,0.053,0.999,-0.305,1972733
-0.004,0.052,0.998,-0.183,1972737
-0.004,0.052,0.998,-0.305,1972741
-0.004,0.052,0.998,-0.305,1972745
-0.005,0.052,1.0,-0.244,1972748
-0.005,0.052,1.0,-0.183,1972752
-0.004,0.053,0.999,-0.305,1972756
-0.004,0.053,0.999,-0.122,1972760
-0.004,0.053,0.999,-0.122,1972764
-0.004,0.054,1.0,-0.244,1972768
-0.004,0.054,1.0,-0.244,1972772
-0.004,0.052,0.998,-0.183,1972776
-0.004,0.052,0.998,-0.122,1972780
-0.004,0.052,0.998,-0.122,1972784
-0.003,0.052,0.997,-0.183,1972788
-0.003,0.052,0.997,-0.183,1972792
-0.004,0.053,0.999,-0.122,1972796
-0.004,0.053,0.999,-0.183,1972800
-0.004,0.053,0.999,-0.183,1972804
-0.004,0.053,0.998,-0.305,1972808
-0.004,0.053,0.998,-0.183,1972812
-0.006,0.052,0.999,-0.183,1972816
-0.006,0.052,0.999,-0.183,1972820
-0.006,0.052,0.999,-0.183,1972824
-0.004,0.052,1.0,-0.366,1972828
-0.004,0.052,1.0,-0.183,1972832
-0.004,0.053,1.0,-0.122,1972836
-0.004,0.053,1.0,-0.244,1972840
-0.004,0.053,1.0,-0.244,1972844
-0.002,0.054,0.998,-0.122,1972848
-0.002,0.054,0.998,-0.244,1972852
-0.003,0.054,1.0,-0.183,1972856
-0.003,0.054,1.0,-0.183,1972860
-0.003,0.054,1.0,-0.183,1972864
-0.002,0.053,0.999,-0.183,1972868
-0.002,0.053,0.999,-0.183,1972872
-0.001,0.054,1.0,-0.061,1972876
-0.001,0.054,1.0,-0.061,1972879
-0.001,0.054,1.0,-0.061,1972883
-0.002,0.052,1.0,-0.122,1972887
-0.002,0.052,1.0,-0.122,1972891
-0.001,0.054,0.999,-0.183,1972895
-0.001,0.054,0.999,-0.366,1972899
-0.001,0.054,0.999,-0.366,1972903
-0.002,0.053,1.0,-0.366,1972907
-0.002,0.053,1.0,-0.366,1972911
-0.003,0.052,1.001,-0.366,1972915
-0.003,0.052,1.001,-0.244,1972919
-0.003,0.052,1.001,-0.244,1972923
-0.002,0.052,0.998,-0.244,1972927
-0.002,0.052,0.998,-0.183,1972931
-0.003,0.052,1.0,-0.244,1972935
-0.003,0.052,1.0,-0.244,1972939
-0.003,0.052,1.0,-0.244,1972943
-0.005,0.052,1.0,-0.244,1972947
-0.005,0.052,1.0,-0.244,1972951
-0.004,0.051,0.999,-0.183,1972955
-0.004,0.051,0.999,-0.244,1972959
-0.004,0.051,0.999,-0.244,1972963
-0.006,0.052,0.998,-0.244,1972967
-0.006,0.052,0.998,0.0,1972971
-0.007,0.052,0.999,-0.061,1972975
-0.007,0.052,0.999,-0.244,1972979
-0.007,0.052,0.999,-0.244,1972983
-0.006,0.052,0.999,-0.183,1972987
-0.006,0.052,0.999,-0.244,1972991
-0.007,0.054,0.998,-0.305,1972994
-0.007,0.054,0.998,-0.244,1972998
-0.007,0.054,0.998,-0.244,1973002
-0.007,0.054,0.997,-0.244,1973006
-0.007,0.054,0.997,-0.305,1973010
-0.006,0.054,0.997,-0.183,1973014
-0.006,0.054,0.997,-0.183,1973018
-0.006,0.054,0.997,-0.183,1973022
-0.005,0.055,0.999,-0.244,1973026
-0.005,0.055,0.999,-0.183,1973030
-0.006,0.055,0.997,-0.183,1973034
-0.006,0.055,0.997,-0.183,1973038
-0.006,0.055,0.997,-0.183,1973042
-0.005,0.055,0.998,-0.122,1973046
-0.005,0.055,0.998,-0.183,1973050
-0.005,0.054,0.997,-0.244,1973054
-0.005,0.054,0.997,-0.183,1973058
-0.005,0.054,0.997,-0.183,1973062
-0.007,0.055,0.997,-0.305,1973066
-0.007,0.055,0.997,-0.183,1973070
-0.005,0.056,0.996,-0.183,1973074
-0.005,0.056,0.996,-0.061,1973078
-0.005,0.056,0.996,-0.061,1973082
-0.004,0.056,0.998,-0.061,1973086
-0.004,0.056,0.998,-0.244,1973090
-0.006,0.056,1.0,-0.305,1973094
-0.006,0.056,1.0,-0.305,1973098
-0.006,0.056,1.0,-0.305,1973102
-0.006,0.054,1.0,-0.244,1973106
-0.006,0.054,1.0,-0.305,1973110
-0.005,0.052,0.998,-0.244,1973114
-0.005,0.052,0.998,-0.183,1973118
-0.005,0.052,0.998,-0.183,1973121
-0.003,0.051,1.001,-0.305,1973125
-0.003,0.051,1.001,-0.244,1973129
-0.003,0.052,1.001,-0.183,1973133
-0.003,0.052,1.001,-0.244,1973137
-0.003,0.052,1.001,-0.244,1973141
-0.003,0.051,1.002,-0.183,1973145
-0.003,0.051,1.002,-0.122,1973149
-0.003,0.051,0.997,-0.183,1973153
-0.003,0.051,0.997,-0.183,1973157
-0.003,0.051,0.997,-0.183,1973161
-0.003,0.05,0.996,-0.244,1973165
-0.003,0.05,0.996,-0.244,1973169
-0.002,0.05,1.002,0.0,1973173
-0.002,0.05,1.002,-0.061,1973177
-0.002,0.05,1.002,-0.061,1973181
-0.003,0.052,1.001,-0.183,1973185
-0.003,0.052,1.001,-0.305,1973189
-0.005,0.052,0.999,-0.305,1973193
-0.005,0.052,0.999,-0.122,1973197
-0.005,0.052,0.999,-0.122,1973201
-0.002,0.052,1.0,-0.244,1973205
-0.002,0.052,1.0,-0.122,1973209
-0.004,0.054,0.999,-0.122,1973213
-0.004,0.054,0.999,-0.305,1973217
-0.004,0.054,0.999,-0.305,1973221
-0.005,0.055,0.997,-0.244,1973225
-0.005,0.055,0.997,-0.244,1973229
-0.004,0.052,1.0,-0.183,1973233
-0.004,0.052,1.0,-0.061,1973236
-0.004,0.052,1.0,-0.061,1973240
-0.002,0.055,0.997,-0.244,1973244
-0.002,0.055,0.997,-0.366,1973248
-0.004,0.055,0.998,-0.244,1973252
-0.004,0.055,0.998,-0.305,1973256
-0.004,0.055,0.998,-0.305,1973260
-0.005,0.054,0.999,-0.183,1973264
-0.005,0.054,0.999,-0.183,1973268
-0.005,0.054,0.999,-0.183,1973272
-0.005,0.054,0.999,-0.183,1973276
-0.005,0.054,0.999,-0.183,1973280
-0.005,0.057,0.999,-0.183,1973284
-0.005,0.057,0.999,-0.183,1973288
-0.005,0.057,0.997,-0.122,1973292
-0.005,0.057,0.997,-0.244,1973296
-0.005,0.057,0.997,-0.244,1973300
-0.006,0.056,0.998,-0.183,1973304
-0.006,0.056,0.998,-0.183,1973308
-0.009,0.055,0.999,-0.244,1973312
-0.009,0.055,0.999,-0.183,1973316
-0.009,0.055,0.999,-0.183,1973320
-0.009,0.055,0.999,-0.061,1973324
-0.009,0.055,0.999,-0.244,1973328
-0.007,0.053,0.999,-0.305,1973332
-0.007,0.053,0.999,-0.183,1973336
-0.007,0.053,0.999,-0.183,1973340
-0.006,0.053,0.999,-0.183,1973344
-0.006,0.053,0.999,-0.305,1973348
-0.005,0.051,1.0,-0.122,1973352
-0.005,0.051,1.0,-0.305,1973356
-0.005,0.051,1.0,-0.305,1973359
-0.005,0.051,1.0,-0.244,1973363
-0.005,0.051,1.0,-0.122,1973367
-0.003,0.052,0.999,-0.183,1973371
-0.003,0.052,0.999,-0.122,1973375
-0.003,0.052,0.999,-0.122,1973379
-0.005,0.052,1.0,-0.061,1973383
-0.005,0.052,1.0,-0.183,1973387
-0.003,0.053,1.0,-0.183,1973391
-0.003,0.053,1.0,-0.183,1973395
-0.003,0.053,1.0,-0.183,1973399
-0.003,0.052,0.998,-0.244,1973403
-0.003,0.052,0.998,-0.183,1973407
-0.005,0.052,1.003,-0.183,1973411
-0.005,0.052,1.003,-0.244,1973415
-0.005,0.052,1.003,-0.244,1973419
-0.005,0.054,1.0,-0.183,1973423
-0.005,0.054,1.0,0.0,1973427
-0.003,0.052,1.001,-0.122,1973431
-0.003,0.052,1.001,-0.305,1973435
-0.003,0.052,1.001,-0.305,1973439
-0.004,0.053,0.998,-0.244,1973443
-0.004,0.053,0.998,-0.183,1973447
-0.002,0.054,1.004,-0.183,1973451
-0.002,0.054,1.004,-0.244,1973455
-0.002,0.054,1.004,-0.244,1973459
-0.003,0.055,0.997,-0.305,1973463
-0.003,0.055,0.997,-0.244,1973467
-0.004,0.052,1.0,-0.244,1973471
-0.004,0.052,1.0,-0.122,1973474
-0.004,0.052,1.0,-0.122,1973478
-0.003,0.054,0.998,-0.244,1973482
-0.003,0.054,0.998,-0.183,1973486
-0.004,0.053,1.001,0.0,1973490
-0.004,0.053,1.001,0.0,1973494
-0.004,0.053,1.001,-0.244,1973498
-0.006,0.053,0.999,-0.244,1973502
-0.006,0.053,0.999,-0.183,1973506
-0.006,0.054,1.0,-0.122,1973510
-0.006,0.054,1.0,-0.122,1973514
-0.006,0.054,1.0,-0.183,1973518
-0.007,0.053,0.998,-0.305,1973522
-0.007,0.053,0.998,-0.061,1973526
-0.007,0.054,0.999,-0.183,1973530
-0.007,0.054,0.999,-0.183,1973534
-0.007,0.054,0.999,-0.244,1973538
-0.007,0.054,0.997,-0.122,1973542
-0.007,0.054,0.997,-0.183,1973546
-0.007,0.054,0.997,-0.244,1973550
-0.007,0.054,0.997,-0.244,1973554
-0.007,0.054,0.997,-0.122,1973558
-0.006,0.056,0.996,-0.061,1973562
-0.006,0.056,0.996,-0.122,1973566
-0.007,0.055,1.001,-0.244,1973570
-0.007,0.055,1.001,-0.244,1973574
-0.007,0.055,1.001,0.0,1973577
-0.004,0.054,0.997,-0.122,1973581
-0.004,0.054,0.997,-0.305,1973585
-0.003,0.053,0.996,-0.366,1973589
-0.003,0.053,0.996,-0.366,1973593
-0.003,0.053,0.996,-0.061,1973597
-0.003,0.053,1.004,-0.183,1973601
-0.003,0.053,1.004,-0.244,1973605
-0.003,0.053,0.996,-0.183,1973609
-0.003,0.053,0.996,-0.183,1973613
-0.003,0.053,0.996,-0.244,1973617
-0.002,0.053,1.001,-0.244,1973621
-0.002,0.053,1.001,-0.183,1973625
0.0,0.052,0.999,-0.244,1973629
0.0,0.052,0.999,-0.244,1973633
0.0,0.052,0.999,-0.183,1973637
-0.001,0.052,0.996,-0.122,1973641
-0.001,0.052,0.996,-0.061,1973645
0.0,0.051,0.999,-0.122,1973649
0.0,0.051,0.999,-0.122,1973653
0.0,0.051,0.999,-0.183,1973657
0.0,0.051,1.002,-0.122,1973661
0.0,0.051,1.002,0.0,1973664
-0.0,0.052,1.003,-0.244,1973668
-0.0,0.052,1.003,-0.244,1973672
-0.0,0.052,1.003,-0.305,1973676
-0.001,0.051,1.002,-0.183,1973680
-0.001,0.051,1.002,-0.122,1973684
0.001,0.049,1.003,-0.122,1973688
0.001,0.049,1.003,-0.122,1973692
0.001,0.049,1.003,-0.244,1973696
0.002,0.051,1.001,-0.122,1973700
0.002,0.051,1.001,-0.183,1973704
0.001,0.049,1.003,-0.244,1973708
0.001,0.049,1.003,-0.244,1973712
0.001,0.049,1.003,-0.122,1973716
-0.001,0.051,0.999,-0.244,1973720
-0.001,0.051,0.999,-0.122,1973724
-0.001,0.051,1.001,-0.061,1973728
-0.001,0.051,1.001,-0.061,1973732
-0.001,0.051,1.001,-0.183,1973736
-0.003,0.05,1.0,-0.183,1973740
-0.003,0.05,1.0,-0.061,1973744
-0.003,0.05,0.998,-0.183,1973748
-0.003,0.05,0.998,-0.183,1973752
-0.003,0.05,0.998,-0.183,1973756
-0.004,0.052,1.0,-0.061,1973760
-0.004,0.052,1.0,-0.061,1973764
-0.005,0.054,1.001,-0.122,1973768
-0.005,0.054,1.001,-0.122,1973772
-0.005,0.054,1.001,-0.244,1973776
-0.007,0.054,0.999,-0.122,1973780
-0.007,0.054,0.999,-0.061,1973783
-0.006,0.054,0.998,-0.122,1973787
-0.006,0.054,0.998,-0.122,1973791
-0.006,0.054,0.998,-0.183,1973795
-0.008,0.055,0.995,-0.122,1973799
-0.008,0.055,0.995,-0.061,1973803
-0.006,0.056,0.997,-0.122,1973807
-0.006,0.056,0.997,-0.122,1973811
-0.006,0.056,0.997,-0.183,1973815
-0.005,0.056,0.997,-0.122,1973819
-0.005,0.056,0.997,-0.183,1973823
-0.004,0.059,0.998,-0.122,1973827
-0.004,0.059,0.998,-0.122,1973831
-0.004,0.059,0.998,-0.244,1973835
-0.005,0.057,0.997,-0.183,1973839
-0.005,0.057,0.997,-0.366,1973843
-0.004,0.056,0.995,-0.305,1973847
-0.004,0.056,0.995,-0.305,1973851
-0.004,0.056,0.995,-0.244,1973855
-0.003,0.058,0.999,-0.183,1973859
-0.003,0.058,0.999,-0.305,1973863
-0.004,0.057,0.998,-0.122,1973867
-0.004,0.057,0.998,-0.122,1973871
-0.004,0.057,0.998,-0.183,1973875
-0.004,0.057,0.997,-0.305,1973879
-0.004,0.057,0.997,-0.183,1973883
-0.005,0.055,1.0,-0.183,1973887
-0.005,0.055,1.0,-0.183,1973891
-0.005,0.055,1.0,-0.244,1973895
-0.006,0.055,0.997,-0.244,1973899
-0.006,0.055,0.997,-0.183,1973903
-0.006,0.054,0.998,-0.183,1973906
-0.006,0.054,0.998,-0.183,1973910
-0.006,0.054,0.998,-0.305,1973914
-0.007,0.053,0.997,-0.244,1973918
-0.007,0.053,0.997,-0.305,1973922
-0.007,0.054,0.998,-0.305,1973926
-0.007,0.054,0.998,-0.305,1973930
-0.007,0.054,0.998,-0.183,1973934
-0.007,0.051,1.002,-0.061,1973938
-0.007,0.051,1.002,-0.244,1973942
-0.007,0.052,1.001,-0.366,1973946
-0.007,0.052,1.001,-0.366,1973950
-0.007,0.052,1.001,-0.061,1973954
-0.004,0.052,0.996,-0.244,1973958
-0.004,0.052,0.996,-0.244,1973962
-0.004,0.051,0.997,-0.244,1973966
-0.004,0.051,0.997,-0.244,1973970
-0.004,0.051,0.997,-0.183,1973974
-0.004,0.051,1.0,-0.183,1973978
-0.004,0.051,1.0,-0.122,1973982
-0.005,0.052,1.001,-0.183,1973986
-0.005,0.052,1.001,-0.183,1973990
-0.005,0.052,1.001,-0.244,1973994
-0.003,0.053,1.001,-0.305,1973998
-0.003,0.053,1.001,-0.183,1974002
-0.003,0.053,0.998,-0.244,1974006
-0.003,0.053,0.998,-0.244,1974010
-0.003,0.053,0.998,-0.244,1974014
-0.003,0.053,1.0,-0.244,1974018
-0.003,0.053,1.0,-0.183,1974022
-0.003,0.054,0.999,-0.183,1974026
-0.003,0.054,0.999,-0.183,1974030
-0.003,0.054,0.999,-0.183,1974033
-0.001,0.054,0.999,-0.183,1974037
-0.001,0.054,0.999,-0.183,1974041
0.001,0.054,0.999,-0.122,1974045
0.001,0.054,0.999,-0.122,1974049
0.001,0.054,0.999,-0.122,1974053
-0.0,0.054,1.0,-0.183,1974057
-0.0,0.054,1.0,-0.244,1974061
-0.001,0.054,1.0,-0.183,1974065
-0.001,0.054,1.0,-0.183,1974069
-0.001,0.054,1.0,-0.305,1974073
-0.001,0.054,0.999,-0.183,1974077
-0.001,0.054,0.999,-0.183,1974081
-0.003,0.054,1.0,-0.122,1974085
-0.003,0.054,1.0,-0.122,1974089
-0.003,0.054,1.0,-0.122,1974093
-0.002,0.055,0.999,-0.244,1974097
-0.002,0.055,0.999,-0.183,1974101
-0.004,0.054,0.999,-0.244,1974105
-0.004,0.054,0.999,-0.244,1974109
-0.004,0.054,0.999,-0.244,1974113
-0.006,0.054,0.998,-0.122,1974117
-0.006,0.054,0.998,-0.244,1974121
-0.006,0.055,0.996,-0.183,1974125
-0.006,0.055,0.996,-0.183,1974129
-0.006,0.055,0.996,-0.183,1974133
-0.005,0.055,0.999,-0.305,1974137
-0.005,0.055,0.999,-0.122,1974141
-0.008,0.055,0.999,-0.305,1974145
-0.008,0.055,0.999,-0.305,1974149
-0.008,0.055,0.999,-0.366,1974153
-0.007,0.054,0.996,-0.183,1974156
-0.007,0.054,0.996,-0.305,1974160
-0.009,0.052,1.0,-0.244,1974164
-0.009,0.052,1.0,-0.244,1974168
-0.009,0.052,1.0,-0.122,1974172
-0.008,0.054,1.0,-0.244,1974176
-0.008,0.054,1.0,-0.305,1974180
-0.006,0.053,1.0,-0.305,1974184
-0.006,0.053,1.0,-0.305,1974188
-0.006,0.053,1.0,-0.183,1974192
-0.007,0.053,0.998,-0.244,1974196
-0.007,0.053,0.998,-0.183,1974200
-0.006,0.052,0.997,-0.061,1974204
-0.006,0.052,0.997,-0.061,1974208
-0.006,0.052,0.997,-0.122,1974212
-0.006,0.052,0.999,-0.061,1974216
-0.006,0.052,0.999,-0.183,1974220
-0.005,0.054,0.998,-0.244,1974224
-0.005,0.054,0.998,-0.244,1974228
-0.005,0.054,0.998,-0.183,1974232
-0.003,0.055,0.998,-0.305,1974236
-0.003,0.055,0.998,-0.122,1974240
-0.003,0.053,1.002,-0.183,1974244
-0.003,0.053,1.002,-0.183,1974248
-0.003,0.053,1.002,-0.122,1974252
-0.003,0.054,1.0,-0.122,1974256
-0.003,0.054,1.0,-0.183,1974260
-0.003,0.052,0.997,-0.183,1974264
-0.003,0.052,0.997,-0.183,1974268
-0.003,0.052,0.997,-0.244,1974272
-0.001,0.053,0.999,-0.183,1974276
-0.001,0.053,0.999,-0.122,1974280
-0.002,0.053,1.002,-0.183,1974284
-0.002,0.053,1.002,-0.183,1974288
-0.002,0.053,1.002,-0.305,1974291
-0.001,0.052,1.001,-0.244,1974295
-0.001,0.052,1.001,-0.183,1974299
-0.001,0.05,1.0,-0.305,1974303
-0.001,0.05,1.0,-0.305,1974307
-0.001,0.05,1.0,-0.183,1974311
-0.002,0.05,1.0,-0.244,1974315
-0.002,0.05,1.0,-0.183,1974319
-0.004,0.05,1.001,-0.183,1974323
-0.004,0.05,1.001,-0.183,1974327
-0.004,0.05,1.001,-0.244,1974331
-0.005,0.05,1.0,-0.183,1974335
-0.005,0.05,1.0,-0.122,1974339
-0.004,0.052,1.0,-0.122,1974343
-0.004,0.052,1.0,-0.122,1974347
-0.004,0.052,1.0,-0.183,1974351
-0.005,0.051,1.0,-0.244,1974355
-0.005,0.051,1.0,-0.244,1974359
-0.005,0.052,0.999,-0.183,1974363
-0.005,0.052,0.999,-0.183,1974367
-0.005,0.052,0.999,-0.061,1974371
-0.005,0.052,1.001,-0.183,1974375
-0.005,0.052,1.001,-0.183,1974379
-0.006,0.053,1.0,-0.122,1974383
-0.006,0.053,1.0,-0.122,1974387
-0.006,0.053,1.0,-0.061,1974391
-0.006,0.055,0.999,-0.122,1974395
-0.006,0.055,0.999,-0.122,1974399
-0.007,0.057,0.997,-0.183,1974403
-0.007,0.057,0.997,-0.183,1974407
-0.007,0.057,0.997,-0.122,1974410
-0.006,0.055,0.998,-0.244,1974414
-0.006,0.055,0.998,-0.183,1974418
-0.007,0.056,0.998,-0.061,1974422
-0.007,0.056,0.998,-0.061,1974426
-0.007,0.056,0.998,-0.061,1974430
-0.007,0.058,0.999,-0.183,1974434
-0.007,0.058,0.999,-0.122,1974438
-0.006,0.059,0.998,-0.061,1974442
-0.006,0.059,0.998,-0.061,1974446
-0.006,0.059,0.998,-0.122,1974450
-0.006,0.058,0.996,-0.305,1974454
-0.006,0.058,0.996,-0.366,1974458
-0.008,0.058,0.998,-0.305,1974462
-0.008,0.058,0.998,-0.305,1974466
-0.008,0.058,0.998,-0.305,1974470
-0.007,0.057,0.998,-0.305,1974474
-0.007,0.057,0.998,-0.244,1974478
-0.003,0.053,0.985,-0.244,1974482
-0.003,0.053,0.985,-0.244,1974486
-0.003,0.053,0.985,-0.183,1974490
0.0,0.055,0.93,-0.244,1974494
0.0,0.055,0.93,-0.244,1974498
-0.0,0.062,0.991,-0.183,1974502
-0.0,0.062,0.991,-0.183,1974506
-0.0,0.062,0.991,-0.122,1974510
-0.01,0.061,1.15,-0.183,1974514
-0.01,0.061,1.15,-0.244,1974518
-0.013,0.056,1.036,-0.305,1974522
-0.013,0.056,1.036,-0.305,1974526
-0.013,0.056,1.036,-0.305,1974530
-0.005,0.051,0.887,-0.305,1974534
-0.005,0.051,0.887,-0.183,1974537
-0.0,0.043,0.99,-0.305,1974541
-0.0,0.043,0.99,-0.305,1974545
-0.0,0.043,0.99,-0.366,1974549
-0.0,0.044,1.036,-0.122,1974553
-0.0,0.044,1.036,-0.122,1974557
-0.003,0.048,0.991,-0.183,1974561
-0.003,0.048,0.991,-0.183,1974565
-0.003,0.048,0.991,-0.305,1974569
-0.003,0.05,0.999,-0.122,1974573
-0.003,0.05,0.999,-0.122,1974577
-0.007,0.05,1.003,-0.244,1974581
-0.007,0.05,1.003,-0.244,1974585
-0.007,0.05,1.003,-0.183,1974589
-0.005,0.051,0.988,-0.244,1974593
-0.005,0.051,0.988,-0.244,1974597
0.001,0.051,1.008,-0.366,1974601
0.001,0.051,1.008,-0.366,1974605
0.001,0.051,1.008,-0.305,1974609
0.003,0.051,1.002,-0.427,1974613
0.003,0.051,1.002,-0.366,1974617
0.0,0.051,1.001,-0.122,1974621
0.0,0.051,1.001,-0.122,1974625
0.0,0.051,1.001,-0.122,1974629
-0.005,0.053,0.999,-0.305,1974633
-0.005,0.053,0.999,-0.183,1974637
-0.009,0.056,0.99,-0.244,1974641
-0.009,0.056,0.99,-0.244,1974645
-0.009,0.056,0.99,-0.244,1974649
-0.012,0.056,1.001,-0.122,1974653
-0.012,0.056,1.001,-0.183,1974657
-0.009,0.055,0.996,-0.183,1974661
-0.009,0.055,0.996,-0.183,1974665
-0.009,0.055,0.996,-0.061,1974669
-0.007,0.058,0.999,-0.183,1974672
-0.007,0.058,0.999,-0.122,1974676
-0.008,0.059,1.004,-0.122,1974680
-0.008,0.059,1.004,-0.122,1974684
-0.008,0.059,1.004,-0.122,1974688
-0.01,0.06,0.999,-0.061,1974692
-0.01,0.06,0.999,-0.122,1974696
-0.012,0.059,0.984,-0.244,1974700
-0.012,0.059,0.984,-0.244,1974704
-0.012,0.059,0.984,-0.305,1974708
-0.012,0.059,1.001,-0.305,1974712
-0.012,0.059,1.001,-0.305,1974716
-0.007,0.056,1.006,-0.366,1974720
-0.007,0.056,1.006,-0.366,1974724
-0.007,0.056,1.006,-0.366,1974728
-0.001,0.052,0.997,-0.122,1974732
-0.001,0.052,0.997,-0.305,1974736
-0.0,0.051,0.997,-0.183,1974740
-0.0,0.051,0.997,-0.183,1974744
-0.0,0.051,0.997,-0.305,1974748
-0.002,0.052,0.999,-0.122,1974752
-0.002,0.052,0.999,-0.122,1974756
-0.003,0.054,1.004,-0.061,1974760
-0.003,0.054,1.004,-0.061,1974764
-0.003,0.054,1.004,-0.183,1974768
-0.005,0.053,1.001,-0.183,1974772
-0.005,0.053,1.001,-0.305,1974776
-0.003,0.05,1.0,-0.305,1974780
-0.003,0.05,1.0,-0.305,1974784
-0.003,0.05,1.0,-0.305,1974788
0.0,0.05,0.995,-0.122,1974792
0.0,0.05,0.995,-0.061,1974795
0.0,0.049,0.998,-0.183,1974799
0.0,0.049,0.998,-0.183,1974803
0.0,0.049,0.998,-0.183,1974807
-0.003,0.051,1.006,-0.244,1974811
-0.003,0.051,1.006,-0.305,1974815
-0.005,0.05,1.002,-0.366,1974819
-0.005,0.05,1.002,-0.366,1974823
-0.005,0.05,1.002,-0.305,1974827
-0.002,0.05,1.0,-0.305,1974831
-0.002,0.05,1.0,-0.183,1974835
-0.002,0.049,1.005,-0.244,1974839
-0.002,0.049,1.005,-0.244,1974843
-0.002,0.049,1.005,-0.122,1974847
0.001,0.049,1.0,-0.183,1974851
0.001,0.049,1.0,-0.122,1974855
-0.0,0.049,0.997,-0.122,1974859
-0.0,0.049,0.997,-0.122,1974863
-0.0,0.049,0.997,-0.122,1974867
-0.003,0.051,1.0,-0.122,1974871
-0.003,0.051,1.0,-0.122,1974875
-0.002,0.052,1.0,-0.061,1974879
-0.002,0.052,1.0,-0.061,1974883
-0.002,0.052,1.0,-0.244,1974887
-0.005,0.052,1.0,-0.183,1974891
-0.005,0.052,1.0,-0.122,1974895
-0.006,0.052,1.0,-0.122,1974899
-0.006,0.052,1.0,-0.122,1974903
-0.006,0.052,1.0,-0.244,1974907
-0.006,0.053,0.998,-0.183,1974911
-0.006,0.053,0.998,-0.122,1974914
-0.005,0.054,1.0,-0.244,1974918
-0.005,0.054,1.0,-0.244,1974922
-0.005,0.054,1.0,-0.244,1974926
-0.008,0.054,0.999,-0.183,1974930
-0.008,0.054,0.999,-0.061,1974934
-0.01,0.054,0.998,-0.183,1974938
-0.01,0.054,0.998,-0.183,1974942
-0.01,0.054,0.998,-0.244,1974946
-0.012,0.054,0.996,-0.244,1974950
-0.012,0.054,0.996,-0.183,1974954
-0.008,0.056,0.999,-0.244,1974958
-0.008,0.056,0.999,-0.244,1974962
-0.008,0.056,0.999,-0.244,1974966
-0.005,0.056,1.0,-0.122,1974970
-0.005,0.056,1.0,-0.122,1974974
-0.004,0.055,0.997,-0.061,1974978
-0.004,0.055,0.997,-0.061,1974982
-0.004,0.055,0.997,-0.122,1974986
-0.004,0.057,0.996,-0.244,1974990
-0.004,0.057,0.996,-0.366,1974994
-0.006,0.058,1.0,-0.305,1974998
-0.006,0.058,1.0,-0.305,1975002
-0.006,0.058,1.0,-0.305,1975006
-0.004,0.056,1.001,-0.305,1975010
-0.004,0.056,1.001,-0.366,1975014
-0.003,0.055,1.0,-0.305,1975018
-0.003,0.055,1.0,-0.305,1975022
-0.003,0.055,1.0,-0.244,1975026
-0.002,0.052,0.998,-0.183,1975030
-0.002,0.052,0.998,-0.122,1975034
-0.002,0.05,0.999,-0.366,1975038
-0.002,0.05,0.999,-0.366,1975042
-0.002,0.05,0.999,-0.244,1975045
-0.002,0.051,1.0,-0.183,1975049
-0.002,0.051,1.0,-0.244,1975053
-0.005,0.051,1.002,-0.244,1975057
-0.005,0.051,1.002,-0.244,1975061
-0.005,0.051,1.002,-0.183,1975065
-0.004,0.049,0.997,-0.244,1975069
-0.004,0.049,0.997,-0.244,1975073
-0.004,0.049,0.998,-0.183,1975077
-0.004,0.049,0.998,-0.183,1975081
-0.004,0.049,0.998,-0.244,1975085
-0.002,0.05,0.999,-0.183,1975089
-0.002,0.05,0.999,-0.183,1975093
0.001,0.051,1.0,-0.122,1975097
0.001,0.051,1.0,-0.122,1975101
0.001,0.051,1.0,-0.122,1975105
-0.001,0.052,1.0,-0.183,1975109
-0.001,0.052,1.0,-0.183,1975113
-0.002,0.052,0.999,-0.244,1975117
-0.002,0.052,0.999,-0.244,1975121
-0.002,0.052,0.999,-0.244,1975125
-0.003,0.053,1.001,-0.183,1975129
-0.003,0.053,1.001,-0.183,1975133
-0.004,0.053,1.0,-0.122,1975137
-0.004,0.053,1.0,-0.122,1975141
-0.004,0.053,1.0,-0.244,1975145
-0.002,0.052,1.0,-0.183,1975149
-0.002,0.052,1.0,-0.122,1975153
-0.001,0.053,0.999,-0.183,1975157
-0.001,0.053,0.999,-0.183,1975161
-0.001,0.053,0.999,-0.183,1975165
-0.004,0.055,0.998,-0.183,1975168
-0.004,0.055,0.998,-0.305,1975172
-0.005,0.054,0.999,-0.244,1975176
-0.005,0.054,0.999,-0.244,1975180
-0.005,0.054,0.999,-0.122,1975184
-0.005,0.055,0.999,-0.183,1975188
-0.005,0.055,0.999,-0.366,1975192
-0.007,0.055,0.999,-0.244,1975196
-0.007,0.055,0.999,-0.244,1975200
-0.007,0.055,0.999,-0.183,1975204
-0.007,0.055,0.997,-0.122,1975208
-0.007,0.055,0.997,-0.183,1975212
-0.005,0.055,0.999,-0.244,1975216
-0.005,0.055,0.999,-0.244,1975220
-0.005,0.055,0.999,-0.305,1975224
-0.007,0.054,1.0,-0.244,1975228
-0.007,0.054,1.0,-0.305,1975232
-0.006,0.054,0.997,-0.244,1975236
-0.006,0.054,0.997,-0.244,1975240
-0.006,0.054,0.997,-0.183,1975244
