Acc_X,Acc_Y,Acc_Z,Rot_Z,Millis
-0.003,0.052,1.001,-0.183,1840928
-0.003,0.052,1.001,-0.122,1840932
-0.003,0.052,0.999,-0.122,1840936
-0.003,0.052,0.999,-0.244,1840940
-0.004,0.051,0.998,-0.183,1840944
-0.004,0.051,0.998,-0.183,1840947
-0.004,0.051,0.998,-0.183,1840951
-0.004,0.051,0.999,-0.183,1840955
-0.004,0.051,0.999,-0.244,1840959
-0.004,0.052,0.999,-0.244,1840963
-0.004,0.052,0.999,-0.244,1840967
-0.004,0.052,0.999,-0.183,1840971
-0.003,0.053,0.999,-0.244,1840975
-0.003,0.053,0.999,-0.183,1840979
-0.003,0.053,1.0,-0.122,1840983
-0.003,0.053,1.0,-0.122,1840987
-0.003,0.053,1.0,-0.183,1840991
-0.003,0.052,0.999,-0.244,1840995
-0.003,0.052,0.999,-0.244,1840999
-0.002,0.053,0.998,-0.183,1841003
-0.002,0.053,0.998,-0.183,1841007
-0.002,0.053,0.998,-0.183,1841011
-0.003,0.053,0.999,-0.244,1841015
-0.003,0.053,0.999,-0.122,1841019
-0.005,0.052,1.001,-0.122,1841023
-0.005,0.052,1.001,-0.122,1841027
-0.005,0.052,1.001,-0.183,1841031
-0.005,0.052,0.999,-0.244,1841035
-0.005,0.052,0.999,-0.122,1841039
-0.004,0.051,0.999,-0.122,1841043
-0.004,0.051,0.999,-0.122,1841047
-0.004,0.051,0.999,-0.183,1841051
-0.003,0.051,1.0,-0.061,1841055
-0.003,0.051,1.0,-0.061,1841059
-0.002,0.051,0.999,-0.122,1841063
-0.002,0.051,0.999,-0.122,1841067
-0.002,0.051,0.999,-0.244,1841071
-0.003,0.052,0.999,-0.244,1841075
-0.003,0.052,0.999,-0.122,1841079
-0.003,0.052,0.999,-0.244,1841083
-0.003,0.052,0.999,-0.244,1841086
-0.003,0.052,0.999,-0.244,1841090
-0.005,0.051,1.0,-0.305,1841094
-0.005,0.051,1.0,-0.183,1841098
-0.005,0.053,0.999,-0.122,1841102
-0.005,0.053,0.999,-0.122,1841106
-0.005,0.053,0.999,-0.122,1841110
-0.004,0.053,0.999,-0.122,1841114
-0.004,0.053,0.999,-0.061,1841118
-0.004,0.05,1.001,-0.183,1841122
-0.004,0.05,1.001,-0.183,1841126
-0.004,0.05,1.001,-0.183,1841130
-0.004,0.052,1.0,0.0,1841134
-0.004,0.052,1.0,-0.183,1841138
-0.004,0.052,1.0,-0.244,1841142
-0.004,0.052,1.0,-0.244,1841146
-0.004,0.052,1.0,-0.122,1841150
-0.004,0.051,0.999,-0.183,1841154
-0.004,0.051,0.999,-0.122,1841158
-0.002,0.052,0.998,-0.122,1841162
-0.002,0.052,0.998,-0.122,1841166
-0.002,0.052,0.998,-0.244,1841170
-0.002,0.053,0.999,-0.244,1841174
-0.002,0.053,0.999,-0.183,1841178
-0.003,0.053,0.998,-0.183,1841182
-0.003,0.053,0.998,-0.183,1841186
-0.003,0.053,0.998,-0.183,1841190
-0.002,0.051,0.998,-0.244,1841193
-0.002,0.051,0.998,-0.061,1841197
-0.003,0.052,0.999,-0.244,1841201
-0.003,0.052,0.999,-0.244,1841205
-0.003,0.052,0.999,-0.122,1841209
-0.003,0.051,1.0,-0.183,1841213
-0.003,0.051,1.0,-0.122,1841217
-0.005,0.051,1.0,-0.122,1841221
-0.005,0.051,1.0,-0.122,1841225
-0.005,0.051,1.0,-0.244,1841229
-0.003,0.052,0.999,-0.244,1841233
-0.003,0.052,0.999,-0.244,1841237
-0.004,0.052,0.999,-0.183,1841241
-0.004,0.052,0.999,-0.183,1841245
-0.004,0.052,0.999,-0.183,1841249
-0.003,0.051,1.0,-0.183,1841253
-0.003,0.051,1.0,-0.244,1841257
-0.002,0.051,1.0,-0.183,1841261
-0.002,0.051,1.0,-0.183,1841265
-0.002,0.051,1.0,-0.244,1841269
-0.002,0.052,0.997,-0.183,1841273
-0.002,0.052,0.997,-0.244,1841277
-0.002,0.051,0.999,-0.244,1841281
-0.002,0.051,0.999,-0.244,1841285
-0.002,0.051,0.999,-0.244,1841289
-0.005,0.053,0.999,-0.122,1841293
-0.005,0.053,0.999,-0.244,1841297
-0.004,0.052,0.998,-0.183,1841301
-0.004,0.052,0.998,-0.183,1841305
-0.004,0.052,0.998,-0.061,1841309
-0.003,0.051,0.998,-0.183,1841313
-0.003,0.051,0.998,-0.183,1841317
-0.002,0.052,0.998,-0.122,1841321
-0.002,0.052,0.998,-0.122,1841324
-0.002,0.052,0.998,-0.122,1841328
-0.003,0.053,1.0,-0.244,1841332
-0.003,0.053,1.0,-0.183,1841336
-0.003,0.053,1.0,-0.244,1841340
-0.003,0.053,1.0,-0.244,1841344
-0.003,0.053,1.0,-0.305,1841348
-0.002,0.053,0.999,-0.244,1841352
-0.002,0.053,0.999,-0.122,1841356
-0.003,0.052,0.999,-0.183,1841360
-0.003,0.052,0.999,-0.183,1841364
-0.003,0.052,0.999,-0.061,1841368
-0.003,0.052,1.0,-0.183,1841372
-0.003,0.052,1.0,-0.183,1841376
-0.004,0.052,0.998,-0.122,1841380
-0.004,0.052,0.998,-0.122,1841384
-0.004,0.052,0.998,-0.183,1841388
-0.004,0.052,1.0,-0.183,1841392
-0.004,0.052,1.0,-0.183,1841396
-0.004,0.052,1.0,-0.122,1841400
-0.004,0.052,1.0,-0.122,1841404
-0.004,0.052,1.0,-0.183,1841408
-0.004,0.052,0.998,-0.183,1841412
-0.004,0.052,0.998,-0.244,1841416
-0.005,0.051,1.0,-0.183,1841420
-0.005,0.051,1.0,-0.183,1841424
-0.005,0.051,1.0,-0.183,1841428
-0.003,0.052,0.999,-0.244,1841432
-0.003,0.052,0.999,-0.244,1841436
-0.003,0.052,0.999,-0.183,1841440
-0.003,0.052,0.999,-0.183,1841444
-0.003,0.052,0.999,-0.183,1841448
-0.006,0.052,0.998,-0.305,1841452
-0.006,0.052,0.998,-0.061,1841455
-0.004,0.052,0.999,-0.061,1841459
-0.004,0.052,0.999,-0.061,1841463
-0.004,0.052,0.999,-0.244,1841467
-0.003,0.053,1.001,-0.305,1841471
-0.003,0.053,1.001,-0.183,1841475
-0.004,0.053,1.0,-0.183,1841479
-0.004,0.053,1.0,-0.183,1841483
-0.004,0.053,1.0,-0.244,1841487
-0.004,0.052,1.001,-0.244,1841491
-0.004,0.052,1.001,-0.122,1841495
-0.005,0.052,1.0,-0.183,1841499
-0.005,0.052,1.0,-0.183,1841503
-0.005,0.052,1.0,-0.061,1841507
-0.005,0.052,0.998,-0.122,1841511
-0.005,0.052,0.998,-0.183,1841515
-0.004,0.053,1.0,-0.183,1841519
-0.004,0.053,1.0,-0.183,1841523
-0.004,0.053,1.0,-0.244,1841527
-0.002,0.052,1.0,-0.244,1841531
-0.002,0.052,1.0,-0.183,1841535
-0.002,0.052,1.0,-0.305,1841539
-0.002,0.052,1.0,-0.305,1841543
-0.002,0.052,1.0,-0.244,1841547
-0.003,0.052,1.0,-0.244,1841551
-0.003,0.052,1.0,-0.305,1841555
-0.003,0.052,0.999,-0.183,1841559
-0.003,0.052,0.999,-0.183,1841563
-0.003,0.052,0.999,-0.183,1841567
-0.005,0.052,0.997,-0.244,1841571
-0.005,0.052,0.997,-0.305,1841575
-0.001,0.051,0.998,-0.244,1841578
-0.001,0.051,0.998,-0.244,1841582
-0.001,0.051,0.998,-0.244,1841586
-0.002,0.051,0.998,-0.122,1841590
-0.002,0.051,0.998,-0.061,1841594
-0.004,0.052,1.0,-0.183,1841598
-0.004,0.052,1.0,-0.183,1841602
-0.004,0.052,1.0,-0.183,1841606
-0.003,0.052,1.0,-0.244,1841610
-0.003,0.052,1.0,-0.122,1841614
-0.004,0.051,1.0,-0.244,1841618
-0.004,0.051,1.0,-0.244,1841622
-0.004,0.051,1.0,-0.244,1841626
-0.005,0.052,0.999,-0.183,1841630
-0.005,0.052,0.999,-0.183,1841634
-0.004,0.052,0.999,-0.183,1841638
-0.004,0.052,0.999,-0.183,1841642
-0.004,0.052,0.999,-0.244,1841646
-0.003,0.052,1.0,-0.183,1841650
-0.003,0.052,1.0,-0.061,1841654
-0.004,0.053,0.998,-0.183,1841658
-0.004,0.053,0.998,-0.183,1841662
-0.004,0.053,0.998,-0.305,1841666
-0.004,0.052,0.999,-0.244,1841670
-0.004,0.052,0.999,-0.122,1841674
-0.002,0.051,1.0,-0.122,1841678
-0.002,0.051,1.0,-0.122,1841682
-0.002,0.051,1.0,-0.122,1841686
-0.004,0.053,1.001,-0.244,1841690
-0.004,0.053,1.001,-0.244,1841694
-0.005,0.052,0.999,-0.244,1841698
-0.005,0.052,0.999,-0.244,1841702
-0.005,0.052,0.999,-0.305,1841706
-0.004,0.051,0.999,-0.183,1841709
-0.004,0.051,0.999,-0.244,1841713
-0.004,0.052,1.001,-0.427,1841717
-0.004,0.052,1.001,-0.427,1841721
-0.004,0.052,1.001,-0.305,1841725
-0.003,0.053,0.996,-0.305,1841729
-0.003,0.053,0.996,-0.305,1841733
-0.002,0.054,0.998,-0.244,1841737
-0.002,0.054,0.998,-0.244,1841741
-0.002,0.054,0.998,-0.122,1841745
-0.002,0.051,0.998,-0.183,1841749
-0.002,0.051,0.998,-0.183,1841753
-0.005,0.052,0.998,-0.183,1841757
-0.005,0.052,0.998,-0.183,1841761
-0.005,0.052,0.998,-0.183,1841765
-0.005,0.053,0.999,-0.244,1841769
-0.005,0.053,0.999,-0.183,1841773
-0.004,0.053,0.999,-0.122,1841777
-0.004,0.053,0.999,-0.122,1841781
-0.004,0.053,0.999,-0.122,1841785
-0.002,0.053,0.998,-0.183,1841789
-0.002,0.053,0.998,-0.183,1841793
-0.004,0.051,0.999,-0.061,1841797
-0.004,0.051,0.999,-0.061,1841801
-0.004,0.051,0.999,-0.183,1841805
-0.003,0.053,0.999,-0.061,1841809
-0.003,0.053,0.999,-0.183,1841813
-0.005,0.052,1.0,-0.244,1841817
-0.005,0.052,1.0,-0.244,1841821
-0.005,0.052,1.0,-0.122,1841825
-0.002,0.052,0.999,-0.244,1841829
-0.002,0.052,0.999,-0.183,1841833
-0.001,0.052,1.0,-0.244,1841837
-0.001,0.052,1.0,-0.244,1841841
-0.001,0.052,1.0,-0.244,1841844
-0.002,0.052,1.0,-0.244,1841848
-0.002,0.052,1.0,-0.305,1841852
-0.003,0.053,0.999,-0.244,1841856
-0.003,0.053,0.999,-0.244,1841860
-0.003,0.053,0.999,-0.183,1841864
-0.004,0.053,1.0,-0.183,1841868
-0.004,0.053,1.0,-0.244,1841872
-0.002,0.052,0.999,-0.122,1841876
-0.002,0.052,0.999,-0.122,1841880
-0.002,0.052,0.999,-0.061,1841884
-0.003,0.052,0.999,-0.122,1841888
-0.003,0.052,0.999,-0.122,1841892
-0.004,0.052,1.0,-0.305,1841896
-0.004,0.052,1.0,-0.305,1841900
-0.004,0.052,1.0,-0.305,1841904
-0.003,0.052,0.998,-0.366,1841908
-0.003,0.052,0.998,-0.183,1841912
-0.002,0.053,0.999,-0.244,1841916
-0.002,0.053,0.999,-0.244,1841920
-0.002,0.053,0.999,-0.305,1841924
-0.005,0.052,0.998,-0.183,1841928
-0.005,0.052,0.998,-0.122,1841932
-0.005,0.052,0.997,-0.061,1841936
-0.005,0.052,0.997,-0.061,1841940
-0.005,0.052,0.997,-0.183,1841944
-0.002,0.052,0.998,-0.122,1841948
-0.002,0.052,0.998,-0.122,1841952
-0.005,0.053,0.998,-0.061,1841956
-0.005,0.053,0.998,-0.061,1841960
-0.005,0.053,0.998,-0.183,1841964
-0.004,0.053,0.998,-0.244,1841968
-0.004,0.053,0.998,-0.122,1841972
-0.004,0.054,0.999,-0.305,1841976
-0.004,0.054,0.999,-0.244,1841979
-0.004,0.054,0.999,-0.244,1841983
-0.002,0.052,0.999,-0.244,1841987
-0.002,0.052,0.999,-0.183,1841991
-0.003,0.052,0.999,-0.244,1841995
-0.003,0.052,0.999,-0.122,1841999
-0.003,0.052,0.999,-0.122,1842003
-0.005,0.054,0.999,-0.183,1842007
-0.005,0.054,0.999,-0.183,1842011
-0.003,0.053,0.999,-0.244,1842015
-0.003,0.053,0.999,-0.183,1842019
-0.003,0.053,0.999,-0.183,1842023
-0.003,0.052,0.999,-0.183,1842027
-0.003,0.052,0.999,-0.122,1842031
-0.002,0.052,1.0,-0.183,1842035
-0.002,0.052,1.0,-0.183,1842039
-0.002,0.052,1.0,-0.061,1842043
-0.004,0.052,0.999,-0.061,1842047
-0.004,0.052,0.999,-0.183,1842051
-0.003,0.054,0.999,-0.122,1842055
-0.003,0.054,0.999,-0.122,1842059
-0.003,0.054,0.999,-0.183,1842063
-0.003,0.053,0.998,-0.244,1842067
-0.003,0.053,0.998,-0.122,1842071
-0.003,0.052,1.0,-0.183,1842075
-0.003,0.052,1.0,-0.183,1842079
-0.003,0.052,1.0,-0.122,1842083
-0.002,0.052,1.0,-0.183,1842087
-0.002,0.052,1.0,-0.183,1842091
-0.004,0.052,0.998,-0.122,1842095
-0.004,0.052,0.998,-0.183,1842099
-0.004,0.052,0.998,-0.183,1842102
-0.004,0.052,0.999,-0.244,1842106
-0.004,0.052,0.999,-0.122,1842110
-0.003,0.051,1.0,-0.122,1842114
-0.003,0.051,1.0,-0.183,1842118
-0.003,0.051,1.0,-0.183,1842122
-0.003,0.051,1.0,-0.183,1842126
-0.003,0.051,1.0,-0.244,1842130
-0.005,0.052,0.999,-0.183,1842134
-0.005,0.052,0.999,-0.183,1842138
-0.005,0.052,0.999,-0.183,1842142
-0.003,0.052,0.998,-0.305,1842146
-0.003,0.052,0.998,-0.183,1842150
-0.003,0.052,1.0,-0.244,1842154
-0.003,0.052,1.0,-0.183,1842158
-0.003,0.052,1.0,-0.183,1842162
-0.002,0.052,1.0,-0.366,1842166
-0.002,0.052,1.0,-0.305,1842170
-0.004,0.052,1.0,-0.183,1842174
-0.004,0.052,1.0,-0.183,1842178
-0.004,0.052,1.0,-0.183,1842182
-0.003,0.054,0.998,-0.244,1842186
-0.003,0.054,0.998,-0.183,1842190
-0.004,0.052,0.999,-0.183,1842194
-0.004,0.052,0.999,-0.122,1842198
-0.004,0.052,0.999,-0.122,1842202
-0.004,0.053,1.0,-0.244,1842206
-0.004,0.053,1.0,-0.244,1842210
-0.005,0.052,1.0,-0.122,1842214
-0.005,0.052,1.0,-0.122,1842218
-0.005,0.052,1.0,-0.122,1842222
-0.005,0.052,0.999,-0.122,1842226
-0.005,0.052,0.999,-0.183,1842230
-0.005,0.052,0.998,-0.244,1842234
-0.005,0.052,0.998,-0.305,1842238
-0.005,0.052,0.998,-0.305,1842241
-0.004,0.053,1.0,-0.244,1842245
-0.004,0.053,1.0,-0.183,1842249
-0.004,0.052,1.0,-0.244,1842253
-0.004,0.052,1.0,-0.244,1842257
-0.004,0.052,1.0,-0.244,1842261
-0.003,0.053,1.0,-0.305,1842265
-0.003,0.053,1.0,-0.183,1842269
-0.005,0.053,1.0,-0.122,1842273
-0.005,0.053,1.0,-0.183,1842277
-0.005,0.053,1.0,-0.183,1842281
-0.004,0.052,1.0,-0.183,1842285
-0.004,0.052,1.0,-0.183,1842289
-0.003,0.053,0.999,-0.183,1842293
-0.003,0.053,0.999,-0.244,1842297
-0.003,0.053,0.999,-0.244,1842301
-0.003,0.054,1.0,-0.183,1842305
-0.003,0.054,1.0,-0.122,1842309
-0.005,0.052,0.999,-0.244,1842313
-0.005,0.052,0.999,-0.244,1842317
-0.005,0.052,0.999,-0.244,1842321
-0.003,0.052,1.0,-0.122,1842325
-0.003,0.052,1.0,-0.183,1842329
-0.003,0.051,1.001,-0.244,1842333
-0.003,0.051,1.001,-0.061,1842337
-0.003,0.051,1.001,-0.061,1842341
-0.004,0.052,1.0,-0.061,1842345
-0.004,0.052,1.0,-0.244,1842349
-0.003,0.052,0.998,-0.183,1842353
-0.003,0.052,0.998,-0.244,1842357
-0.003,0.052,0.998,-0.244,1842361
-0.003,0.052,0.999,-0.244,1842365
-0.003,0.052,0.999,-0.183,1842369
-0.005,0.053,0.997,-0.244,1842373
-0.005,0.053,0.997,-0.244,1842376
-0.005,0.053,0.997,-0.244,1842380
-0.006,0.052,0.999,-0.183,1842384
-0.006,0.052,0.999,-0.244,1842388
-0.004,0.052,0.999,-0.305,1842392
-0.004,0.052,0.999,-0.244,1842396
-0.004,0.052,0.999,-0.244,1842400
-0.003,0.053,0.997,-0.122,1842404
-0.003,0.053,0.997,-0.244,1842408
-0.003,0.052,0.998,-0.244,1842412
-0.003,0.052,0.998,-0.183,1842416
-0.003,0.052,0.998,-0.183,1842420
-0.004,0.053,1.0,-0.122,1842424
-0.004,0.053,1.0,-0.061,1842428
-0.004,0.053,1.0,-0.122,1842432
-0.004,0.053,1.0,-0.305,1842436
-0.004,0.053,1.0,-0.305,1842440
-0.005,0.053,1.0,-0.244,1842444
-0.005,0.053,1.0,-0.122,1842448
-0.004,0.052,0.999,-0.122,1842452
-0.004,0.052,0.999,-0.183,1842456
-0.004,0.052,0.999,-0.183,1842460
-0.002,0.052,0.999,-0.244,1842464
-0.002,0.052,0.999,-0.122,1842468
-0.003,0.052,0.998,-0.122,1842472
-0.003,0.052,0.998,-0.122,1842476
-0.003,0.052,0.998,-0.122,1842480
-0.003,0.052,1.0,0.0,1842484
-0.003,0.052,1.0,-0.122,1842488
-0.002,0.053,0.999,-0.183,1842492
-0.002,0.053,0.999,-0.183,1842496
-0.002,0.053,0.999,-0.183,1842500
-0.002,0.052,1.0,-0.183,1842503
-0.002,0.052,1.0,-0.244,1842507
-0.002,0.051,0.998,-0.061,1842511
-0.002,0.051,0.998,-0.122,1842515
-0.002,0.051,0.998,-0.122,1842519
-0.003,0.053,0.999,-0.061,1842523
-0.003,0.053,0.999,-0.122,1842527
-0.005,0.053,0.998,-0.183,1842531
-0.005,0.053,0.998,-0.183,1842535
-0.005,0.053,0.998,-0.183,1842539
-0.004,0.052,0.999,-0.305,1842543
-0.004,0.052,0.999,-0.183,1842547
-0.003,0.052,1.001,-0.122,1842551
-0.003,0.052,1.001,-0.122,1842555
-0.003,0.052,1.001,-0.122,1842559
-0.005,0.051,1.0,-0.183,1842563
-0.005,0.051,1.0,-0.122,1842567
-0.003,0.051,0.998,-0.183,1842571
-0.003,0.051,0.998,-0.244,1842575
-0.003,0.051,0.998,-0.244,1842579
-0.003,0.052,0.998,-0.183,1842583
-0.003,0.052,0.998,-0.061,1842587
-0.003,0.052,1.0,-0.244,1842591
-0.003,0.052,1.0,-0.183,1842595
-0.003,0.052,1.0,-0.183,1842599
-0.005,0.052,1.001,-0.122,1842603
-0.005,0.052,1.001,-0.183,1842607
-0.003,0.054,1.0,-0.244,1842611
-0.003,0.054,1.0,-0.183,1842615
-0.003,0.054,1.0,-0.183,1842619
-0.005,0.051,1.0,-0.183,1842623
-0.005,0.051,1.0,-0.183,1842627
-0.004,0.053,0.999,-0.244,1842631
-0.004,0.053,0.999,-0.183,1842635
-0.004,0.053,0.999,-0.183,1842639
-0.004,0.053,0.999,-0.061,1842642
-0.004,0.053,0.999,-0.183,1842646
-0.004,0.051,0.997,-0.183,1842650
-0.004,0.051,0.997,-0.244,1842654
-0.004,0.051,0.997,-0.244,1842658
-0.005,0.052,0.997,-0.183,1842662
-0.005,0.052,0.997,-0.244,1842666
-0.003,0.052,1.0,-0.244,1842670
-0.003,0.052,1.0,-0.183,1842674
-0.003,0.052,1.0,-0.183,1842678
-0.003,0.051,1.0,-0.427,1842682
-0.003,0.051,1.0,-0.061,1842686
-0.004,0.053,0.999,0.061,1842690
-0.004,0.053,0.999,-0.244,1842694
-0.004,0.053,0.999,-0.244,1842698
-0.004,0.052,0.998,-0.305,1842702
-0.004,0.052,0.998,-0.305,1842706
-0.005,0.051,0.999,-0.183,1842710
-0.005,0.051,0.999,-0.244,1842714
-0.005,0.051,0.999,-0.244,1842718
-0.005,0.053,0.997,-0.244,1842722
-0.005,0.053,0.997,-0.244,1842726
-0.004,0.053,1.0,-0.305,1842730
-0.004,0.053,1.0,-0.061,1842734
-0.004,0.053,1.0,-0.061,1842738
-0.005,0.052,1.001,-0.183,1842742
-0.005,0.052,1.001,-0.244,1842746
-0.004,0.051,0.998,-0.244,1842750
-0.004,0.051,0.998,-0.244,1842754
-0.004,0.051,0.998,-0.244,1842758
-0.001,0.052,0.999,-0.122,1842762
-0.001,0.052,0.999,-0.183,1842766
-0.002,0.053,0.999,-0.183,1842770
-0.002,0.053,0.999,-0.183,1842774
-0.002,0.053,0.999,-0.183,1842778
-0.005,0.052,1.0,-0.183,1842781
-0.005,0.052,1.0,-0.305,1842785
-0.003,0.052,0.999,-0.244,1842789
-0.003,0.052,0.999,-0.244,1842793
-0.003,0.052,0.999,-0.244,1842797
-0.001,0.052,1.0,-0.244,1842801
-0.001,0.052,1.0,-0.244,1842805
-0.003,0.052,1.0,-0.061,1842809
-0.003,0.052,1.0,-0.183,1842813
-0.003,0.052,1.0,-0.183,1842817
-0.003,0.051,1.0,-0.122,1842821
-0.003,0.051,1.0,-0.122,1842825
-0.004,0.053,1.001,-0.244,1842829
-0.004,0.053,1.001,-0.244,1842833
-0.004,0.053,1.001,-0.244,1842837
-0.006,0.052,1.001,-0.305,1842841
-0.006,0.052,1.001,0.0,1842845
-0.004,0.052,0.997,-0.122,1842849
-0.004,0.052,0.997,-0.183,1842853
-0.004,0.052,0.997,-0.183,1842857
-0.004,0.052,0.999,-0.305,1842861
-0.004,0.052,0.999,-0.244,1842865
-0.003,0.053,0.999,-0.183,1842869
-0.003,0.053,0.999,-0.061,1842873
-0.003,0.053,0.999,-0.061,1842877
-0.004,0.053,0.998,-0.183,1842881
-0.004,0.053,0.998,-0.244,1842885
-0.004,0.053,1.0,-0.122,1842889
-0.004,0.053,1.0,-0.244,1842893
-0.004,0.053,1.0,-0.244,1842897
-0.002,0.053,1.0,-0.305,1842900
-0.002,0.053,1.0,-0.122,1842904
-0.004,0.052,0.999,-0.183,1842908
-0.004,0.052,0.999,-0.183,1842912
-0.004,0.052,0.999,-0.183,1842916
-0.004,0.052,1.001,-0.122,1842920
-0.004,0.052,1.001,-0.183,1842924
-0.002,0.053,0.999,-0.305,1842928
-0.002,0.053,0.999,-0.244,1842932
-0.002,0.053,0.999,-0.244,1842936
-0.002,0.052,0.999,-0.183,1842940
-0.002,0.052,0.999,-0.122,1842944
-0.003,0.054,0.996,-0.244,1842948
-0.003,0.054,0.996,-0.122,1842952
-0.003,0.054,0.996,-0.122,1842956
-0.005,0.053,0.998,-0.122,1842960
-0.005,0.053,0.998,-0.244,1842964
-0.003,0.052,1.0,-0.122,1842968
-0.003,0.052,1.0,-0.122,1842972
-0.003,0.052,1.0,-0.122,1842976
-0.003,0.053,1.0,-0.183,1842980
-0.003,0.053,1.0,-0.244,1842984
-0.001,0.053,0.999,-0.244,1842988
-0.001,0.053,0.999,-0.183,1842992
-0.001,0.053,0.999,-0.183,1842996
-0.002,0.052,0.999,-0.122,1843000
-0.002,0.052,0.999,-0.244,1843004
-0.004,0.052,0.999,-0.122,1843008
-0.004,0.052,0.999,-0.061,1843012
-0.004,0.052,0.999,-0.061,1843016
-0.005,0.053,0.998,-0.122,1843020
-0.005,0.053,0.998,-0.122,1843024
-0.005,0.052,0.998,-0.183,1843028
-0.005,0.052,0.998,-0.244,1843032
-0.005,0.052,0.998,-0.244,1843036
-0.002,0.052,0.999,-0.183,1843040
-0.002,0.052,0.999,-0.183,1843044
-0.001,0.053,1.0,-0.305,1843048
-0.001,0.053,1.0,-0.183,1843051
-0.001,0.053,1.0,-0.183,1843055
-0.004,0.052,1.001,-0.183,1843059
-0.004,0.052,1.001,-0.183,1843063
-0.005,0.051,1.0,-0.183,1843067
-0.005,0.051,1.0,-0.183,1843071
-0.005,0.051,1.0,-0.183,1843075
-0.003,0.053,0.999,-0.244,1843079
-0.003,0.053,0.999,-0.244,1843083
-0.004,0.052,0.998,-0.183,1843087
-0.004,0.052,0.998,-0.122,1843091
-0.004,0.052,0.998,-0.122,1843095
-0.004,0.054,0.999,-0.305,1843099
-0.004,0.054,0.999,-0.183,1843103
-0.003,0.054,0.999,-0.183,1843107
-0.003,0.054,0.999,-0.427,1843111
-0.003,0.054,0.999,-0.427,1843115
-0.003,0.054,0.998,-0.305,1843119
-0.003,0.054,0.998,-0.122,1843123
-0.005,0.052,0.999,-0.183,1843127
-0.005,0.052,0.999,-0.244,1843131
-0.005,0.052,0.999,-0.244,1843135
-0.004,0.052,1.0,-0.244,1843139
-0.004,0.052,1.0,-0.183,1843143
-0.002,0.054,1.0,-0.244,1843147
-0.002,0.054,1.0,-0.244,1843151
-0.002,0.054,1.0,-0.244,1843155
-0.004,0.051,1.0,-0.244,1843159
-0.004,0.051,1.0,-0.122,1843163
-0.005,0.052,1.0,-0.061,1843167
-0.005,0.052,1.0,-0.244,1843171
-0.005,0.052,1.0,-0.244,1843175
-0.004,0.051,1.0,-0.183,1843178
-0.004,0.051,1.0,-0.183,1843182
-0.004,0.052,1.0,-0.122,1843186
-0.004,0.052,1.0,-0.183,1843190
-0.004,0.052,1.0,-0.183,1843194
-0.003,0.053,0.999,-0.183,1843198
-0.003,0.053,0.999,-0.122,1843202
-0.003,0.05,0.999,-0.244,1843206
-0.003,0.05,0.999,-0.122,1843210
-0.003,0.05,0.999,-0.122,1843214
-0.003,0.051,0.997,-0.122,1843218
-0.003,0.051,0.997,-0.244,1843222
-0.002,0.052,0.999,-0.061,1843226
-0.002,0.052,0.999,-0.183,1843230
-0.002,0.052,0.999,-0.183,1843234
-0.004,0.051,0.998,-0.183,1843238
-0.004,0.051,0.998,-0.244,1843242
-0.005,0.053,0.999,-0.183,1843246
-0.005,0.053,0.999,-0.183,1843250
-0.005,0.053,0.999,-0.183,1843254
-0.004,0.053,0.999,-0.244,1843258
-0.004,0.053,0.999,-0.183,1843262
-0.004,0.052,0.998,-0.183,1843266
-0.004,0.052,0.998,-0.366,1843270
-0.004,0.052,0.998,-0.366,1843274
-0.002,0.052,0.998,-0.244,1843278
-0.002,0.052,0.998,-0.183,1843282
-0.004,0.053,0.998,0.0,1843286
-0.004,0.053,0.998,-0.183,1843290
-0.004,0.053,0.998,-0.183,1843294
-0.003,0.052,0.997,-0.122,1843298
-0.003,0.052,0.997,-0.305,1843302
-0.002,0.052,0.999,-0.183,1843305
-0.002,0.052,0.999,-0.122,1843309
-0.002,0.052,0.999,-0.122,1843313
-0.003,0.053,0.999,-0.183,1843317
-0.003,0.053,0.999,-0.244,1843321
-0.003,0.051,0.998,-0.244,1843325
-0.003,0.051,0.998,-0.183,1843329
-0.003,0.051,0.998,-0.183,1843333
-0.004,0.051,0.998,-0.061,1843337
-0.004,0.051,0.998,-0.061,1843341
-0.003,0.051,0.999,-0.122,1843345
-0.003,0.051,0.999,-0.183,1843349
-0.003,0.051,0.999,-0.183,1843353
-0.004,0.051,1.001,-0.183,1843357
-0.004,0.051,1.001,-0.244,1843361
-0.004,0.05,0.998,-0.183,1843365
-0.004,0.05,0.998,-0.122,1843369
-0.004,0.05,0.998,-0.122,1843373
-0.005,0.051,1.0,-0.061,1843377
-0.005,0.051,1.0,-0.122,1843381
-0.004,0.052,1.0,-0.183,1843385
-0.004,0.052,1.0,-0.122,1843389
-0.004,0.052,1.0,-0.122,1843393
-0.003,0.053,1.0,-0.061,1843397
-0.003,0.053,1.0,-0.122,1843401
-0.003,0.052,0.999,-0.244,1843405
-0.003,0.052,0.999,-0.244,1843409
-0.003,0.052,0.999,-0.244,1843413
-0.003,0.052,0.998,-0.244,1843417
-0.003,0.052,0.998,-0.183,1843421
-0.002,0.052,0.998,-0.244,1843425
-0.002,0.052,0.998,-0.305,1843428
-0.002,0.052,0.998,-0.305,1843432
-0.002,0.053,1.0,-0.305,1843436
-0.002,0.053,1.0,-0.244,1843440
-0.003,0.053,0.998,-0.244,1843444
-0.003,0.053,0.998,-0.244,1843448
-0.003,0.053,0.998,-0.244,1843452
-0.003,0.052,0.998,-0.305,1843456
-0.003,0.052,0.998,-0.244,1843460
-0.002,0.053,0.999,-0.305,1843464
-0.002,0.053,0.999,-0.427,1843468
-0.002,0.053,0.999,-0.427,1843472
-0.004,0.052,0.999,-0.305,1843476
-0.004,0.052,0.999,-0.244,1843480
-0.004,0.052,1.0,-0.122,1843484
-0.004,0.052,1.0,-0.061,1843488
-0.004,0.052,1.0,-0.061,1843492
-0.005,0.052,0.998,-0.183,1843496
-0.005,0.052,0.998,-0.122,1843500
-0.004,0.052,0.998,-0.183,1843504
-0.004,0.052,0.998,-0.244,1843508
-0.004,0.052,0.998,-0.244,1843512
-0.004,0.052,0.997,-0.244,1843516
-0.004,0.052,0.997,-0.305,1843520
-0.004,0.052,0.999,-0.244,1843524
-0.004,0.052,0.999,-0.122,1843528
-0.004,0.052,0.999,-0.122,1843532
-0.004,0.051,1.002,-0.122,1843536
-0.004,0.051,1.002,-0.183,1843540
-0.004,0.051,1.002,-0.366,1843544
-0.004,0.051,1.002,-0.244,1843548
-0.004,0.051,1.002,-0.244,1843552
-0.004,0.052,0.999,-0.244,1843556
-0.004,0.052,0.999,-0.183,1843559
-0.004,0.052,0.997,-0.305,1843563
-0.004,0.052,0.997,-0.244,1843567
-0.004,0.052,0.997,-0.244,1843571
-0.004,0.053,1.001,-0.122,1843575
-0.004,0.053,1.001,-0.244,1843579
-0.003,0.053,1.001,-0.183,1843583
-0.003,0.053,1.001,-0.183,1843587
-0.003,0.053,1.001,-0.183,1843591
-0.003,0.051,0.998,-0.244,1843595
-0.003,0.051,0.998,-0.183,1843599
-0.002,0.052,0.999,-0.122,1843603
-0.002,0.052,0.999,0.0,1843607
-0.002,0.052,0.999,0.0,1843611
-0.003,0.054,1.002,-0.183,1843615
-0.003,0.054,1.002,-0.244,1843619
-0.003,0.052,1.0,-0.183,1843623
-0.003,0.052,1.0,-0.122,1843627
-0.003,0.052,1.0,-0.122,1843631
-0.002,0.053,0.999,-0.183,1843635
-0.002,0.053,0.999,-0.183,1843639
-0.003,0.053,0.999,-0.183,1843643
-0.003,0.053,0.999,-0.183,1843647
-0.003,0.053,0.999,-0.183,1843651
-0.002,0.053,0.997,-0.183,1843655
-0.002,0.053,0.997,-0.183,1843659
-0.002,0.052,0.997,-0.122,1843663
-0.002,0.052,0.997,-0.122,1843666
-0.002,0.052,0.997,-0.122,1843670
-0.002,0.051,0.999,-0.305,1843674
-0.002,0.051,0.999,-0.183,1843678
-0.003,0.052,1.002,-0.244,1843682
-0.003,0.052,1.002,-0.244,1843686
-0.003,0.052,1.002,-0.244,1843690
-0.005,0.052,1.003,-0.305,1843694
-0.005,0.052,1.003,-0.244,1843698
-0.004,0.052,0.998,-0.366,1843702
-0.004,0.052,0.998,-0.183,1843706
-0.004,0.052,0.998,-0.183,1843710
-0.005,0.052,0.996,-0.183,1843714
-0.005,0.052,0.996,-0.244,1843718
-0.007,0.051,0.997,-0.366,1843722
-0.007,0.051,0.997,-0.244,1843726
-0.007,0.051,0.997,-0.244,1843730
-0.005,0.052,1.0,-0.183,1843734
-0.005,0.052,1.0,-0.183,1843738
-0.002,0.051,1.0,-0.122,1843742
-0.002,0.051,1.0,-0.244,1843746
-0.002,0.051,1.0,-0.244,1843750
-0.006,0.051,0.998,-0.244,1843754
-0.006,0.051,0.998,-0.244,1843758
-0.005,0.051,1.0,-0.244,1843762
-0.005,0.051,1.0,-0.122,1843766
-0.005,0.051,1.0,-0.122,1843770
-0.004,0.052,1.0,0.0,1843774
-0.004,0.052,1.0,-0.183,1843778
-0.003,0.053,1.0,-0.183,1843782
-0.003,0.053,1.0,-0.244,1843786
-0.003,0.053,1.0,-0.244,1843790
-0.002,0.052,0.998,-0.183,1843794
-0.002,0.052,0.998,-0.366,1843798
-0.003,0.052,0.997,-0.244,1843802
-0.003,0.052,0.997,-0.183,1843805
-0.003,0.052,0.997,-0.183,1843809
-0.002,0.052,0.997,-0.305,1843813
-0.002,0.052,0.997,-0.183,1843817
-0.003,0.053,1.0,-0.061,1843821
-0.003,0.053,1.0,-0.061,1843825
-0.003,0.053,1.0,-0.061,1843829
-0.002,0.052,1.0,-0.122,1843833
-0.002,0.052,1.0,-0.183,1843837
-0.001,0.052,1.0,-0.183,1843841
-0.001,0.052,1.0,-0.122,1843845
-0.001,0.052,1.0,-0.122,1843849
-0.004,0.051,1.0,-0.183,1843853
-0.004,0.051,1.0,-0.244,1843857
-0.003,0.052,1.0,-0.305,1843861
-0.003,0.052,1.0,-0.183,1843865
-0.003,0.052,1.0,-0.183,1843869
-0.004,0.052,1.0,-0.305,1843873
-0.004,0.052,1.0,-0.183,1843877
-0.003,0.051,0.995,-0.061,1843881
-0.003,0.051,0.995,-0.061,1843885
-0.003,0.051,0.995,-0.061,1843889
-0.004,0.051,0.995,-0.183,1843893
-0.004,0.051,0.995,-0.183,1843897
-0.003,0.051,1.001,-0.183,1843901
-0.003,0.051,1.001,-0.183,1843905
-0.003,0.051,1.001,-0.183,1843909
-0.003,0.052,1.002,-0.244,1843913
-0.003,0.052,1.002,-0.183,1843917
-0.004,0.052,0.999,-0.183,1843921
-0.004,0.052,0.999,-0.305,1843925
-0.004,0.052,0.999,-0.305,1843929
-0.004,0.052,1.0,-0.183,1843933
-0.004,0.052,1.0,-0.244,1843936
-0.004,0.051,0.998,-0.122,1843940
-0.004,0.051,0.998,-0.061,1843944
-0.004,0.051,0.998,-0.061,1843948
-0.005,0.052,0.999,-0.122,1843952
-0.005,0.052,0.999,-0.183,1843956
-0.004,0.052,0.998,-0.244,1843960
-0.004,0.052,0.998,-0.183,1843964
-0.004,0.052,0.998,-0.183,1843968
-0.004,0.052,0.995,-0.122,1843972
-0.004,0.052,0.995,-0.183,1843976
-0.004,0.052,1.0,-0.183,1843980
-0.004,0.052,1.0,-0.183,1843984
-0.004,0.052,1.0,-0.183,1843988
-0.004,0.052,1.004,-0.183,1843992
-0.004,0.052,1.004,-0.122,1843996
-0.002,0.053,1.001,-0.366,1844000
-0.002,0.053,1.001,-0.305,1844004
-0.002,0.053,1.001,-0.305,1844008
-0.004,0.053,0.998,-0.183,1844012
-0.004,0.053,0.998,-0.183,1844016
-0.003,0.053,0.997,-0.122,1844020
-0.003,0.053,0.997,-0.183,1844024
-0.003,0.053,0.997,-0.183,1844028
-0.003,0.054,0.999,-0.183,1844032
-0.003,0.054,0.999,-0.183,1844036
-0.003,0.052,0.997,-0.244,1844040
-0.003,0.052,0.997,-0.244,1844044
-0.003,0.052,0.997,-0.244,1844048
-0.002,0.051,0.997,-0.122,1844052
-0.002,0.051,0.997,-0.122,1844056
-0.002,0.051,1.002,-0.244,1844060
-0.002,0.051,1.002,-0.122,1844064
-0.002,0.051,1.002,-0.122,1844068
-0.003,0.051,1.005,-0.122,1844071
-0.003,0.051,1.005,-0.244,1844075
-0.004,0.051,0.998,-0.183,1844079
-0.004,0.051,0.998,-0.122,1844083
-0.004,0.051,0.998,-0.122,1844087
-0.005,0.052,0.994,-0.183,1844091
-0.005,0.052,0.994,-0.183,1844095
-0.004,0.053,0.998,-0.183,1844099
-0.004,0.053,0.998,-0.122,1844103
-0.006,0.051,1.0,-0.122,1844107
-0.006,0.051,1.0,-0.122,1844111
-0.006,0.051,1.0,-0.183,1844115
-0.003,0.052,0.998,-0.305,1844119
-0.003,0.052,0.998,-0.183,1844123
-0.003,0.052,0.998,-0.183,1844127
-0.003,0.051,0.999,-0.183,1844131
-0.003,0.051,0.999,-0.305,1844135
-0.002,0.051,1.001,-0.305,1844139
-0.002,0.051,1.001,-0.244,1844143
-0.004,0.053,1.004,-0.061,1844147
-0.004,0.053,1.004,-0.061,1844151
-0.004,0.053,1.004,-0.244,1844155
-0.004,0.052,0.996,-0.244,1844159
-0.004,0.052,0.996,-0.061,1844163
-0.005,0.052,0.995,-0.183,1844167
-0.005,0.052,0.995,-0.183,1844171
-0.005,0.052,0.995,-0.244,1844175
-0.003,0.055,1.0,-0.183,1844179
-0.003,0.055,1.0,-0.183,1844183
-0.004,0.053,1.002,-0.183,1844187
-0.004,0.053,1.002,-0.183,1844191
-0.004,0.053,1.002,-0.183,1844195
-0.003,0.054,0.999,-0.244,1844199
-0.003,0.054,0.999,-0.183,1844203
-0.002,0.054,0.996,-0.122,1844206
-0.002,0.054,0.996,-0.122,1844210
-0.002,0.054,0.996,-0.244,1844214
-0.003,0.053,1.0,-0.305,1844218
-0.003,0.053,1.0,-0.183,1844222
-0.003,0.053,1.002,-0.305,1844226
-0.003,0.053,1.002,-0.305,1844230
-0.003,0.053,1.002,-0.244,1844234
-0.004,0.052,0.997,-0.183,1844238
-0.004,0.052,0.997,-0.061,1844242
-0.003,0.052,0.996,-0.183,1844246
-0.003,0.052,0.996,-0.183,1844250
-0.003,0.052,0.996,-0.183,1844254
-0.002,0.051,0.996,-0.183,1844258
-0.002,0.051,0.996,-0.183,1844262
-0.004,0.051,0.998,-0.061,1844266
-0.004,0.051,0.998,-0.061,1844270
-0.004,0.051,0.998,-0.183,1844274
-0.005,0.052,1.001,-0.244,1844278
-0.005,0.052,1.001,-0.244,1844282
-0.004,0.052,1.0,-0.183,1844286
-0.004,0.052,1.0,-0.183,1844290
-0.004,0.052,1.0,-0.244,1844294
-0.005,0.052,0.999,-0.183,1844298
-0.005,0.052,0.999,-0.244,1844302
-0.004,0.053,0.998,-0.122,1844306
-0.004,0.053,0.998,-0.122,1844310
-0.004,0.053,0.998,-0.183,1844314
-0.004,0.053,0.998,-0.122,1844318
-0.004,0.053,0.998,-0.183,1844322
-0.003,0.053,0.998,-0.061,1844326
-0.003,0.053,0.998,-0.061,1844330
-0.003,0.053,0.998,-0.061,1844334
-0.002,0.052,0.996,-0.183,1844337
-0.002,0.052,0.996,-0.305,1844341
-0.003,0.052,0.998,-0.183,1844345
-0.003,0.052,0.998,-0.183,1844349
-0.003,0.052,0.998,-0.122,1844353
-0.002,0.052,1.0,-0.061,1844357
-0.002,0.052,1.0,-0.122,1844361
-0.003,0.052,1.0,-0.244,1844365
-0.003,0.052,1.0,-0.244,1844369
-0.003,0.052,1.0,-0.061,1844373
-0.003,0.053,1.0,0.0,1844377
-0.003,0.053,1.0,-0.183,1844381
-0.003,0.054,0.999,-0.122,1844385
-0.003,0.054,0.999,-0.122,1844389
-0.003,0.054,0.999,-0.061,1844393
-0.002,0.053,0.997,-0.244,1844397
-0.002,0.053,0.997,-0.244,1844401
-0.004,0.053,0.996,-0.061,1844405
-0.004,0.053,0.996,-0.061,1844409
-0.004,0.053,0.996,-0.244,1844413
-0.001,0.052,0.998,-0.244,1844417
-0.001,0.052,0.998,-0.244,1844421
-0.001,0.052,0.999,-0.244,1844425
-0.001,0.052,0.999,-0.244,1844429
-0.001,0.052,0.999,-0.183,1844433
-0.003,0.051,1.0,-0.183,1844437
-0.003,0.051,1.0,-0.244,1844441
-0.004,0.051,1.0,-0.183,1844445
-0.004,0.051,1.0,-0.183,1844449
-0.004,0.051,1.0,-0.244,1844453
-0.006,0.052,1.001,-0.183,1844457
-0.006,0.052,1.001,-0.122,1844460
-0.005,0.052,0.999,-0.244,1844464
-0.005,0.052,0.999,-0.244,1844468
-0.005,0.052,0.999,-0.244,1844472
-0.003,0.052,0.999,-0.183,1844476
-0.003,0.052,0.999,-0.244,1844480
-0.003,0.053,0.997,-0.244,1844484
-0.003,0.053,0.997,-0.244,1844488
-0.003,0.053,0.997,-0.122,1844492
-0.004,0.052,0.998,-0.122,1844496
-0.004,0.052,0.998,-0.183,1844500
-0.004,0.053,1.0,-0.244,1844504
-0.004,0.053,1.0,-0.244,1844508
-0.004,0.053,1.0,-0.183,1844512
-0.004,0.053,0.999,-0.305,1844516
-0.004,0.053,0.999,-0.244,1844520
-0.004,0.051,1.0,-0.122,1844524
-0.004,0.051,1.0,-0.122,1844528
-0.004,0.051,1.0,-0.183,1844532
-0.004,0.051,1.0,-0.305,1844536
-0.004,0.051,1.0,-0.183,1844540
-0.002,0.051,0.999,-0.244,1844544
-0.002,0.051,0.999,-0.244,1844548
-0.002,0.051,0.999,-0.244,1844552
-0.003,0.053,1.001,-0.061,1844556
-0.003,0.053,1.001,-0.122,1844560
-0.002,0.053,0.998,-0.244,1844564
-0.002,0.053,0.998,-0.244,1844568
-0.002,0.053,0.998,-0.244,1844572
-0.003,0.054,0.999,-0.244,1844576
-0.003,0.054,0.999,-0.122,1844580
-0.002,0.054,0.998,-0.183,1844584
-0.002,0.054,0.998,-0.183,1844588
-0.002,0.054,0.998,-0.244,1844592
-0.002,0.052,1.0,-0.244,1844595
-0.002,0.052,1.0,-0.244,1844599
-0.004,0.052,1.0,-0.183,1844603
-0.004,0.052,1.0,-0.183,1844607
-0.004,0.052,1.0,-0.122,1844611
-0.003,0.053,1.0,-0.061,1844615
-0.003,0.053,1.0,-0.244,1844619
-0.004,0.052,0.999,-0.183,1844623
-0.004,0.052,0.999,-0.183,1844627
-0.004,0.052,0.999,-0.061,1844631
-0.004,0.052,0.999,-0.183,1844635
-0.004,0.052,0.999,-0.183,1844639
-0.004,0.052,0.999,-0.183,1844643
-0.004,0.052,0.999,-0.183,1844647
-0.004,0.052,0.999,-0.183,1844651
-0.004,0.051,1.001,-0.122,1844655
-0.004,0.051,1.001,-0.122,1844659
-0.003,0.052,1.0,-0.183,1844663
-0.003,0.052,1.0,-0.183,1844667
-0.003,0.052,1.0,-0.183,1844671
-0.004,0.052,1.001,-0.244,1844675
-0.004,0.052,1.001,-0.183,1844679
-0.003,0.052,1.0,-0.244,1844683
-0.003,0.052,1.0,-0.244,1844687
-0.003,0.052,1.0,-0.244,1844691
-0.004,0.051,0.999,-0.183,1844695
-0.004,0.051,0.999,-0.244,1844699
-0.004,0.052,0.999,-0.305,1844703
-0.004,0.052,0.999,-0.305,1844707
-0.004,0.052,0.999,-0.244,1844711
-0.004,0.052,0.999,-0.122,1844715
-0.004,0.052,0.999,-0.244,1844719
-0.004,0.052,0.999,-0.183,1844722
-0.004,0.052,0.999,-0.183,1844726
-0.004,0.052,0.999,-0.305,1844730
-0.002,0.052,0.998,-0.183,1844734
-0.002,0.052,0.998,-0.244,1844738
-0.003,0.052,0.998,0.0,1844742
-0.003,0.052,0.998,0.0,1844746
-0.003,0.052,0.998,-0.183,1844750
-0.003,0.052,0.999,-0.244,1844754
-0.003,0.052,0.999,-0.183,1844758
-0.004,0.052,1.0,0.0,1844762
-0.004,0.052,1.0,0.0,1844766
-0.004,0.052,1.0,-0.122,1844770
-0.001,0.052,0.998,-0.244,1844774
-0.001,0.052,0.998,-0.183,1844778
-0.002,0.051,0.999,-0.244,1844782
-0.002,0.051,0.999,-0.244,1844786
-0.002,0.051,0.999,-0.183,1844790
-0.003,0.052,0.998,-0.122,1844794
-0.003,0.052,0.998,-0.061,1844798
-0.003,0.053,0.998,-0.183,1844802
-0.003,0.053,0.998,-0.183,1844806
-0.003,0.053,0.998,-0.122,1844810
-0.004,0.054,0.998,-0.122,1844814
-0.004,0.054,0.998,-0.183,1844818
-0.004,0.052,1.0,-0.183,1844822
-0.004,0.052,1.0,-0.183,1844825
-0.004,0.052,1.0,-0.183,1844829
-0.004,0.053,1.0,-0.183,1844833
-0.004,0.053,1.0,-0.183,1844837
-0.003,0.052,1.001,-0.183,1844841
-0.003,0.052,1.001,-0.183,1844845
-0.003,0.052,1.001,-0.183,1844849
-0.004,0.052,0.997,-0.244,1844853
-0.004,0.052,0.997,-0.183,1844857
-0.004,0.053,0.997,-0.061,1844861
-0.004,0.053,0.997,-0.061,1844865
-0.004,0.053,0.997,-0.061,1844869
-0.005,0.052,1.0,-0.122,1844873
-0.005,0.052,1.0,-0.305,1844877
-0.005,0.052,0.999,-0.183,1844881
-0.005,0.052,0.999,-0.183,1844885
-0.005,0.052,0.999,-0.061,1844889
-0.004,0.052,0.999,-0.183,1844893
-0.004,0.052,0.999,-0.244,1844897
-0.003,0.051,1.0,-0.122,1844901
-0.003,0.051,1.0,-0.122,1844905
-0.003,0.051,1.0,-0.061,1844909
-0.004,0.052,1.0,-0.061,1844913
-0.004,0.052,1.0,-0.305,1844917
-0.004,0.051,1.0,-0.183,1844921
-0.004,0.051,1.0,-0.183,1844925
-0.004,0.051,1.0,-0.061,1844929
-0.003,0.052,1.001,-0.244,1844933
-0.003,0.052,1.001,-0.305,1844937
-0.004,0.051,0.999,-0.183,1844941
-0.004,0.051,0.999,-0.183,1844945
-0.004,0.051,0.999,-0.183,1844948
-0.004,0.053,0.999,-0.122,1844952
-0.004,0.053,0.999,-0.122,1844956
-0.004,0.052,1.001,-0.183,1844960
-0.004,0.052,1.001,-0.183,1844964
-0.004,0.052,1.001,-0.183,1844968
-0.004,0.052,1.0,-0.244,1844972
-0.004,0.052,1.0,-0.183,1844976
-0.003,0.053,0.999,-0.244,1844980
-0.003,0.053,0.999,-0.244,1844984
-0.003,0.053,0.999,-0.244,1844988
-0.005,0.053,0.999,-0.183,1844992
-0.005,0.053,0.999,-0.183,1844996
-0.003,0.052,1.001,-0.122,1845000
-0.003,0.052,1.001,-0.122,1845004
-0.003,0.052,1.001,-0.122,1845008
-0.003,0.052,0.999,-0.305,1845012
-0.003,0.052,0.999,-0.183,1845016
-0.002,0.053,0.999,-0.305,1845020
-0.002,0.053,0.999,-0.305,1845024
-0.002,0.053,0.999,-0.244,1845028
-0.003,0.052,0.999,-0.183,1845032
-0.003,0.052,0.999,-0.183,1845036
-0.003,0.053,0.999,-0.183,1845040
-0.003,0.053,0.999,-0.183,1845044
-0.003,0.053,0.999,-0.244,1845048
-0.004,0.053,1.0,-0.122,1845052
-0.004,0.053,1.0,-0.183,1845056
-0.004,0.052,0.999,-0.244,1845060
-0.004,0.052,0.999,-0.244,1845064
-0.004,0.052,0.999,-0.305,1845068
-0.004,0.052,0.999,-0.183,1845072
-0.004,0.052,0.999,-0.244,1845076
-0.004,0.052,1.0,-0.305,1845080
-0.004,0.052,1.0,-0.305,1845083
-0.004,0.052,1.0,-0.305,1845087
-0.004,0.052,0.999,-0.183,1845091
-0.004,0.052,0.999,-0.244,1845095
-0.003,0.051,0.998,-0.427,1845099
-0.003,0.051,0.998,-0.427,1845103
-0.003,0.051,0.998,-0.183,1845107
-0.004,0.052,1.0,-0.122,1845111
-0.004,0.052,1.0,-0.244,1845115
-0.004,0.053,1.0,-0.305,1845119
-0.004,0.053,1.0,-0.305,1845123
-0.004,0.053,1.0,-0.244,1845127
-0.002,0.051,0.998,-0.183,1845131
-0.002,0.051,0.998,-0.122,1845135
-0.002,0.051,1.0,-0.122,1845139
-0.002,0.051,1.0,-0.122,1845143
-0.002,0.051,1.0,-0.122,1845147
-0.003,0.052,1.0,-0.183,1845151
-0.003,0.052,1.0,-0.061,1845155
-0.004,0.052,1.0,-0.061,1845159
-0.004,0.052,1.0,-0.061,1845163
-0.004,0.052,1.0,-0.305,1845167
-0.004,0.054,0.999,-0.244,1845171
-0.004,0.054,0.999,-0.183,1845175
-0.003,0.051,0.998,-0.122,1845179
-0.003,0.051,0.998,-0.122,1845183
-0.003,0.051,0.998,-0.305,1845187
-0.002,0.052,0.999,-0.244,1845191
-0.002,0.052,0.999,-0.244,1845195
-0.004,0.052,0.999,-0.244,1845199
-0.004,0.052,0.999,-0.244,1845203
-0.004,0.052,0.999,-0.244,1845207
-0.003,0.052,0.999,-0.122,1845211
-0.003,0.052,0.999,-0.122,1845214
-0.003,0.052,1.0,-0.122,1845218
-0.003,0.052,1.0,-0.122,1845222
-0.003,0.052,1.0,-0.244,1845226
-0.003,0.053,0.999,-0.183,1845230
-0.003,0.053,0.999,-0.122,1845234
-0.002,0.052,1.0,-0.183,1845238
-0.002,0.052,1.0,-0.183,1845242
-0.002,0.052,1.0,-0.122,1845246
-0.003,0.051,1.0,-0.183,1845250
-0.003,0.051,1.0,-0.122,1845254
-0.004,0.052,1.0,-0.183,1845258
-0.004,0.052,1.0,-0.183,1845262
-0.004,0.052,1.0,-0.183,1845266
-0.004,0.052,0.998,-0.305,1845270
-0.004,0.052,0.998,-0.244,1845274
-0.004,0.053,0.999,-0.183,1845278
-0.004,0.053,0.999,-0.183,1845282
-0.004,0.053,0.999,-0.122,1845286
-0.004,0.051,1.001,-0.305,1845290
-0.004,0.051,1.001,-0.061,1845294
-0.004,0.052,1.0,-0.122,1845298
-0.004,0.052,1.0,-0.122,1845302
-0.004,0.052,1.0,-0.244,1845306
-0.005,0.053,0.998,-0.122,1845310
-0.005,0.053,0.998,-0.061,1845314
-0.004,0.052,1.0,-0.061,1845318
-0.004,0.052,1.0,-0.061,1845322
-0.004,0.052,1.0,-0.122,1845326
-0.004,0.052,1.0,-0.183,1845330
-0.004,0.052,1.0,-0.183,1845334
-0.004,0.053,0.999,-0.122,1845338
-0.004,0.053,0.999,-0.122,1845341
-0.004,0.053,0.999,-0.305,1845345
-0.002,0.051,0.998,-0.183,1845349
-0.002,0.051,0.998,-0.244,1845353
-0.001,0.052,0.999,-0.183,1845357
-0.001,0.052,0.999,-0.183,1845361
-0.001,0.052,0.999,-0.366,1845365
-0.001,0.051,0.999,-0.305,1845369
-0.001,0.051,0.999,-0.244,1845373
-0.002,0.052,0.999,-0.183,1845377
-0.002,0.052,0.999,-0.183,1845381
-0.002,0.052,0.999,-0.366,1845385
-0.003,0.052,1.0,-0.244,1845389
-0.003,0.052,1.0,-0.122,1845393
-0.004,0.052,0.999,-0.183,1845397
-0.004,0.052,0.999,-0.183,1845401
-0.004,0.052,0.999,-0.244,1845405
-0.004,0.052,0.997,-0.183,1845409
-0.004,0.052,0.997,-0.122,1845413
-0.003,0.053,0.999,-0.244,1845417
-0.003,0.053,0.999,-0.244,1845421
-0.003,0.053,0.999,-0.305,1845425
-0.003,0.052,0.999,-0.122,1845429
-0.003,0.052,0.999,-0.122,1845433
-0.004,0.052,1.0,-0.061,1845437
-0.004,0.052,1.0,-0.061,1845441
-0.004,0.052,1.0,-0.122,1845445
-0.003,0.052,0.999,-0.183,1845449
-0.003,0.052,0.999,-0.122,1845453
-0.004,0.051,0.999,-0.244,1845457
-0.004,0.051,0.999,-0.244,1845461
-0.004,0.051,0.999,-0.183,1845465
-0.003,0.051,0.999,-0.061,1845469
-0.003,0.051,0.999,-0.183,1845472
-0.003,0.052,0.998,-0.244,1845476
-0.003,0.052,0.998,-0.244,1845480
-0.003,0.052,0.998,-0.183,1845484
-0.004,0.052,0.999,-0.122,1845488
-0.004,0.052,0.999,-0.122,1845492
-0.005,0.052,0.999,-0.244,1845496
-0.005,0.052,0.999,-0.244,1845500
-0.005,0.052,0.999,0.0,1845504
-0.004,0.052,0.996,-0.183,1845508
-0.004,0.052,0.996,-0.305,1845512
-0.003,0.053,0.998,-0.061,1845516
-0.003,0.053,0.998,-0.061,1845520
-0.003,0.053,0.998,-0.122,1845524
-0.003,0.053,0.998,-0.244,1845528
-0.003,0.053,0.998,-0.305,1845532
-0.003,0.053,1.0,-0.122,1845536
-0.003,0.053,1.0,-0.122,1845540
-0.003,0.053,1.0,-0.183,1845544
-0.005,0.053,1.0,-0.183,1845548
-0.005,0.053,1.0,-0.061,1845552
-0.005,0.052,1.001,-0.244,1845556
-0.005,0.052,1.001,-0.244,1845560
-0.005,0.052,1.001,-0.244,1845564
-0.003,0.051,0.999,-0.122,1845568
-0.003,0.051,0.999,-0.183,1845572
-0.004,0.052,0.998,-0.305,1845576
-0.004,0.052,0.998,-0.305,1845580
-0.004,0.052,0.998,-0.183,1845584
-0.003,0.052,0.997,-0.061,1845588
-0.003,0.052,0.997,-0.183,1845592
-0.003,0.053,0.999,-0.244,1845596
-0.003,0.053,0.999,-0.244,1845600
-0.003,0.053,0.999,-0.305,1845603
-0.003,0.052,0.999,-0.366,1845607
-0.003,0.052,0.999,-0.305,1845611
-0.003,0.052,0.999,-0.244,1845615
-0.003,0.052,0.999,-0.244,1845619
-0.003,0.052,0.999,-0.061,1845623
-0.004,0.053,0.999,-0.122,1845627
-0.004,0.053,0.999,-0.244,1845631
-0.005,0.052,0.999,-0.244,1845635
-0.005,0.052,0.999,-0.244,1845639
-0.005,0.052,0.999,-0.244,1845643
-0.003,0.052,0.998,-0.183,1845647
-0.003,0.052,0.998,-0.183,1845651
-0.003,0.052,0.999,-0.122,1845655
-0.003,0.052,0.999,-0.122,1845659
-0.003,0.052,0.999,-0.183,1845663
-0.003,0.053,1.0,-0.122,1845667
-0.003,0.053,1.0,-0.183,1845671
-0.004,0.052,1.0,-0.183,1845675
-0.004,0.052,1.0,-0.183,1845679
-0.004,0.052,1.0,-0.183,1845683
-0.004,0.052,1.0,-0.061,1845687
-0.004,0.052,1.0,-0.183,1845691
-0.004,0.052,0.998,-0.061,1845695
-0.004,0.052,0.998,-0.061,1845699
-0.004,0.052,0.998,-0.244,1845703
-0.005,0.052,0.999,-0.183,1845707
-0.005,0.052,0.999,-0.122,1845711
-0.004,0.052,0.999,-0.183,1845715
-0.004,0.052,0.999,-0.183,1845719
-0.004,0.052,0.999,-0.183,1845723
-0.004,0.052,1.001,-0.244,1845727
-0.004,0.052,1.001,-0.305,1845731
-0.003,0.053,1.0,-0.183,1845735
-0.003,0.053,1.0,-0.183,1845738
-0.003,0.053,1.0,-0.122,1845742
-0.002,0.054,0.999,-0.183,1845746
-0.002,0.054,0.999,-0.183,1845750
-0.003,0.052,0.998,-0.061,1845754
-0.003,0.052,0.998,-0.061,1845758
-0.003,0.052,0.998,-0.061,1845762
-0.004,0.052,1.0,-0.122,1845766
-0.004,0.052,1.0,-0.244,1845770
-0.003,0.052,0.999,-0.305,1845774
-0.003,0.052,0.999,-0.305,1845778
-0.003,0.052,0.999,-0.244,1845782
-0.004,0.052,1.001,-0.122,1845786
-0.004,0.052,1.001,-0.244,1845790
-0.003,0.053,1.0,-0.183,1845794
-0.003,0.053,1.0,-0.183,1845798
-0.003,0.053,1.0,-0.183,1845802
-0.003,0.053,0.999,-0.183,1845806
-0.003,0.053,0.999,-0.244,1845810
-0.004,0.052,0.999,-0.183,1845814
-0.004,0.052,0.999,-0.183,1845818
-0.004,0.052,0.999,-0.183,1845822
-0.003,0.052,1.0,-0.183,1845826
-0.003,0.052,1.0,-0.183,1845830
-0.003,0.051,1.0,-0.122,1845834
-0.003,0.051,1.0,-0.122,1845838
-0.003,0.051,1.0,-0.183,1845842
-0.003,0.051,0.999,-0.061,1845846
-0.003,0.051,0.999,-0.122,1845850
-0.005,0.052,1.0,-0.122,1845854
-0.005,0.052,1.0,-0.122,1845858
-0.005,0.052,1.0,-0.244,1845862
-0.004,0.052,0.998,-0.183,1845866
-0.004,0.052,0.998,-0.061,1845870
-0.003,0.053,1.0,-0.061,1845873
-0.003,0.053,1.0,-0.061,1845877
-0.003,0.053,1.0,0.0,1845881
-0.004,0.053,0.999,-0.244,1845885
-0.004,0.053,0.999,-0.244,1845889
-0.003,0.052,0.997,-0.305,1845893
-0.003,0.052,0.997,-0.305,1845897
-0.003,0.052,0.997,-0.244,1845901
-0.004,0.052,1.0,-0.183,1845905
-0.004,0.052,1.0,-0.244,1845909
-0.003,0.053,0.999,-0.244,1845913
-0.003,0.053,0.999,-0.244,1845917
-0.003,0.053,0.999,-0.244,1845921
-0.004,0.05,0.998,-0.244,1845925
-0.004,0.05,0.998,-0.183,1845929
-0.004,0.053,0.999,-0.244,1845933
-0.004,0.053,0.999,-0.244,1845937
-0.004,0.053,0.999,-0.244,1845941
-0.004,0.052,1.0,-0.183,1845945
-0.004,0.052,1.0,-0.305,1845949
-0.004,0.052,0.999,-0.366,1845953
-0.004,0.052,0.999,-0.366,1845957
-0.004,0.052,0.999,-0.122,1845961
-0.004,0.052,0.998,0.061,1845965
-0.004,0.052,0.998,-0.061,1845969
-0.004,0.052,0.998,-0.183,1845973
-0.004,0.052,0.998,-0.183,1845977
-0.004,0.052,0.998,-0.122,1845981
-0.001,0.052,0.998,-0.183,1845985
-0.001,0.052,0.998,-0.122,1845989
-0.003,0.052,1.0,-0.122,1845993
-0.003,0.052,1.0,-0.122,1845997
-0.003,0.052,1.0,-0.244,1846001
-0.005,0.051,0.999,-0.244,1846004
-0.005,0.051,0.999,-0.244,1846008
-0.004,0.052,0.999,-0.183,1846012
-0.004,0.052,0.999,-0.183,1846016
-0.004,0.052,0.999,-0.183,1846020
-0.004,0.052,0.999,-0.244,1846024
-0.004,0.052,0.999,-0.305,1846028
-0.003,0.052,0.998,-0.244,1846032
-0.003,0.052,0.998,-0.244,1846036
-0.003,0.052,0.998,-0.305,1846040
-0.005,0.053,0.998,-0.183,1846044
-0.005,0.053,0.998,-0.244,1846048
-0.001,0.052,1.0,-0.183,1846052
-0.001,0.052,1.0,-0.183,1846056
-0.001,0.052,1.0,-0.305,1846060
-0.002,0.051,0.998,-0.244,1846064
-0.002,0.051,0.998,-0.244,1846068
-0.002,0.05,0.998,-0.305,1846072
-0.002,0.05,0.998,-0.305,1846076
-0.002,0.05,0.998,-0.244,1846080
-0.004,0.052,0.999,-0.122,1846084
-0.004,0.052,0.999,-0.183,1846088
-0.003,0.052,0.999,-0.122,1846092
-0.003,0.052,0.999,-0.122,1846096
-0.003,0.052,0.999,-0.183,1846100
-0.004,0.053,1.0,-0.244,1846104
-0.004,0.053,1.0,-0.244,1846108
-0.005,0.053,0.999,-0.183,1846112
-0.005,0.053,0.999,-0.183,1846116
-0.005,0.053,0.999,-0.183,1846120
-0.004,0.052,0.999,-0.305,1846124
-0.004,0.052,0.999,-0.366,1846128
-0.004,0.053,1.0,-0.183,1846132
-0.004,0.053,1.0,-0.183,1846136
-0.004,0.053,1.0,-0.244,1846140
-0.004,0.052,0.999,-0.183,1846144
-0.004,0.052,0.999,0.061,1846147
-0.005,0.052,0.997,-0.122,1846151
-0.005,0.052,0.997,-0.122,1846155
-0.005,0.052,0.997,-0.244,1846159
-0.004,0.052,0.996,-0.122,1846163
-0.004,0.052,0.996,-0.244,1846167
-0.005,0.052,0.998,-0.122,1846171
-0.005,0.052,0.998,-0.122,1846175
-0.005,0.052,0.998,-0.183,1846179
-0.003,0.053,1.0,-0.305,1846183
-0.003,0.053,1.0,-0.122,1846187
-0.003,0.054,0.999,-0.061,1846191
-0.003,0.054,0.999,-0.061,1846195
-0.003,0.054,0.999,-0.183,1846199
-0.004,0.053,1.0,-0.305,1846203
-0.004,0.053,1.0,-0.305,1846207
-0.004,0.052,0.999,-0.183,1846211
-0.004,0.052,0.999,-0.183,1846215
-0.004,0.052,0.999,-0.061,1846219
-0.005,0.053,1.0,-0.244,1846223
-0.005,0.053,1.0,0.0,1846227
-0.003,0.053,0.999,-0.122,1846231
-0.003,0.053,0.999,-0.122,1846235
-0.003,0.053,0.999,-0.244,1846239
-0.003,0.051,0.999,-0.183,1846243
-0.003,0.051,0.999,-0.061,1846247
-0.005,0.052,0.998,-0.061,1846251
-0.005,0.052,0.998,-0.061,1846255
-0.005,0.052,0.998,-0.122,1846259
-0.005,0.053,0.999,-0.122,1846263
-0.005,0.053,0.999,-0.305,1846267
-0.004,0.053,1.0,-0.183,1846271
-0.004,0.053,1.0,-0.183,1846274
-0.004,0.053,1.0,-0.183,1846278
-0.004,0.052,1.0,-0.305,1846282
-0.004,0.052,1.0,-0.244,1846286
-0.003,0.052,0.997,-0.122,1846290
-0.003,0.052,0.997,-0.122,1846294
-0.003,0.052,0.997,-0.183,1846298
-0.003,0.052,1.001,-0.366,1846302
-0.003,0.052,1.001,-0.122,1846306
-0.005,0.052,1.0,-0.183,1846310
-0.005,0.052,1.0,-0.183,1846314
-0.005,0.052,1.0,-0.244,1846318
-0.004,0.051,0.998,-0.183,1846322
-0.004,0.051,0.998,-0.183,1846326
-0.003,0.051,1.001,-0.183,1846330
-0.003,0.051,1.001,-0.183,1846334
-0.003,0.051,1.001,-0.122,1846338
-0.003,0.051,0.999,-0.183,1846342
-0.003,0.051,0.999,-0.183,1846346
-0.005,0.052,1.0,-0.183,1846350
-0.005,0.052,1.0,-0.183,1846354
-0.005,0.052,1.0,-0.244,1846358
-0.004,0.052,1.001,-0.183,1846362
-0.004,0.052,1.001,-0.244,1846366
-0.004,0.051,0.998,-0.244,1846370
-0.004,0.051,0.998,-0.244,1846374
-0.004,0.051,0.998,-0.122,1846378
-0.004,0.051,0.998,-0.122,1846382
-0.004,0.051,0.998,-0.183,1846386
-0.004,0.052,0.998,-0.122,1846389
-0.004,0.052,0.998,-0.122,1846393
-0.004,0.052,0.998,-0.183,1846397
-0.002,0.052,0.999,-0.183,1846401
-0.002,0.052,0.999,-0.183,1846405
-0.003,0.052,0.998,-0.244,1846409
-0.003,0.052,0.998,-0.244,1846413
-0.003,0.052,0.998,-0.183,1846417
-0.005,0.052,1.0,-0.183,1846421
-0.005,0.052,1.0,-0.183,1846425
-0.004,0.052,1.0,-0.183,1846429
-0.004,0.052,1.0,-0.183,1846433
-0.004,0.052,1.0,-0.183,1846437
-0.005,0.052,1.0,-0.183,1846441
-0.005,0.052,1.0,-0.122,1846445
-0.003,0.052,1.0,-0.061,1846449
-0.003,0.052,1.0,-0.061,1846453
-0.003,0.052,1.0,-0.183,1846457
-0.002,0.052,0.998,-0.305,1846461
-0.002,0.052,0.998,-0.244,1846465
-0.004,0.053,0.998,-0.305,1846469
-0.004,0.053,0.998,-0.305,1846473
-0.004,0.053,0.998,-0.183,1846477
-0.003,0.053,1.0,-0.244,1846481
-0.003,0.053,1.0,-0.427,1846485
-0.001,0.052,1.0,-0.183,1846489
-0.001,0.052,1.0,-0.183,1846493
-0.001,0.052,1.0,-0.183,1846497
-0.001,0.052,0.999,-0.122,1846501
-0.001,0.052,0.999,-0.244,1846505
-0.005,0.051,0.998,-0.122,1846509
-0.005,0.051,0.998,-0.122,1846513
-0.005,0.051,0.998,-0.244,1846517
-0.004,0.052,1.0,-0.183,1846521
-0.004,0.052,1.0,-0.183,1846525
-0.003,0.052,1.0,-0.183,1846529
-0.003,0.052,1.0,-0.183,1846533
-0.003,0.052,1.0,-0.122,1846536
-0.004,0.054,0.999,-0.183,1846540
-0.004,0.054,0.999,-0.244,1846544
-0.003,0.052,0.998,-0.122,1846548
-0.003,0.052,0.998,-0.122,1846552
-0.003,0.052,0.998,-0.122,1846556
-0.003,0.053,0.997,-0.305,1846560
-0.003,0.053,0.997,-0.183,1846564
-0.005,0.054,1.0,-0.122,1846568
-0.005,0.054,1.0,-0.122,1846572
-0.005,0.054,1.0,-0.305,1846576
-0.004,0.053,1.001,-0.244,1846580
-0.004,0.053,1.001,-0.183,1846584
-0.005,0.054,0.998,-0.244,1846588
-0.005,0.054,0.998,-0.244,1846592
-0.005,0.054,0.998,-0.244,1846596
-0.005,0.053,0.998,-0.122,1846600
-0.005,0.053,0.998,-0.244,1846604
-0.004,0.053,0.998,-0.244,1846608
-0.004,0.053,0.998,-0.244,1846612
-0.004,0.053,0.998,-0.122,1846616
-0.004,0.054,0.998,-0.244,1846620
-0.004,0.054,0.998,-0.183,1846624
-0.003,0.053,1.001,-0.183,1846628
-0.003,0.053,1.001,-0.183,1846632
-0.003,0.053,1.001,-0.244,1846636
-0.003,0.051,0.999,-0.244,1846640
-0.003,0.051,0.999,-0.183,1846644
-0.003,0.051,0.999,-0.183,1846648
-0.003,0.051,0.999,-0.183,1846652
-0.003,0.051,0.999,-0.183,1846656
-0.003,0.052,1.0,-0.305,1846660
-0.003,0.052,1.0,-0.244,1846664
-0.004,0.052,0.999,-0.183,1846667
-0.004,0.052,0.999,-0.183,1846671
-0.004,0.052,0.999,-0.183,1846675
-0.005,0.052,0.999,-0.244,1846679
-0.005,0.052,0.999,-0.244,1846683
-0.004,0.052,0.999,-0.305,1846687
-0.004,0.052,0.999,-0.183,1846691
-0.004,0.052,0.999,-0.183,1846695
-0.003,0.051,1.0,-0.244,1846699
-0.003,0.051,1.0,-0.122,1846703
-0.004,0.052,1.0,-0.122,1846707
-0.004,0.052,1.0,-0.122,1846711
-0.004,0.052,1.0,-0.244,1846715
-0.003,0.051,1.0,-0.183,1846719
-0.003,0.051,1.0,-0.122,1846723
-0.002,0.052,1.0,-0.122,1846727
-0.002,0.052,1.0,-0.122,1846731
-0.002,0.052,1.0,-0.183,1846735
-0.003,0.053,1.0,-0.183,1846739
-0.003,0.053,1.0,-0.183,1846743
-0.003,0.051,1.0,-0.183,1846747
-0.003,0.051,1.0,-0.183,1846751
-0.003,0.051,1.0,-0.183,1846755
-0.004,0.052,0.997,-0.366,1846759
-0.004,0.052,0.997,-0.183,1846763
-0.004,0.052,0.999,-0.183,1846767
-0.004,0.052,0.999,-0.183,1846771
-0.004,0.052,0.999,-0.183,1846775
-0.004,0.053,0.999,-0.183,1846779
-0.004,0.053,0.999,-0.244,1846782
-0.005,0.053,0.999,-0.183,1846786
-0.005,0.053,0.999,-0.183,1846790
-0.005,0.053,0.999,-0.122,1846794
-0.004,0.051,0.998,-0.244,1846798
-0.004,0.051,0.998,-0.305,1846802
-0.004,0.053,0.999,-0.183,1846806
-0.004,0.053,0.999,-0.183,1846810
-0.004,0.053,0.999,-0.122,1846814
-0.004,0.054,0.998,-0.122,1846818
-0.004,0.054,0.998,-0.244,1846822
-0.002,0.053,0.998,-0.305,1846826
-0.002,0.053,0.998,-0.305,1846830
-0.002,0.053,0.998,-0.244,1846834
-0.005,0.053,0.997,-0.122,1846838
-0.005,0.053,0.997,-0.183,1846842
-0.004,0.052,1.0,-0.244,1846846
-0.004,0.052,1.0,-0.183,1846850
-0.004,0.052,1.0,-0.183,1846854
-0.006,0.052,0.999,-0.183,1846858
-0.006,0.052,0.999,-0.183,1846862
-0.003,0.053,0.999,-0.122,1846866
-0.003,0.053,0.999,-0.183,1846870
-0.003,0.053,0.999,-0.183,1846874
-0.003,0.051,0.999,-0.183,1846878
-0.003,0.051,0.999,-0.122,1846882
-0.004,0.053,0.999,-0.122,1846886
-0.004,0.053,0.999,-0.122,1846890
-0.004,0.053,0.999,-0.122,1846894
-0.002,0.053,0.999,-0.183,1846898
-0.002,0.053,0.999,-0.244,1846902
-0.004,0.052,0.997,-0.122,1846906
-0.004,0.052,0.997,-0.244,1846910
-0.004,0.052,0.997,-0.244,1846914
-0.006,0.052,1.001,-0.183,1846918
-0.006,0.052,1.001,-0.244,1846922
-0.003,0.052,1.0,-0.061,1846925
-0.003,0.052,1.0,-0.244,1846929
-0.003,0.052,1.0,-0.244,1846933
-0.003,0.051,0.999,-0.305,1846937
-0.003,0.051,0.999,-0.183,1846941
-0.002,0.051,1.0,-0.244,1846945
-0.002,0.051,1.0,-0.244,1846949
-0.002,0.051,1.0,-0.244,1846953
-0.002,0.052,0.998,-0.183,1846957
-0.002,0.052,0.998,-0.305,1846961
-0.001,0.052,1.0,-0.183,1846965
-0.001,0.052,1.0,-0.122,1846969
-0.001,0.052,1.0,-0.122,1846973
-0.002,0.052,1.0,-0.061,1846977
-0.002,0.052,1.0,-0.122,1846981
-0.003,0.052,0.998,-0.183,1846985
-0.003,0.052,0.998,-0.244,1846989
-0.003,0.052,0.998,-0.244,1846993
-0.003,0.052,0.997,-0.305,1846997
-0.003,0.052,0.997,-0.183,1847001
-0.003,0.051,0.999,-0.122,1847005
-0.003,0.051,0.999,-0.305,1847009
-0.003,0.051,0.999,-0.305,1847013
-0.004,0.051,0.999,-0.122,1847017
-0.004,0.051,0.999,-0.183,1847021
-0.003,0.053,0.999,-0.183,1847025
-0.003,0.053,0.999,-0.244,1847029
-0.003,0.053,0.999,-0.244,1847033
-0.004,0.052,0.999,-0.122,1847037
-0.004,0.052,0.999,-0.244,1847041
-0.005,0.054,0.999,-0.305,1847045
-0.005,0.054,0.999,-0.244,1847048
-0.005,0.054,0.999,-0.244,1847052
-0.006,0.052,0.998,-0.305,1847056
-0.006,0.052,0.998,-0.244,1847060
-0.003,0.052,0.999,-0.244,1847064
-0.003,0.052,0.999,-0.183,1847068
-0.003,0.052,0.999,-0.183,1847072
-0.003,0.053,0.998,-0.122,1847076
-0.003,0.053,0.998,-0.183,1847080
-0.005,0.052,1.0,-0.244,1847084
-0.005,0.052,1.0,-0.183,1847088
-0.005,0.052,1.0,-0.183,1847092
-0.003,0.052,0.999,-0.183,1847096
-0.003,0.052,0.999,-0.122,1847100
-0.004,0.053,0.998,-0.122,1847104
-0.004,0.053,0.998,-0.122,1847108
-0.004,0.053,0.998,-0.122,1847112
-0.003,0.054,0.996,-0.183,1847116
-0.003,0.054,0.996,-0.183,1847120
-0.002,0.054,0.999,-0.183,1847124
-0.002,0.054,0.999,-0.122,1847128
-0.002,0.054,0.999,-0.122,1847132
-0.004,0.054,0.999,-0.183,1847136
-0.004,0.054,0.999,-0.061,1847140
-0.004,0.053,0.997,-0.183,1847144
-0.004,0.053,0.997,-0.305,1847148
-0.004,0.053,0.997,-0.305,1847152
-0.004,0.052,0.998,-0.122,1847156
-0.004,0.052,0.998,-0.305,1847160
-0.004,0.052,0.999,-0.366,1847164
-0.004,0.052,0.999,-0.122,1847168
-0.004,0.052,0.999,-0.122,1847172
-0.003,0.051,1.001,-0.244,1847176
-0.003,0.051,1.001,-0.366,1847180
-0.001,0.052,1.001,-0.183,1847183
-0.001,0.052,1.001,0.0,1847187
-0.001,0.052,1.001,0.0,1847191
-0.003,0.05,0.998,-0.183,1847195
-0.003,0.05,0.998,-0.244,1847199
-0.004,0.05,1.0,-0.183,1847203
-0.004,0.05,1.0,-0.183,1847207
-0.004,0.05,1.0,-0.183,1847211
-0.001,0.051,1.001,-0.244,1847215
-0.001,0.051,1.001,-0.183,1847219
-0.003,0.052,1.001,-0.122,1847223
-0.003,0.052,1.001,-0.122,1847227
-0.003,0.052,1.001,-0.122,1847231
-0.005,0.053,1.0,-0.183,1847235
-0.005,0.053,1.0,-0.366,1847239
-0.005,0.052,0.997,-0.305,1847243
-0.005,0.052,0.997,-0.122,1847247
-0.005,0.052,0.997,-0.122,1847251
-0.005,0.052,0.998,-0.122,1847255
-0.005,0.052,0.998,-0.244,1847259
-0.004,0.052,0.998,-0.122,1847263
-0.004,0.052,0.998,-0.183,1847267
-0.004,0.052,0.998,-0.183,1847271
-0.003,0.053,0.998,-0.122,1847275
-0.003,0.053,0.998,-0.183,1847279
-0.003,0.051,0.997,-0.183,1847283
-0.003,0.051,0.997,-0.244,1847287
-0.003,0.051,0.997,-0.244,1847291
-0.003,0.052,0.996,-0.244,1847295
-0.003,0.052,0.996,-0.244,1847298
-0.004,0.053,0.999,-0.061,1847302
-0.004,0.053,0.999,-0.122,1847306
-0.004,0.053,0.999,-0.122,1847310
-0.002,0.052,0.999,-0.244,1847314
-0.002,0.052,0.999,-0.122,1847318
-0.004,0.053,1.0,-0.244,1847322
-0.004,0.053,1.0,-0.183,1847326
-0.004,0.053,1.0,-0.183,1847330
-0.006,0.052,1.0,-0.305,1847334
-0.006,0.052,1.0,-0.305,1847338
-0.004,0.053,1.0,-0.061,1847342
-0.004,0.053,1.0,-0.183,1847346
-0.004,0.053,1.0,-0.183,1847350
-0.003,0.053,1.0,-0.244,1847354
-0.003,0.053,1.0,-0.305,1847358
-0.004,0.052,0.999,-0.183,1847362
-0.004,0.052,0.999,-0.183,1847366
-0.004,0.052,0.999,-0.183,1847370
-0.004,0.052,0.999,-0.183,1847374
-0.004,0.052,0.999,-0.061,1847378
-0.003,0.052,1.0,-0.183,1847382
-0.003,0.052,1.0,-0.122,1847386
-0.003,0.052,1.0,-0.122,1847390
-0.003,0.051,0.998,-0.183,1847394
-0.003,0.051,0.998,-0.122,1847398
-0.004,0.052,0.998,-0.122,1847402
-0.004,0.052,0.998,-0.122,1847406
-0.004,0.052,0.998,-0.122,1847410
-0.002,0.052,1.0,-0.183,1847414
-0.002,0.052,1.0,-0.183,1847418
-0.005,0.052,0.999,-0.305,1847422
-0.005,0.052,0.999,-0.122,1847425
-0.005,0.052,0.999,-0.122,1847429
-0.005,0.053,0.998,-0.183,1847433
-0.005,0.053,0.998,-0.244,1847437
-0.004,0.052,0.999,-0.183,1847441
-0.004,0.052,0.999,-0.183,1847445
-0.004,0.052,0.999,-0.183,1847449
-0.001,0.052,1.0,-0.244,1847453
-0.001,0.052,1.0,-0.061,1847457
-0.004,0.051,0.999,-0.183,1847461
-0.004,0.051,0.999,-0.244,1847465
-0.004,0.051,0.999,-0.244,1847469
-0.006,0.052,0.998,-0.122,1847473
-0.006,0.052,0.998,-0.122,1847477
-0.004,0.052,0.999,-0.183,1847481
-0.004,0.052,0.999,-0.244,1847485
-0.004,0.052,0.999,-0.244,1847489
-0.002,0.052,0.999,-0.244,1847493
-0.002,0.052,0.999,-0.244,1847497
-0.002,0.052,0.999,-0.122,1847501
-0.002,0.052,0.999,-0.183,1847505
-0.002,0.052,0.999,-0.183,1847509
-0.003,0.052,1.001,-0.244,1847513
-0.003,0.052,1.001,-0.244,1847517
-0.002,0.053,0.999,-0.244,1847521
-0.002,0.053,0.999,-0.183,1847525
-0.002,0.053,0.999,-0.183,1847529
-0.003,0.052,0.997,-0.183,1847533
-0.003,0.052,0.997,-0.183,1847537
-0.002,0.053,0.998,-0.183,1847541
-0.002,0.053,0.998,-0.122,1847545
-0.002,0.053,0.998,-0.122,1847549
-0.002,0.052,1.002,-0.183,1847553
-0.002,0.052,1.002,-0.366,1847556
-0.002,0.052,1.0,-0.244,1847560
-0.002,0.052,1.0,-0.183,1847564
-0.002,0.052,1.0,-0.183,1847568
-0.004,0.052,0.999,-0.122,1847572
-0.004,0.052,0.999,-0.122,1847576
-0.005,0.051,0.999,-0.244,1847580
-0.005,0.051,0.999,-0.305,1847584
-0.005,0.051,0.999,-0.305,1847588
-0.003,0.053,1.0,-0.244,1847592
-0.003,0.053,1.0,-0.183,1847596
-0.003,0.051,0.998,-0.244,1847600
-0.003,0.051,0.998,-0.244,1847604
-0.003,0.051,0.998,-0.244,1847608
-0.002,0.051,0.997,-0.244,1847612
-0.002,0.051,0.997,-0.183,1847616
-0.004,0.052,0.999,-0.122,1847620
-0.004,0.052,0.999,-0.183,1847624
-0.004,0.052,0.999,-0.183,1847628
-0.003,0.052,0.998,-0.183,1847632
-0.003,0.052,0.998,-0.183,1847636
-0.004,0.053,0.998,-0.244,1847640
-0.004,0.053,0.998,-0.183,1847644
-0.004,0.053,0.998,-0.183,1847648
-0.004,0.054,0.999,-0.183,1847652
-0.004,0.054,0.999,-0.183,1847656
-0.004,0.052,0.999,-0.183,1847660
-0.004,0.052,0.999,-0.305,1847664
-0.004,0.052,0.999,-0.305,1847668
-0.005,0.052,1.0,-0.366,1847672
-0.005,0.052,1.0,-0.427,1847676
-0.004,0.054,1.001,-0.305,1847680
-0.004,0.054,1.001,-0.244,1847684
-0.004,0.054,1.001,-0.244,1847688
-0.004,0.052,0.998,-0.183,1847691
-0.004,0.052,0.998,-0.244,1847695
-0.003,0.051,0.999,-0.305,1847699
-0.003,0.051,0.999,-0.305,1847703
-0.003,0.051,0.999,-0.305,1847707
-0.005,0.053,1.0,-0.305,1847711
-0.005,0.053,1.0,-0.366,1847715
-0.002,0.053,0.999,-0.305,1847719
-0.002,0.053,0.999,-0.244,1847723
-0.002,0.053,0.999,-0.244,1847727
-0.004,0.051,0.998,-0.183,1847731
-0.004,0.051,0.998,-0.244,1847735
-0.002,0.052,0.998,-0.183,1847739
-0.002,0.052,0.998,-0.305,1847743
-0.002,0.052,0.998,-0.305,1847747
-0.003,0.051,0.999,-0.183,1847751
-0.003,0.051,0.999,-0.061,1847755
-0.004,0.051,0.999,-0.183,1847759
-0.004,0.051,0.999,-0.183,1847763
-0.004,0.051,0.999,-0.183,1847767
-0.003,0.053,0.999,-0.183,1847771
-0.003,0.053,0.999,-0.122,1847775
-0.003,0.053,1.001,-0.122,1847779
-0.003,0.053,1.001,-0.366,1847783
-0.003,0.053,1.001,-0.366,1847787
-0.005,0.053,0.999,-0.305,1847791
-0.005,0.053,0.999,-0.183,1847795
-0.002,0.052,0.999,-0.122,1847799
-0.002,0.052,0.999,-0.183,1847803
-0.002,0.052,0.999,-0.183,1847807
-0.002,0.052,1.0,-0.244,1847811
-0.002,0.052,1.0,-0.305,1847815
-0.003,0.052,1.0,-0.183,1847819
-0.003,0.052,1.0,-0.122,1847822
-0.003,0.052,1.0,-0.122,1847826
-0.005,0.052,1.0,-0.061,1847830
-0.005,0.052,1.0,-0.122,1847834
-0.003,0.052,0.998,-0.183,1847838
-0.003,0.052,0.998,-0.244,1847842
-0.003,0.052,0.998,-0.244,1847846
-0.004,0.052,1.001,-0.122,1847850
-0.004,0.052,1.001,-0.366,1847854
-0.003,0.052,1.001,-0.061,1847858
-0.003,0.052,1.001,-0.061,1847862
-0.003,0.052,1.001,-0.061,1847866
-0.004,0.053,1.0,-0.183,1847870
-0.004,0.053,1.0,-0.244,1847874
-0.004,0.053,1.001,-0.244,1847878
-0.004,0.053,1.001,-0.183,1847882
-0.004,0.053,1.001,-0.183,1847886
-0.003,0.052,1.0,-0.183,1847890
-0.003,0.052,1.0,-0.122,1847894
-0.004,0.051,1.0,-0.244,1847898
-0.004,0.051,1.0,-0.305,1847902
-0.004,0.051,1.0,-0.305,1847906
-0.004,0.053,0.998,-0.244,1847910
-0.004,0.053,0.998,-0.183,1847914
-0.004,0.052,0.997,-0.183,1847918
-0.004,0.052,0.997,-0.122,1847922
-0.004,0.052,0.997,-0.122,1847926
-0.004,0.05,1.0,-0.244,1847930
-0.004,0.05,1.0,-0.305,1847934
-0.003,0.051,1.0,-0.183,1847938
-0.003,0.051,1.0,-0.183,1847942
-0.003,0.051,1.0,-0.183,1847946
-0.002,0.051,0.999,-0.183,1847950
-0.002,0.051,0.999,-0.305,1847954
-0.002,0.051,1.0,-0.122,1847958
-0.002,0.051,1.0,-0.305,1847961
-0.002,0.051,1.0,-0.305,1847965
-0.003,0.052,0.999,-0.244,1847969
-0.003,0.052,0.999,-0.244,1847973
-0.003,0.052,0.999,-0.183,1847977
-0.003,0.052,0.999,-0.183,1847981
-0.003,0.052,0.999,-0.183,1847985
-0.004,0.052,1.0,-0.061,1847989
-0.004,0.052,1.0,-0.244,1847993
-0.004,0.052,1.0,-0.183,1847997
-0.004,0.052,1.0,-0.183,1848001
-0.004,0.052,1.0,-0.183,1848005
-0.003,0.052,0.998,-0.244,1848009
-0.003,0.052,0.998,-0.183,1848013
-0.003,0.052,0.998,-0.183,1848017
-0.003,0.052,0.998,-0.244,1848021
-0.003,0.052,0.998,-0.244,1848025
-0.004,0.052,1.0,-0.305,1848029
-0.004,0.052,1.0,-0.122,1848033
-0.004,0.053,1.0,-0.183,1848037
-0.004,0.053,1.0,-0.244,1848041
-0.004,0.053,1.0,-0.244,1848045
-0.003,0.051,1.0,-0.183,1848049
-0.003,0.051,1.0,-0.061,1848053
-0.004,0.052,1.0,-0.366,1848057
-0.004,0.052,1.0,-0.122,1848061
-0.004,0.052,1.0,-0.122,1848065
-0.002,0.053,0.999,-0.122,1848069
-0.002,0.053,0.999,-0.244,1848073
-0.003,0.052,0.998,-0.244,1848077
-0.003,0.052,0.998,-0.183,1848081
-0.003,0.052,0.998,-0.183,1848085
-0.005,0.052,0.998,-0.244,1848089
-0.005,0.052,0.998,-0.183,1848092
-0.004,0.052,0.999,-0.183,1848096
-0.004,0.052,0.999,-0.122,1848100
-0.004,0.052,0.999,-0.122,1848104
-0.004,0.054,0.998,-0.122,1848108
-0.004,0.054,0.998,-0.183,1848112
-0.004,0.053,1.0,-0.305,1848116
-0.004,0.053,1.0,-0.183,1848120
-0.004,0.053,1.0,-0.183,1848124
-0.001,0.052,1.0,-0.122,1848128
-0.001,0.052,1.0,-0.183,1848132
-0.003,0.052,0.998,-0.244,1848136
-0.003,0.052,0.998,-0.244,1848140
-0.003,0.052,0.998,-0.244,1848144
-0.005,0.051,0.999,-0.183,1848148
-0.005,0.051,0.999,-0.244,1848152
-0.004,0.052,1.001,-0.244,1848156
-0.004,0.052,1.001,-0.244,1848160
-0.004,0.052,1.001,-0.244,1848164
-0.004,0.053,0.997,-0.122,1848168
-0.004,0.053,0.997,-0.183,1848172
-0.004,0.054,0.998,-0.183,1848176
-0.004,0.054,0.998,-0.183,1848180
-0.004,0.054,0.998,-0.183,1848184
-0.004,0.052,1.0,-0.122,1848188
-0.004,0.052,1.0,-0.244,1848192
-0.003,0.052,0.999,-0.183,1848196
-0.003,0.052,0.999,-0.183,1848200
-0.003,0.052,0.999,-0.183,1848204
-0.004,0.052,0.997,-0.183,1848208
-0.004,0.052,0.997,-0.122,1848212
-0.006,0.052,0.999,-0.244,1848216
-0.006,0.052,0.999,-0.366,1848220
-0.006,0.052,0.999,-0.366,1848224
-0.005,0.052,0.999,-0.305,1848227
-0.005,0.052,0.999,-0.244,1848231
-0.004,0.052,0.999,-0.183,1848235
-0.004,0.052,0.999,-0.244,1848239
-0.004,0.052,0.999,-0.244,1848243
-0.005,0.052,0.999,-0.305,1848247
-0.005,0.052,0.999,-0.183,1848251
-0.003,0.051,0.999,-0.061,1848255
-0.003,0.051,0.999,-0.061,1848259
-0.003,0.051,0.999,-0.061,1848263
-0.004,0.052,0.999,-0.183,1848267
-0.004,0.052,0.999,-0.244,1848271
-0.002,0.052,0.999,-0.183,1848275
-0.002,0.052,0.999,-0.061,1848279
-0.002,0.052,0.999,-0.061,1848283
-0.002,0.051,0.998,-0.122,1848287
-0.002,0.051,0.998,-0.244,1848291
-0.004,0.051,1.0,-0.061,1848295
-0.004,0.051,1.0,-0.244,1848299
-0.004,0.051,1.0,-0.244,1848303
-0.003,0.052,1.0,-0.244,1848307
-0.003,0.052,1.0,-0.244,1848311
-0.003,0.053,1.0,-0.366,1848315
-0.003,0.053,1.0,-0.183,1848319
-0.003,0.053,1.0,-0.183,1848323
-0.002,0.052,0.999,-0.122,1848327
-0.002,0.052,0.999,-0.244,1848331
-0.004,0.052,0.998,-0.183,1848335
-0.004,0.052,0.998,-0.183,1848339
-0.004,0.052,0.998,-0.183,1848343
-0.004,0.052,0.998,-0.183,1848347
-0.004,0.052,0.998,-0.183,1848351
-0.004,0.053,0.999,-0.183,1848355
-0.004,0.053,0.999,-0.183,1848359
-0.004,0.053,0.999,-0.183,1848362
-0.003,0.052,1.0,-0.122,1848366
-0.003,0.052,1.0,-0.122,1848370
-0.002,0.052,0.999,-0.305,1848374
-0.002,0.052,0.999,-0.305,1848378
-0.002,0.052,0.999,-0.305,1848382
-0.002,0.051,0.999,-0.244,1848386
-0.002,0.051,0.999,-0.183,1848390
-0.004,0.051,1.0,-0.183,1848394
-0.004,0.051,1.0,-0.305,1848398
-0.004,0.051,1.0,-0.305,1848402
-0.005,0.052,0.998,-0.244,1848406
-0.005,0.052,0.998,-0.122,1848410
-0.004,0.053,0.998,-0.183,1848414
-0.004,0.053,0.998,-0.122,1848418
-0.004,0.053,0.998,-0.122,1848422
-0.004,0.052,0.999,-0.122,1848426
-0.004,0.052,0.999,-0.061,1848430
-0.002,0.052,0.998,-0.122,1848434
-0.002,0.052,0.998,-0.122,1848438
-0.002,0.052,0.998,-0.122,1848442
-0.003,0.051,0.997,-0.305,1848446
-0.003,0.051,0.997,-0.183,1848450
-0.004,0.051,0.998,-0.122,1848454
-0.004,0.051,0.998,-0.305,1848458
-0.004,0.051,0.998,-0.305,1848462
-0.003,0.052,0.999,-0.122,1848466
-0.003,0.052,0.999,-0.122,1848470
-0.006,0.053,0.999,-0.305,1848474
-0.006,0.053,0.999,-0.183,1848478
-0.006,0.053,0.999,-0.183,1848482
-0.003,0.051,1.0,-0.122,1848486
-0.003,0.051,1.0,-0.305,1848490
-0.004,0.051,0.998,-0.183,1848493
-0.004,0.051,0.998,-0.122,1848497
-0.004,0.051,0.998,-0.122,1848501
-0.003,0.051,1.0,-0.183,1848505
-0.003,0.051,1.0,-0.183,1848509
-0.004,0.052,0.999,-0.122,1848513
-0.004,0.052,0.999,-0.122,1848517
-0.004,0.052,0.999,-0.122,1848521
-0.004,0.053,0.999,-0.122,1848525
-0.004,0.053,0.999,-0.244,1848529
-0.003,0.052,1.0,-0.183,1848533
-0.003,0.052,1.0,-0.244,1848537
-0.003,0.052,1.0,-0.244,1848541
-0.004,0.052,0.999,-0.122,1848545
-0.004,0.052,0.999,-0.244,1848549
-0.004,0.052,0.999,-0.244,1848553
-0.004,0.052,0.999,-0.244,1848557
-0.004,0.052,0.999,-0.244,1848561
-0.003,0.052,1.001,-0.061,1848565
-0.003,0.052,1.001,-0.244,1848569
-0.003,0.051,1.0,-0.244,1848573
-0.003,0.051,1.0,-0.305,1848577
-0.003,0.051,1.0,-0.305,1848581
-0.003,0.051,1.0,-0.244,1848585
-0.003,0.051,1.0,-0.244,1848589
-0.005,0.052,1.0,-0.305,1848593
-0.005,0.052,1.0,-0.183,1848597
-0.005,0.052,1.0,-0.183,1848601
-0.004,0.052,0.999,-0.122,1848605
-0.004,0.052,0.999,-0.244,1848609
-0.004,0.052,1.0,-0.183,1848613
-0.004,0.052,1.0,-0.183,1848616
-0.004,0.052,1.0,-0.183,1848620
-0.003,0.052,0.999,-0.183,1848624
-0.003,0.052,0.999,-0.183,1848628
-0.005,0.053,0.997,-0.061,1848632
-0.005,0.053,0.997,-0.244,1848636
-0.005,0.053,0.997,-0.244,1848640
-0.005,0.052,0.998,-0.122,1848644
-0.005,0.052,0.998,-0.122,1848648
-0.002,0.052,0.998,-0.244,1848652
-0.002,0.052,0.998,-0.122,1848656
-0.002,0.052,0.998,-0.122,1848660
-0.003,0.052,1.0,-0.122,1848664
-0.003,0.052,1.0,-0.183,1848668
-0.005,0.054,0.999,-0.122,1848672
-0.005,0.054,0.999,-0.183,1848676
-0.005,0.054,0.999,-0.183,1848680
-0.005,0.052,0.998,-0.244,1848684
-0.005,0.052,0.998,-0.183,1848688
-0.004,0.052,0.997,-0.183,1848692
-0.004,0.052,0.997,-0.183,1848696
-0.004,0.052,0.997,-0.183,1848700
-0.005,0.052,0.999,-0.305,1848704
-0.005,0.052,0.999,-0.183,1848708
-0.003,0.052,1.0,-0.061,1848712
-0.003,0.052,1.0,-0.183,1848716
-0.003,0.052,1.0,-0.183,1848720
-0.003,0.053,1.0,-0.244,1848724
-0.003,0.053,1.0,-0.305,1848728
-0.003,0.052,1.0,-0.305,1848732
-0.003,0.052,1.0,-0.244,1848736
-0.003,0.052,1.0,-0.244,1848740
-0.003,0.052,1.0,-0.183,1848744
-0.003,0.052,1.0,-0.244,1848747
-0.004,0.051,0.998,-0.061,1848751
-0.004,0.051,0.998,-0.244,1848755
-0.004,0.051,0.998,-0.244,1848759
-0.003,0.051,0.999,-0.061,1848763
-0.003,0.051,0.999,-0.061,1848767
-0.004,0.052,1.001,-0.122,1848771
-0.004,0.052,1.001,-0.122,1848775
-0.004,0.052,1.001,-0.122,1848779
-0.003,0.052,1.0,-0.183,1848783
-0.003,0.052,1.0,-0.183,1848787
-0.002,0.052,1.0,-0.244,1848791
-0.002,0.052,1.0,-0.183,1848795
-0.002,0.052,1.0,-0.183,1848799
-0.003,0.05,1.001,-0.183,1848803
-0.003,0.05,1.001,-0.122,1848807
-0.004,0.051,1.001,-0.305,1848811
-0.004,0.051,1.001,-0.183,1848815
-0.004,0.051,1.001,-0.183,1848819
-0.004,0.052,0.999,-0.183,1848823
-0.004,0.052,0.999,-0.305,1848827
-0.003,0.051,0.998,-0.183,1848831
-0.003,0.051,0.998,-0.244,1848835
-0.003,0.051,0.998,-0.244,1848839
-0.003,0.053,0.999,-0.183,1848843
-0.003,0.053,0.999,-0.305,1848847
-0.002,0.051,0.999,-0.183,1848851
-0.002,0.051,0.999,-0.183,1848855
-0.002,0.051,0.999,-0.183,1848859
-0.004,0.052,0.999,-0.244,1848863
-0.004,0.052,0.999,-0.183,1848867
-0.005,0.052,1.0,-0.183,1848871
-0.005,0.052,1.0,-0.183,1848875
-0.004,0.053,1.0,-0.305,1848878
-0.004,0.053,1.0,-0.305,1848882
-0.004,0.053,1.0,-0.305,1848886
-0.005,0.052,1.0,-0.183,1848890
-0.005,0.052,1.0,-0.122,1848894
-0.003,0.054,1.0,-0.244,1848898
-0.003,0.054,1.0,-0.244,1848902
-0.003,0.054,1.0,0.0,1848906
-0.004,0.052,0.999,-0.122,1848910
-0.004,0.052,0.999,-0.244,1848914
-0.004,0.052,0.999,-0.244,1848918
-0.006,0.054,0.999,-0.183,1848922
-0.006,0.054,0.999,-0.305,1848926
-0.006,0.052,0.997,-0.305,1848930
-0.006,0.052,0.997,-0.183,1848934
-0.006,0.052,0.997,-0.183,1848938
-0.004,0.051,1.0,-0.122,1848942
-0.004,0.051,1.0,-0.244,1848946
-0.005,0.051,1.0,-0.122,1848950
-0.005,0.051,1.0,-0.305,1848954
-0.005,0.051,1.0,-0.305,1848958
-0.003,0.053,0.998,-0.244,1848962
-0.003,0.053,0.998,-0.183,1848966
-0.004,0.051,0.998,-0.122,1848970
-0.004,0.051,0.998,-0.244,1848974
-0.003,0.05,1.001,-0.244,1848978
-0.003,0.05,1.001,-0.244,1848982
-0.003,0.05,1.001,-0.244,1848986
-0.004,0.052,0.998,-0.244,1848990
-0.004,0.052,0.998,-0.244,1848994
-0.003,0.052,1.0,-0.244,1848998
-0.003,0.052,1.0,-0.244,1849001
-0.003,0.052,1.0,-0.183,1849005
-0.003,0.052,1.0,-0.183,1849009
-0.003,0.052,1.0,0.0,1849013
-0.003,0.052,1.0,0.0,1849017
-0.004,0.052,1.0,-0.183,1849021
-0.004,0.052,1.0,-0.427,1849025
-0.003,0.052,0.998,-0.244,1849029
-0.003,0.052,0.998,-0.122,1849033
-0.003,0.052,0.998,-0.122,1849037
-0.004,0.053,0.997,-0.183,1849041
-0.004,0.053,0.997,-0.183,1849045
-0.003,0.052,0.998,-0.244,1849049
-0.003,0.052,0.998,-0.183,1849053
-0.003,0.051,1.0,-0.122,1849057
-0.003,0.051,1.0,-0.122,1849061
-0.003,0.051,1.0,-0.183,1849065
-0.005,0.051,0.999,-0.305,1849069
-0.005,0.051,0.999,-0.244,1849073
-0.004,0.052,0.999,-0.183,1849077
-0.004,0.052,0.999,-0.183,1849081
-0.004,0.052,0.999,-0.122,1849085
-0.004,0.05,1.0,-0.244,1849089
-0.004,0.05,1.0,-0.244,1849093
-0.003,0.052,0.999,-0.122,1849097
-0.003,0.052,0.999,-0.122,1849101
-0.003,0.052,0.999,-0.122,1849105
-0.002,0.053,0.999,-0.244,1849109
-0.002,0.053,0.999,-0.244,1849113
-0.005,0.052,0.998,-0.305,1849117
-0.005,0.052,0.998,-0.305,1849120
-0.005,0.052,0.998,-0.244,1849124
-0.003,0.052,0.998,-0.244,1849128
-0.003,0.052,0.998,-0.244,1849132
-0.005,0.053,0.999,-0.244,1849136
-0.005,0.053,0.999,-0.244,1849140
-0.005,0.053,0.999,-0.183,1849144
-0.004,0.053,1.0,-0.244,1849148
-0.004,0.053,1.0,-0.366,1849152
-0.004,0.053,0.999,-0.183,1849156
-0.004,0.053,0.999,-0.183,1849160
-0.004,0.053,0.999,-0.183,1849164
-0.003,0.052,0.998,-0.183,1849168
-0.003,0.052,0.998,-0.122,1849172
-0.004,0.05,1.0,-0.183,1849176
-0.004,0.05,1.0,-0.183,1849180
-0.004,0.05,1.0,-0.244,1849184
-0.003,0.051,0.999,-0.244,1849188
-0.003,0.051,0.999,-0.305,1849192
-0.002,0.051,0.998,-0.305,1849196
-0.002,0.051,0.998,-0.305,1849200
-0.002,0.051,0.998,-0.183,1849204
-0.001,0.052,1.0,-0.244,1849208
-0.001,0.052,1.0,-0.183,1849212
-0.003,0.052,1.0,-0.183,1849216
-0.003,0.052,1.0,-0.183,1849220
-0.003,0.052,1.0,-0.183,1849224
-0.004,0.052,0.999,-0.244,1849228
-0.004,0.052,0.999,-0.244,1849232
-0.004,0.053,0.999,-0.183,1849236
-0.004,0.053,0.999,-0.183,1849240
-0.004,0.053,0.999,-0.183,1849244
-0.004,0.052,0.998,-0.244,1849248
-0.004,0.052,0.998,-0.122,1849252
-0.005,0.053,1.001,-0.183,1849256
-0.005,0.053,1.001,-0.183,1849260
-0.005,0.053,1.001,-0.183,1849263
-0.004,0.053,1.0,-0.122,1849267
-0.004,0.053,1.0,-0.122,1849271
-0.004,0.053,0.999,-0.122,1849275
-0.004,0.053,0.999,-0.122,1849279
-0.004,0.053,0.999,-0.305,1849283
-0.003,0.052,1.001,-0.183,1849287
-0.003,0.052,1.001,-0.122,1849291
-0.003,0.052,0.998,-0.122,1849295
-0.003,0.052,0.998,-0.122,1849299
-0.003,0.052,0.998,-0.183,1849303
-0.003,0.053,1.0,-0.183,1849307
-0.003,0.053,1.0,-0.183,1849311
-0.003,0.053,1.0,-0.183,1849315
-0.003,0.053,1.0,-0.183,1849319
-0.003,0.053,1.0,-0.122,1849323
-0.002,0.052,1.0,-0.183,1849327
-0.002,0.052,1.0,-0.122,1849331
-0.004,0.052,0.998,-0.122,1849335
-0.004,0.052,0.998,-0.122,1849339
-0.004,0.052,0.998,-0.244,1849343
-0.005,0.052,0.997,-0.366,1849347
-0.005,0.052,0.997,-0.244,1849351
-0.004,0.051,1.001,-0.122,1849355
-0.004,0.051,1.001,-0.122,1849359
-0.004,0.051,1.001,-0.183,1849363
-0.003,0.052,1.0,-0.244,1849367
-0.003,0.052,1.0,-0.122,1849371
-0.002,0.051,0.999,-0.061,1849375
-0.002,0.051,0.999,-0.061,1849379
-0.002,0.051,0.999,-0.122,1849383
-0.003,0.052,1.0,-0.244,1849387
-0.003,0.052,1.0,-0.244,1849391
-0.004,0.052,1.0,-0.305,1849395
-0.004,0.052,1.0,-0.305,1849398
-0.004,0.052,1.0,-0.183,1849402
-0.003,0.053,0.999,-0.183,1849406
-0.003,0.053,0.999,-0.183,1849410
-0.003,0.052,0.999,-0.244,1849414
-0.003,0.052,0.999,-0.244,1849418
-0.003,0.052,0.999,-0.183,1849422
-0.005,0.051,1.0,-0.122,1849426
-0.005,0.051,1.0,-0.122,1849430
-0.005,0.051,1.0,-0.061,1849434
-0.005,0.051,1.0,-0.061,1849438
-0.005,0.051,1.0,-0.183,1849442
-0.003,0.052,0.998,-0.244,1849446
-0.003,0.052,0.998,-0.061,1849450
-0.003,0.052,0.998,0.0,1849454
-0.003,0.052,0.998,0.0,1849458
-0.003,0.052,0.998,-0.122,1849462
-0.002,0.051,0.998,-0.244,1849466
-0.002,0.051,0.998,-0.244,1849470
-0.003,0.053,0.998,-0.122,1849474
-0.003,0.053,0.998,-0.122,1849478
-0.003,0.053,0.998,-0.122,1849482
-0.003,0.052,0.997,-0.183,1849486
-0.003,0.052,0.997,-0.183,1849490
-0.004,0.053,0.998,0.0,1849494
-0.004,0.053,0.998,0.0,1849498
-0.004,0.053,0.998,-0.061,1849501
-0.005,0.051,0.998,-0.183,1849505
-0.005,0.051,0.998,-0.183,1849509
-0.004,0.051,0.999,-0.061,1849513
-0.004,0.051,0.999,-0.061,1849517
-0.004,0.051,0.999,-0.061,1849521
-0.002,0.052,0.999,-0.061,1849525
-0.002,0.052,0.999,-0.244,1849529
-0.003,0.051,0.999,-0.244,1849533
-0.003,0.051,0.999,-0.244,1849537
-0.003,0.051,0.999,-0.183,1849541
-0.005,0.051,0.999,0.0,1849545
-0.005,0.051,0.999,-0.122,1849549
-0.005,0.052,1.0,-0.244,1849553
-0.005,0.052,1.0,-0.244,1849557
-0.005,0.052,1.0,-0.244,1849561
-0.003,0.052,1.0,-0.183,1849565
-0.003,0.052,1.0,-0.183,1849569
-0.002,0.052,0.998,-0.244,1849573
-0.002,0.052,0.998,-0.244,1849577
-0.002,0.052,0.998,-0.183,1849581
-0.003,0.052,0.999,-0.183,1849585
-0.003,0.052,0.999,-0.244,1849589
-0.002,0.053,0.999,-0.244,1849593
-0.002,0.053,0.999,-0.244,1849597
-0.002,0.053,0.999,-0.183,1849601
-0.003,0.052,1.001,-0.244,1849605
-0.003,0.052,1.001,-0.305,1849609
-0.005,0.053,0.999,-0.244,1849613
-0.005,0.053,0.999,-0.244,1849617
-0.005,0.053,0.999,-0.122,1849621
-0.005,0.052,0.999,-0.244,1849625
-0.005,0.052,0.999,-0.244,1849628
-0.003,0.051,0.999,-0.183,1849632
-0.003,0.051,0.999,-0.183,1849636
-0.003,0.051,0.999,-0.183,1849640
-0.003,0.053,1.0,-0.244,1849644
-0.003,0.053,1.0,-0.183,1849648
-0.004,0.052,0.997,-0.183,1849652
-0.004,0.052,0.997,-0.183,1849656
-0.004,0.052,0.997,-0.183,1849660
-0.002,0.051,0.999,-0.183,1849664
-0.002,0.051,0.999,-0.061,1849668
-0.002,0.052,0.999,-0.061,1849672
-0.002,0.052,0.999,-0.061,1849676
-0.002,0.052,0.999,-0.122,1849680
-0.005,0.052,0.999,-0.183,1849684
-0.005,0.052,0.999,-0.061,1849688
-0.002,0.052,1.0,-0.061,1849692
-0.002,0.052,1.0,-0.061,1849696
-0.002,0.052,1.0,-0.244,1849700
-0.003,0.052,1.0,-0.305,1849704
-0.003,0.052,1.0,-0.122,1849708
-0.004,0.053,0.999,-0.183,1849712
-0.004,0.053,0.999,-0.183,1849716
-0.004,0.053,0.999,-0.305,1849720
-0.004,0.052,1.0,-0.305,1849724
-0.004,0.052,1.0,-0.183,1849728
-0.005,0.051,1.0,-0.122,1849732
-0.005,0.051,1.0,-0.122,1849736
-0.005,0.051,1.0,-0.122,1849740
-0.003,0.051,0.999,-0.244,1849744
-0.003,0.051,0.999,-0.244,1849748
-0.003,0.052,0.999,-0.122,1849752
-0.003,0.052,0.999,-0.122,1849756
-0.003,0.052,0.999,-0.244,1849759
-0.003,0.052,1.0,-0.244,1849763
-0.003,0.052,1.0,-0.183,1849767
-0.003,0.053,1.0,-0.244,1849771
-0.003,0.053,1.0,-0.244,1849775
-0.003,0.053,1.0,-0.183,1849779
-0.004,0.051,1.0,-0.244,1849783
-0.004,0.051,1.0,-0.244,1849787
-0.002,0.052,1.0,-0.183,1849791
-0.002,0.052,1.0,-0.183,1849795
-0.002,0.052,1.0,-0.244,1849799
-0.003,0.053,1.0,-0.244,1849803
-0.003,0.053,1.0,-0.305,1849807
-0.004,0.054,0.997,-0.183,1849811
-0.004,0.054,0.997,-0.183,1849815
-0.004,0.054,0.997,-0.061,1849819
-0.004,0.052,0.999,-0.122,1849823
-0.004,0.052,0.999,-0.183,1849827
-0.004,0.052,0.999,-0.183,1849831
-0.004,0.052,0.999,-0.183,1849835
-0.004,0.052,0.999,-0.061,1849839
-0.002,0.052,1.001,-0.183,1849843
-0.002,0.052,1.001,-0.305,1849847
-0.003,0.05,0.999,-0.122,1849851
-0.003,0.05,0.999,-0.122,1849855
-0.003,0.05,0.999,-0.061,1849859
-0.005,0.051,0.999,-0.244,1849863
-0.005,0.051,0.999,-0.183,1849867
-0.005,0.052,0.999,-0.122,1849871
-0.005,0.052,0.999,-0.122,1849875
-0.005,0.052,0.999,-0.183,1849879
-0.002,0.052,0.998,-0.244,1849883
-0.002,0.052,0.998,-0.244,1849887
-0.002,0.053,0.998,-0.244,1849891
-0.002,0.053,0.998,-0.244,1849895
-0.002,0.053,0.998,-0.122,1849899
-0.004,0.053,0.997,-0.061,1849903
-0.004,0.053,0.997,-0.183,1849907
-0.004,0.054,1.0,-0.122,1849910
-0.004,0.054,1.0,-0.122,1849914
-0.004,0.054,1.0,-0.183,1849918
-0.004,0.054,1.0,-0.244,1849922
-0.004,0.054,1.0,-0.122,1849926
-0.003,0.05,0.999,-0.122,1849930
-0.003,0.05,0.999,-0.122,1849934
-0.003,0.05,0.999,-0.122,1849938
-0.004,0.051,1.0,-0.305,1849942
-0.004,0.051,1.0,-0.244,1849946
-0.004,0.051,1.0,-0.061,1849950
-0.004,0.051,1.0,-0.061,1849954
-0.004,0.051,1.0,-0.305,1849958
-0.004,0.052,1.001,-0.244,1849962
-0.004,0.052,1.001,-0.244,1849966
-0.003,0.053,0.999,-0.183,1849970
-0.003,0.053,0.999,-0.183,1849974
-0.003,0.053,0.999,-0.183,1849978
-0.003,0.053,1.0,-0.122,1849982
-0.003,0.053,1.0,-0.244,1849986
-0.005,0.052,0.999,-0.244,1849990
-0.005,0.052,0.999,-0.244,1849994
-0.005,0.052,0.999,-0.244,1849998
-0.004,0.05,1.0,-0.244,1850002
-0.004,0.05,1.0,-0.244,1850006
-0.003,0.052,0.999,-0.183,1850010
-0.003,0.052,0.999,-0.183,1850014
-0.003,0.052,0.999,-0.183,1850018
-0.003,0.052,1.0,-0.244,1850022
-0.003,0.052,1.0,-0.305,1850026
-0.004,0.052,1.0,-0.244,1850030
-0.004,0.052,1.0,-0.244,1850033
-0.004,0.052,1.0,-0.244,1850037
-0.003,0.052,0.998,-0.305,1850041
-0.003,0.052,0.998,-0.183,1850045
-0.004,0.051,1.0,-0.183,1850049
-0.004,0.051,1.0,-0.183,1850053
-0.004,0.051,1.0,-0.183,1850057
-0.004,0.052,0.999,-0.244,1850061
-0.004,0.052,0.999,-0.305,1850065
-0.003,0.052,0.999,-0.244,1850069
-0.003,0.052,0.999,-0.244,1850073
-0.003,0.052,0.999,-0.122,1850077
-0.003,0.052,0.998,-0.122,1850081
-0.003,0.052,0.998,-0.183,1850085
-0.004,0.052,1.0,-0.244,1850089
-0.004,0.052,1.0,-0.244,1850093
-0.004,0.052,1.0,-0.244,1850097
-0.003,0.052,1.0,-0.244,1850101
-0.003,0.052,1.0,-0.183,1850105
-0.003,0.051,0.999,-0.244,1850109
-0.003,0.051,0.999,-0.244,1850113
-0.003,0.051,0.999,-0.305,1850117
-0.004,0.052,0.998,-0.244,1850121
-0.004,0.052,0.998,-0.305,1850125
-0.004,0.051,1.001,-0.244,1850129
-0.004,0.051,1.001,-0.244,1850133
-0.004,0.051,1.001,-0.122,1850137
-0.004,0.052,0.998,-0.244,1850141
-0.004,0.052,0.998,-0.183,1850145
-0.005,0.052,0.998,-0.122,1850149
-0.005,0.052,0.998,-0.122,1850153
-0.005,0.052,0.998,-0.122,1850157
-0.003,0.052,1.0,-0.122,1850161
-0.003,0.052,1.0,-0.183,1850164
-0.004,0.052,1.0,-0.183,1850168
-0.004,0.052,1.0,-0.183,1850172
-0.004,0.052,1.0,-0.183,1850176
-0.005,0.052,1.0,-0.122,1850180
-0.005,0.052,1.0,-0.122,1850184
-0.004,0.054,0.999,-0.122,1850188
-0.004,0.054,0.999,-0.122,1850192
-0.004,0.054,0.999,-0.183,1850196
-0.004,0.053,0.998,-0.122,1850200
-0.004,0.053,0.998,-0.122,1850204
-0.003,0.052,0.998,-0.183,1850208
-0.003,0.052,0.998,-0.183,1850212
-0.003,0.052,0.998,-0.122,1850216
-0.004,0.052,1.0,-0.183,1850220
-0.004,0.052,1.0,-0.183,1850224
-0.004,0.053,0.998,-0.305,1850228
-0.004,0.053,0.998,-0.305,1850232
-0.004,0.053,0.998,-0.183,1850236
-0.005,0.052,1.0,-0.183,1850240
-0.005,0.052,1.0,-0.122,1850244
-0.003,0.052,0.999,-0.183,1850248
-0.003,0.052,0.999,-0.183,1850252
-0.003,0.052,0.999,-0.183,1850256
-0.002,0.051,1.0,-0.183,1850260
-0.002,0.051,1.0,-0.305,1850264
-0.004,0.051,0.999,-0.244,1850268
-0.004,0.051,0.999,-0.244,1850272
-0.004,0.051,0.999,-0.122,1850276
-0.003,0.054,1.0,-0.183,1850280
-0.003,0.054,1.0,-0.183,1850284
-0.002,0.052,1.0,-0.122,1850288
-0.002,0.052,1.0,-0.122,1850292
-0.002,0.052,1.0,-0.183,1850296
-0.004,0.052,1.0,-0.305,1850299
-0.004,0.052,1.0,-0.183,1850303
-0.005,0.051,1.0,-0.122,1850307
-0.005,0.051,1.0,-0.122,1850311
-0.005,0.051,1.0,-0.183,1850315
-0.004,0.052,0.998,-0.305,1850319
-0.004,0.052,0.998,-0.244,1850323
-0.003,0.051,0.998,-0.183,1850327
-0.003,0.051,0.998,-0.183,1850331
-0.003,0.051,0.998,-0.183,1850335
-0.002,0.052,0.998,-0.183,1850339
-0.002,0.052,0.998,-0.183,1850343
-0.003,0.052,0.999,-0.122,1850347
-0.003,0.052,0.999,-0.122,1850351
-0.003,0.052,0.999,-0.122,1850355
-0.006,0.051,1.0,-0.122,1850359
-0.006,0.051,1.0,-0.183,1850363
-0.004,0.052,1.0,-0.183,1850367
-0.004,0.052,1.0,-0.183,1850371
-0.004,0.052,1.0,-0.183,1850375
-0.004,0.052,1.001,-0.122,1850379
-0.004,0.052,1.001,-0.244,1850383
-0.004,0.052,0.999,-0.305,1850387
-0.004,0.052,0.999,-0.305,1850391
-0.004,0.052,0.999,-0.305,1850395
-0.005,0.052,0.997,-0.122,1850399
-0.005,0.052,0.997,-0.122,1850403
-0.005,0.051,0.998,-0.183,1850407
-0.005,0.051,0.998,-0.183,1850411
-0.005,0.051,0.998,-0.366,1850415
-0.005,0.053,0.999,-0.183,1850419
-0.005,0.053,0.999,-0.061,1850423
-0.003,0.053,0.998,-0.183,1850426
-0.003,0.053,0.998,-0.183,1850430
-0.003,0.053,0.998,-0.244,1850434
-0.004,0.051,0.999,-0.244,1850438
-0.004,0.051,0.999,-0.183,1850442
-0.004,0.052,1.0,-0.183,1850446
-0.004,0.052,1.0,-0.183,1850450
-0.004,0.052,1.0,-0.244,1850454
-0.003,0.053,1.0,-0.122,1850458
-0.003,0.053,1.0,-0.244,1850462
-0.004,0.051,0.999,-0.244,1850466
-0.004,0.051,0.999,-0.244,1850470
-0.004,0.051,0.999,-0.183,1850474
-0.004,0.052,0.999,-0.061,1850478
-0.004,0.052,0.999,-0.183,1850482
-0.004,0.052,0.998,-0.183,1850486
-0.004,0.052,0.998,-0.183,1850490
-0.004,0.052,0.998,-0.122,1850494
-0.003,0.052,1.0,-0.244,1850498
-0.003,0.052,1.0,-0.244,1850502
-0.003,0.052,0.999,-0.183,1850506
-0.003,0.052,0.999,-0.183,1850510
-0.003,0.052,0.999,-0.122,1850514
-0.004,0.052,0.999,-0.122,1850518
-0.004,0.052,0.999,-0.183,1850522
-0.004,0.053,0.999,-0.183,1850526
-0.004,0.053,0.999,-0.183,1850530
-0.004,0.053,0.999,-0.061,1850534
-0.003,0.052,1.0,-0.183,1850538
-0.003,0.052,1.0,-0.122,1850542
-0.002,0.051,1.001,-0.183,1850546
-0.002,0.051,1.001,-0.183,1850550
-0.002,0.051,1.001,-0.305,1850554
-0.004,0.051,0.998,-0.244,1850558
-0.004,0.051,0.998,-0.183,1850561
-0.003,0.051,0.999,-0.183,1850565
-0.003,0.051,0.999,-0.183,1850569
-0.003,0.051,0.999,-0.183,1850573
-0.004,0.052,1.001,-0.366,1850577
-0.004,0.052,1.001,-0.122,1850581
-0.004,0.051,1.0,-0.061,1850585
-0.004,0.051,1.0,-0.061,1850589
-0.004,0.051,1.0,-0.244,1850593
-0.002,0.052,0.999,-0.305,1850597
-0.002,0.052,0.999,-0.244,1850601
-0.003,0.053,0.998,-0.183,1850605
-0.003,0.053,0.998,-0.183,1850609
-0.003,0.053,0.998,-0.183,1850613
-0.003,0.052,0.998,-0.122,1850617
-0.003,0.052,0.998,-0.183,1850621
-0.004,0.052,0.999,-0.122,1850625
-0.004,0.052,0.999,-0.122,1850629
-0.004,0.052,0.999,-0.183,1850633
-0.004,0.051,1.0,-0.244,1850637
-0.004,0.051,1.0,-0.122,1850641
-0.004,0.052,1.0,-0.244,1850645
-0.004,0.052,1.0,-0.244,1850649
-0.004,0.052,1.0,-0.244,1850653
-0.005,0.052,1.001,-0.305,1850657
-0.005,0.052,1.001,-0.244,1850661
-0.002,0.052,1.001,-0.244,1850665
-0.002,0.052,1.001,-0.244,1850669
-0.002,0.052,1.001,-0.183,1850673
-0.003,0.052,0.998,-0.305,1850677
-0.003,0.052,0.998,-0.061,1850681
-0.003,0.054,0.999,-0.061,1850685
-0.003,0.054,0.999,-0.061,1850689
-0.003,0.054,0.999,-0.183,1850693
-0.003,0.052,0.997,-0.122,1850697
-0.003,0.052,0.997,-0.244,1850700
-0.005,0.052,0.998,-0.183,1850704
-0.005,0.052,0.998,-0.183,1850708
-0.005,0.052,0.998,-0.244,1850712
-0.004,0.052,1.001,-0.244,1850716
-0.004,0.052,1.001,-0.244,1850720
-0.002,0.053,1.0,-0.244,1850724
-0.002,0.053,1.0,-0.244,1850728
-0.002,0.053,1.0,-0.122,1850732
-0.005,0.052,0.998,-0.183,1850736
-0.005,0.052,0.998,-0.183,1850740
-0.004,0.053,0.999,-0.244,1850744
-0.004,0.053,0.999,-0.244,1850748
-0.004,0.053,0.999,-0.183,1850752
-0.003,0.052,0.998,-0.305,1850756
-0.003,0.052,0.998,-0.244,1850760
-0.003,0.052,0.999,-0.183,1850764
-0.003,0.052,0.999,-0.183,1850768
-0.003,0.052,0.999,-0.244,1850772
-0.005,0.052,0.999,-0.183,1850776
-0.005,0.052,0.999,-0.183,1850780
-0.003,0.052,1.0,-0.183,1850784
-0.003,0.052,1.0,-0.183,1850788
-0.003,0.052,1.0,-0.244,1850792
-0.001,0.051,0.999,-0.061,1850796
-0.001,0.051,0.999,-0.183,1850800
-0.002,0.052,0.999,-0.305,1850804
-0.002,0.052,0.999,-0.305,1850808
-0.002,0.052,0.999,-0.122,1850812
-0.003,0.052,0.999,-0.244,1850816
-0.003,0.052,0.999,-0.305,1850820
-0.003,0.051,0.999,-0.244,1850824
-0.003,0.051,0.999,-0.244,1850828
-0.003,0.051,0.999,-0.244,1850831
-0.003,0.051,0.997,0.0,1850835
-0.003,0.051,0.997,-0.122,1850839
-0.005,0.052,1.0,-0.244,1850843
-0.005,0.052,1.0,-0.244,1850847
-0.005,0.052,1.0,-0.183,1850851
-0.004,0.053,1.001,-0.183,1850855
-0.004,0.053,1.001,-0.183,1850859
-0.003,0.053,0.997,-0.061,1850863
-0.003,0.053,0.997,-0.061,1850867
-0.003,0.053,0.997,-0.122,1850871
-0.004,0.052,0.999,-0.183,1850875
-0.004,0.052,0.999,-0.183,1850879
-0.003,0.053,1.001,-0.305,1850883
-0.003,0.053,1.001,-0.305,1850887
-0.003,0.053,1.001,-0.305,1850891
-0.004,0.053,0.998,-0.244,1850895
-0.004,0.053,0.998,-0.244,1850899
-0.004,0.052,1.0,-0.305,1850903
-0.004,0.052,1.0,-0.305,1850907
-0.004,0.052,1.0,-0.244,1850911
-0.002,0.051,0.998,-0.061,1850915
-0.002,0.051,0.998,-0.244,1850919
-0.003,0.053,0.998,-0.183,1850923
-0.003,0.053,0.998,-0.183,1850927
-0.003,0.053,0.998,-0.122,1850931
-0.004,0.052,0.999,-0.122,1850935
-0.004,0.052,0.999,-0.244,1850939
-0.005,0.053,0.999,-0.244,1850943
-0.005,0.053,0.999,-0.244,1850946
-0.005,0.053,0.999,-0.061,1850950
-0.003,0.053,1.001,-0.305,1850954
-0.003,0.053,1.001,-0.183,1850958
-0.002,0.051,1.0,-0.183,1850962
-0.002,0.051,1.0,-0.183,1850966
-0.002,0.051,1.0,-0.183,1850970
-0.005,0.053,0.999,-0.183,1850974
-0.005,0.053,0.999,0.0,1850978
-0.004,0.054,1.0,-0.244,1850982
-0.004,0.054,1.0,-0.244,1850986
-0.004,0.054,1.0,-0.244,1850990
-0.003,0.052,1.0,-0.183,1850994
-0.003,0.052,1.0,-0.305,1850998
-0.003,0.053,0.998,-0.305,1851002
-0.003,0.053,0.998,-0.305,1851006
-0.003,0.053,0.998,-0.122,1851010
-0.003,0.052,1.0,-0.183,1851014
-0.003,0.052,1.0,-0.305,1851018
-0.005,0.052,1.0,-0.183,1851022
-0.005,0.052,1.0,-0.183,1851026
-0.005,0.052,1.0,-0.183,1851030
-0.003,0.052,0.998,-0.183,1851034
-0.003,0.052,0.998,-0.244,1851038
-0.003,0.052,0.999,-0.183,1851042
-0.003,0.052,0.999,-0.183,1851046
-0.003,0.052,0.999,-0.305,1851050
-0.005,0.05,0.998,-0.244,1851054
-0.005,0.05,0.998,-0.122,1851058
-0.004,0.052,1.0,-0.244,1851062
-0.004,0.052,1.0,-0.244,1851065
-0.004,0.052,1.0,-0.366,1851069
-0.003,0.052,0.998,-0.183,1851073
-0.003,0.052,0.998,-0.183,1851077
-0.003,0.052,1.0,-0.183,1851081
-0.003,0.052,1.0,-0.183,1851085
-0.003,0.052,1.0,-0.244,1851089
-0.004,0.053,0.998,-0.305,1851093
-0.004,0.053,0.998,-0.061,1851097
-0.004,0.052,0.999,-0.061,1851101
-0.004,0.052,0.999,-0.244,1851105
-0.004,0.052,0.999,-0.244,1851109
-0.004,0.052,1.0,-0.244,1851113
-0.004,0.052,1.0,-0.244,1851117
-0.004,0.052,1.0,-0.183,1851121
-0.004,0.052,1.0,-0.122,1851125
-0.004,0.052,1.0,-0.122,1851129
-0.004,0.052,0.999,-0.183,1851133
-0.004,0.052,0.999,-0.305,1851137
-0.004,0.052,0.998,-0.183,1851141
-0.004,0.052,0.998,-0.183,1851145
-0.004,0.052,0.998,-0.183,1851149
-0.004,0.053,0.999,-0.183,1851153
-0.004,0.053,0.999,-0.183,1851157
-0.003,0.051,1.0,-0.366,1851161
-0.003,0.051,1.0,-0.305,1851165
-0.003,0.051,1.0,-0.305,1851169
-0.005,0.051,1.0,-0.122,1851173
-0.005,0.051,1.0,-0.061,1851177
-0.005,0.052,1.0,-0.244,1851181
-0.005,0.052,1.0,-0.183,1851185
-0.005,0.052,1.0,-0.183,1851189
-0.004,0.052,1.0,-0.244,1851193
-0.004,0.052,1.0,-0.183,1851197
-0.003,0.053,0.999,-0.122,1851201
-0.003,0.053,0.999,-0.122,1851205
-0.003,0.053,0.999,-0.122,1851209
-0.004,0.052,1.0,-0.244,1851213
-0.004,0.052,1.0,-0.244,1851216
-0.004,0.052,0.999,-0.183,1851220
-0.004,0.052,0.999,-0.244,1851224
-0.004,0.052,0.999,-0.244,1851228
-0.003,0.051,1.002,-0.183,1851232
-0.003,0.051,1.002,-0.183,1851236
-0.004,0.051,0.998,-0.183,1851240
-0.004,0.051,0.998,-0.244,1851244
-0.004,0.051,0.998,-0.244,1851248
-0.001,0.051,0.999,-0.244,1851252
-0.001,0.051,0.999,-0.244,1851256
-0.002,0.051,1.0,-0.183,1851260
-0.002,0.051,1.0,-0.122,1851264
-0.002,0.051,1.0,-0.122,1851268
-0.004,0.052,0.998,-0.305,1851272
-0.004,0.052,0.998,-0.244,1851276
-0.003,0.052,0.999,-0.244,1851280
-0.003,0.052,0.999,-0.061,1851284
-0.003,0.052,0.999,-0.061,1851288
-0.004,0.053,0.999,0.0,1851292
-0.004,0.053,0.999,-0.061,1851296
-0.004,0.053,0.998,-0.122,1851300
-0.004,0.053,0.998,-0.122,1851304
-0.004,0.053,0.998,-0.122,1851308
-0.004,0.051,0.999,-0.244,1851312
-0.004,0.051,0.999,-0.244,1851316
-0.003,0.053,1.0,-0.244,1851320
-0.003,0.053,1.0,-0.244,1851324
-0.003,0.053,1.0,-0.244,1851328
-0.003,0.051,0.999,-0.305,1851332
-0.003,0.051,0.999,-0.305,1851336
-0.003,0.052,0.999,-0.183,1851339
-0.003,0.052,0.999,-0.183,1851343
-0.003,0.052,0.999,-0.183,1851347
-0.004,0.052,1.0,-0.183,1851351
-0.004,0.052,1.0,-0.244,1851355
-0.002,0.052,0.999,-0.305,1851359
-0.002,0.052,0.999,-0.122,1851363
-0.002,0.052,0.999,-0.122,1851367
-0.003,0.052,1.0,-0.061,1851371
-0.003,0.052,1.0,-0.122,1851375
-0.003,0.053,1.0,-0.183,1851379
-0.003,0.053,1.0,-0.244,1851383
-0.003,0.053,1.0,-0.244,1851387
-0.003,0.054,0.999,-0.183,1851391
-0.003,0.054,0.999,-0.183,1851395
-0.003,0.052,0.999,-0.183,1851399
-0.003,0.052,0.999,-0.122,1851403
-0.003,0.052,0.999,-0.122,1851407
-0.002,0.052,0.999,-0.122,1851411
-0.002,0.052,0.999,-0.305,1851415
-0.004,0.054,0.998,-0.183,1851419
-0.004,0.054,0.998,-0.122,1851423
-0.004,0.054,0.998,-0.122,1851427
-0.003,0.052,0.998,-0.061,1851431
-0.003,0.052,0.998,-0.122,1851435
-0.004,0.052,1.0,-0.244,1851439
-0.004,0.052,1.0,-0.244,1851443
-0.004,0.052,1.0,-0.244,1851447
-0.006,0.051,1.0,-0.305,1851451
-0.006,0.051,1.0,-0.244,1851455
-0.003,0.05,1.0,-0.183,1851459
-0.003,0.05,1.0,-0.122,1851463
-0.003,0.05,1.0,-0.122,1851467
-0.003,0.052,0.999,-0.244,1851471
-0.003,0.052,0.999,-0.305,1851475
-0.004,0.052,0.999,-0.183,1851479
-0.004,0.052,0.999,-0.122,1851482
-0.004,0.052,0.999,-0.122,1851486
-0.003,0.052,0.998,-0.122,1851490
-0.003,0.052,0.998,-0.122,1851494
-0.002,0.051,0.998,-0.122,1851498
-0.002,0.051,0.998,-0.244,1851502
-0.002,0.051,0.998,-0.244,1851506
-0.003,0.052,1.0,-0.244,1851510
-0.003,0.052,1.0,-0.061,1851514
-0.004,0.052,1.0,-0.061,1851518
-0.004,0.052,1.0,-0.122,1851522
-0.004,0.052,1.0,-0.122,1851526
-0.004,0.052,1.0,-0.183,1851530
-0.004,0.052,1.0,-0.122,1851534
-0.003,0.053,1.0,-0.122,1851538
-0.003,0.053,1.0,-0.305,1851542
-0.003,0.053,1.0,-0.305,1851546
-0.003,0.053,1.0,-0.122,1851550
-0.003,0.053,1.0,-0.122,1851554
-0.004,0.052,0.998,-0.244,1851558
-0.004,0.052,0.998,-0.183,1851562
-0.004,0.052,0.998,-0.183,1851566
-0.003,0.051,1.0,-0.183,1851570
-0.003,0.051,1.0,-0.244,1851574
-0.004,0.052,0.998,-0.244,1851578
-0.004,0.052,0.998,-0.183,1851582
-0.004,0.052,0.998,-0.183,1851586
-0.004,0.053,0.998,-0.244,1851590
-0.004,0.053,0.998,-0.183,1851594
-0.006,0.052,1.0,-0.183,1851598
-0.006,0.052,1.0,-0.305,1851602
-0.006,0.052,1.0,-0.305,1851606
-0.004,0.053,1.0,-0.183,1851609
-0.004,0.053,1.0,-0.183,1851613
-0.004,0.052,0.999,-0.244,1851617
-0.004,0.052,0.999,-0.122,1851621
-0.004,0.052,0.999,-0.122,1851625
-0.004,0.052,0.999,-0.122,1851629
-0.004,0.052,0.999,-0.183,1851633
-0.004,0.051,1.0,-0.183,1851637
-0.004,0.051,1.0,-0.122,1851641
-0.004,0.051,1.0,-0.122,1851645
-0.004,0.052,1.001,-0.183,1851649
-0.004,0.052,1.001,-0.122,1851653
-0.003,0.052,0.999,-0.122,1851657
-0.003,0.052,0.999,-0.061,1851661
-0.003,0.052,0.999,-0.061,1851665
-0.004,0.053,1.001,-0.183,1851669
-0.004,0.053,1.001,-0.122,1851673
-0.003,0.053,1.0,-0.244,1851677
-0.003,0.053,1.0,-0.244,1851681
-0.003,0.053,1.0,-0.244,1851685
-0.003,0.053,1.0,-0.244,1851689
-0.003,0.053,1.0,-0.122,1851693
-0.004,0.052,0.999,-0.183,1851697
-0.004,0.052,0.999,-0.061,1851701
-0.004,0.052,0.999,-0.061,1851705
-0.004,0.051,1.001,-0.305,1851709
-0.004,0.051,1.001,-0.183,1851713
-0.004,0.052,1.0,-0.183,1851717
-0.004,0.052,1.0,-0.244,1851721
-0.004,0.052,1.0,-0.244,1851725
-0.004,0.052,0.999,-0.183,1851729
-0.004,0.052,0.999,-0.183,1851733
-0.004,0.052,0.999,-0.122,1851737
-0.004,0.052,0.999,-0.061,1851740
-0.004,0.052,0.999,-0.061,1851744
-0.005,0.052,0.999,-0.122,1851748
-0.005,0.052,0.999,-0.183,1851752
-0.003,0.052,0.998,-0.061,1851756
-0.003,0.052,0.998,-0.244,1851760
-0.003,0.052,0.998,-0.244,1851764
-0.004,0.053,1.0,-0.244,1851768
-0.004,0.053,1.0,-0.183,1851772
-0.004,0.054,0.999,-0.305,1851776
-0.004,0.054,0.999,-0.244,1851780
-0.004,0.054,0.999,-0.244,1851784
-0.004,0.052,0.999,-0.122,1851788
-0.004,0.052,0.999,-0.183,1851792
-0.004,0.051,0.999,-0.244,1851796
-0.004,0.051,0.999,-0.183,1851800
-0.004,0.051,0.999,-0.183,1851804
-0.005,0.052,1.001,-0.244,1851808
-0.005,0.052,1.001,-0.122,1851812
-0.003,0.052,0.999,-0.183,1851816
-0.003,0.052,0.999,-0.244,1851820
-0.003,0.052,0.999,-0.244,1851824
-0.003,0.051,0.999,-0.244,1851828
-0.003,0.051,0.999,-0.183,1851832
-0.005,0.052,0.999,-0.244,1851836
-0.005,0.052,0.999,-0.244,1851840
-0.005,0.052,0.999,-0.244,1851844
-0.005,0.053,1.0,-0.183,1851848
-0.005,0.053,1.0,-0.183,1851852
-0.004,0.052,0.998,-0.244,1851856
-0.004,0.052,0.998,-0.366,1851860
-0.004,0.052,0.998,-0.366,1851864
-0.003,0.052,0.998,-0.366,1851868
-0.003,0.052,0.998,-0.244,1851871
-0.004,0.052,1.0,-0.183,1851875
-0.004,0.052,1.0,-0.183,1851879
-0.004,0.052,1.0,-0.183,1851883
-0.004,0.051,0.998,-0.183,1851887
-0.004,0.051,0.998,-0.122,1851891
-0.002,0.051,0.997,-0.122,1851895
-0.002,0.051,0.997,-0.244,1851899
-0.002,0.051,0.997,-0.244,1851903
-0.004,0.052,0.997,-0.183,1851907
-0.004,0.052,0.997,-0.122,1851911
-0.005,0.051,0.998,-0.183,1851915
-0.005,0.051,0.998,-0.122,1851919
-0.005,0.051,0.998,-0.122,1851923
-0.003,0.052,0.999,-0.244,1851927
-0.003,0.052,0.999,-0.244,1851931
-0.004,0.051,1.001,-0.183,1851935
-0.004,0.051,1.001,-0.244,1851939
-0.004,0.051,1.001,-0.244,1851943
-0.003,0.052,1.001,-0.183,1851947
-0.003,0.052,1.001,-0.183,1851951
-0.003,0.051,0.998,-0.244,1851955
-0.003,0.051,0.998,-0.183,1851959
-0.003,0.051,0.998,-0.183,1851963
-0.002,0.051,0.997,-0.244,1851967
-0.002,0.051,0.997,-0.122,1851971
-0.004,0.052,0.999,-0.122,1851975
-0.004,0.052,0.999,-0.183,1851979
-0.004,0.052,0.999,-0.183,1851983
-0.003,0.052,1.0,-0.183,1851987
-0.003,0.052,1.0,-0.122,1851991
-0.005,0.052,0.998,-0.244,1851995
-0.005,0.052,0.998,-0.183,1851999
-0.005,0.052,0.998,-0.183,1852002
-0.002,0.051,0.998,-0.183,1852006
-0.002,0.051,0.998,-0.244,1852010
-0.004,0.052,0.998,-0.244,1852014
-0.004,0.052,0.998,-0.183,1852018
-0.004,0.052,0.998,-0.183,1852022
-0.004,0.053,1.0,-0.183,1852026
-0.004,0.053,1.0,-0.061,1852030
-0.002,0.052,0.998,0.0,1852034
-0.002,0.052,0.998,-0.122,1852038
-0.002,0.052,0.998,-0.122,1852042
-0.003,0.052,1.0,-0.183,1852046
-0.003,0.052,1.0,-0.244,1852050
-0.002,0.051,0.998,-0.122,1852054
-0.002,0.051,0.998,-0.061,1852058
-0.002,0.051,0.998,-0.061,1852062
-0.005,0.051,0.999,-0.122,1852066
-0.005,0.051,0.999,-0.244,1852070
-0.003,0.051,1.002,-0.183,1852074
-0.003,0.051,1.002,-0.122,1852078
-0.003,0.051,1.002,-0.122,1852082
-0.004,0.052,1.001,-0.244,1852086
-0.004,0.052,1.001,-0.122,1852090
-0.004,0.052,0.998,-0.061,1852094
-0.004,0.052,0.998,-0.305,1852098
-0.004,0.052,0.998,-0.305,1852102
-0.003,0.051,0.996,-0.305,1852106
-0.003,0.051,0.996,-0.305,1852110
-0.005,0.05,0.997,-0.122,1852113
-0.005,0.05,0.997,-0.122,1852117
-0.005,0.05,0.997,-0.122,1852121
-0.004,0.051,1.0,-0.183,1852125
-0.004,0.051,1.0,-0.183,1852129
-0.003,0.051,0.999,-0.244,1852133
-0.003,0.051,0.999,-0.244,1852137
-0.003,0.051,0.999,-0.244,1852141
-0.004,0.051,0.999,-0.122,1852145
-0.004,0.051,0.999,-0.183,1852149
-0.004,0.051,1.0,-0.305,1852153
-0.004,0.051,1.0,-0.122,1852157
-0.004,0.051,1.0,-0.122,1852161
-0.003,0.051,0.999,-0.183,1852165
-0.003,0.051,0.999,-0.122,1852169
-0.004,0.053,0.997,0.0,1852173
-0.004,0.053,0.997,-0.122,1852177
-0.004,0.053,0.997,-0.122,1852181
-0.004,0.053,0.999,-0.183,1852185
-0.004,0.053,0.999,-0.061,1852189
-0.004,0.052,0.999,-0.183,1852193
-0.004,0.052,0.999,-0.122,1852197
-0.004,0.052,0.999,-0.122,1852201
-0.003,0.053,1.0,-0.244,1852205
-0.003,0.053,1.0,-0.366,1852209
-0.001,0.054,0.997,-0.366,1852213
-0.001,0.054,0.997,-0.183,1852217
-0.001,0.054,0.997,-0.183,1852221
-0.003,0.052,0.998,-0.183,1852225
-0.003,0.052,0.998,-0.244,1852229
-0.005,0.051,0.999,-0.183,1852233
-0.005,0.051,0.999,-0.122,1852236
-0.005,0.051,0.999,-0.122,1852240
-0.005,0.051,1.0,-0.122,1852244
-0.005,0.051,1.0,-0.244,1852248
-0.004,0.052,1.0,-0.122,1852252
-0.004,0.052,1.0,-0.122,1852256
-0.004,0.052,1.0,-0.122,1852260
-0.004,0.052,1.0,-0.244,1852264
-0.004,0.052,1.0,-0.183,1852268
-0.004,0.05,0.999,-0.183,1852272
-0.004,0.05,0.999,-0.183,1852276
-0.004,0.05,0.999,-0.183,1852280
-0.003,0.05,1.002,-0.122,1852284
-0.003,0.05,1.002,-0.183,1852288
-0.004,0.052,0.999,-0.244,1852292
-0.004,0.052,0.999,-0.183,1852296
-0.004,0.052,0.999,-0.183,1852300
-0.004,0.053,0.997,-0.122,1852304
-0.004,0.053,0.997,-0.305,1852308
-0.005,0.052,0.998,-0.244,1852312
-0.005,0.052,0.998,-0.122,1852316
-0.005,0.052,0.998,-0.122,1852320
-0.004,0.05,0.998,-0.244,1852324
-0.004,0.05,0.998,-0.183,1852328
-0.005,0.052,1.0,-0.244,1852332
-0.005,0.052,1.0,-0.183,1852336
-0.005,0.052,1.0,-0.183,1852340
-0.003,0.051,1.0,-0.244,1852344
-0.003,0.051,1.0,-0.122,1852348
-0.003,0.052,0.999,-0.183,1852352
-0.003,0.052,0.999,-0.061,1852356
-0.003,0.052,0.999,-0.061,1852360
-0.004,0.053,0.998,-0.122,1852364
-0.004,0.053,0.998,-0.244,1852367
-0.003,0.053,0.998,-0.183,1852371
-0.003,0.053,0.998,-0.061,1852375
-0.003,0.053,0.998,-0.061,1852379
-0.003,0.053,0.998,-0.244,1852383
-0.003,0.053,0.998,-0.183,1852387
-0.003,0.053,0.999,-0.122,1852391
-0.003,0.053,0.999,-0.244,1852395
-0.003,0.053,0.999,-0.244,1852399
-0.005,0.052,0.999,-0.183,1852403
-0.005,0.052,0.999,-0.244,1852407
-0.003,0.052,0.999,-0.122,1852411
-0.003,0.052,0.999,-0.122,1852415
-0.003,0.052,0.999,-0.122,1852419
-0.003,0.053,0.997,-0.183,1852423
-0.003,0.053,0.997,-0.183,1852427
-0.003,0.052,0.999,-0.122,1852431
-0.003,0.052,0.999,-0.183,1852435
-0.003,0.052,0.999,-0.183,1852439
-0.002,0.051,1.0,-0.122,1852443
-0.002,0.051,1.0,-0.061,1852447
-0.004,0.05,0.999,-0.183,1852451
-0.004,0.05,0.999,-0.122,1852455
-0.004,0.05,0.999,-0.122,1852459
-0.004,0.053,0.998,-0.305,1852463
-0.004,0.053,0.998,-0.061,1852467
-0.005,0.052,0.999,-0.244,1852471
-0.005,0.052,0.999,-0.244,1852475
-0.005,0.052,0.999,-0.244,1852479
-0.003,0.052,0.999,-0.122,1852483
-0.003,0.052,0.999,-0.183,1852487
-0.003,0.051,0.998,-0.183,1852491
-0.003,0.051,0.998,-0.244,1852495
-0.003,0.051,0.998,-0.244,1852499
-0.004,0.051,0.998,-0.122,1852503
-0.004,0.051,0.998,-0.183,1852506
-0.003,0.052,0.999,-0.122,1852510
-0.003,0.052,0.999,-0.183,1852514
-0.003,0.052,0.999,-0.183,1852518
-0.004,0.052,1.0,-0.061,1852522
-0.004,0.052,1.0,-0.183,1852526
-0.004,0.052,1.0,-0.183,1852530
-0.004,0.052,1.0,-0.122,1852534
-0.004,0.052,1.0,-0.122,1852538
-0.003,0.054,0.997,-0.061,1852542
-0.003,0.054,0.997,-0.122,1852546
-0.003,0.052,0.998,-0.183,1852550
-0.003,0.052,0.998,-0.366,1852554
-0.003,0.052,0.998,-0.366,1852558
-0.005,0.052,1.0,-0.183,1852562
-0.005,0.052,1.0,-0.061,1852566
-0.004,0.052,1.0,-0.122,1852570
-0.004,0.052,1.0,-0.122,1852574
-0.004,0.052,1.0,-0.122,1852578
-0.004,0.051,1.0,-0.122,1852582
-0.004,0.051,1.0,-0.244,1852586
-0.003,0.052,1.0,-0.244,1852590
-0.003,0.052,1.0,-0.183,1852594
-0.003,0.052,1.0,-0.183,1852598
-0.004,0.052,0.999,-0.183,1852602
-0.004,0.052,0.999,-0.244,1852606
-0.003,0.052,0.999,-0.244,1852610
-0.003,0.052,0.999,-0.305,1852614
-0.003,0.052,0.999,-0.305,1852618
-0.004,0.051,1.0,-0.305,1852622
-0.004,0.051,1.0,-0.244,1852626
-0.004,0.051,1.0,0.0,1852629
-0.004,0.051,1.0,-0.183,1852633
-0.004,0.051,1.0,-0.183,1852637
-0.003,0.052,0.998,-0.244,1852641
-0.003,0.052,0.998,-0.305,1852645
-0.004,0.051,0.999,-0.305,1852649
-0.004,0.051,0.999,-0.122,1852653
-0.004,0.051,0.999,-0.122,1852657
-0.007,0.051,0.999,-0.183,1852661
-0.007,0.051,0.999,-0.183,1852665
-0.004,0.052,0.999,-0.122,1852669
-0.004,0.052,0.999,-0.061,1852673
-0.004,0.052,0.999,-0.061,1852677
-0.005,0.052,1.0,-0.183,1852681
-0.005,0.052,1.0,-0.183,1852685
-0.006,0.052,0.998,-0.183,1852689
-0.006,0.052,0.998,-0.183,1852693
-0.006,0.052,0.998,-0.183,1852697
-0.003,0.052,0.998,-0.122,1852701
-0.003,0.052,0.998,-0.122,1852705
-0.004,0.051,0.998,-0.122,1852709
-0.004,0.051,0.998,-0.183,1852713
-0.004,0.051,0.998,-0.183,1852717
-0.006,0.053,0.999,-0.244,1852721
-0.006,0.053,0.999,-0.122,1852725
-0.004,0.052,1.0,-0.061,1852729
-0.004,0.052,1.0,-0.183,1852733
-0.004,0.052,1.0,-0.183,1852737
-0.002,0.052,0.999,-0.122,1852741
-0.002,0.052,0.999,-0.061,1852745
-0.003,0.052,0.998,-0.122,1852749
-0.003,0.052,0.998,-0.183,1852753
-0.003,0.052,0.998,-0.183,1852757
-0.004,0.052,0.999,-0.183,1852760
-0.004,0.052,0.999,-0.305,1852764
-0.003,0.052,0.999,-0.183,1852768
-0.003,0.052,0.999,0.0,1852772
-0.003,0.052,0.999,0.0,1852776
-0.004,0.053,1.0,-0.305,1852780
-0.004,0.053,1.0,-0.427,1852784
-0.005,0.052,1.0,-0.305,1852788
-0.005,0.052,1.0,-0.244,1852792
-0.005,0.052,1.0,-0.244,1852796
-0.003,0.052,1.001,-0.244,1852800
-0.003,0.052,1.001,-0.183,1852804
-0.004,0.051,0.999,-0.122,1852808
-0.004,0.051,0.999,-0.244,1852812
-0.004,0.051,0.999,-0.244,1852816
-0.003,0.052,0.999,-0.183,1852820
-0.003,0.052,0.999,-0.122,1852824
-0.002,0.051,1.0,-0.183,1852828
-0.002,0.051,1.0,-0.183,1852832
-0.002,0.051,1.0,-0.183,1852836
-0.004,0.051,1.0,-0.244,1852840
-0.004,0.051,1.0,-0.244,1852844
-0.006,0.052,0.999,-0.183,1852848
-0.006,0.052,0.999,-0.061,1852852
-0.006,0.052,0.999,-0.061,1852856
-0.003,0.051,1.0,-0.183,1852860
-0.003,0.051,1.0,-0.183,1852864
-0.005,0.051,0.998,-0.061,1852867
-0.005,0.051,0.998,0.0,1852871
-0.005,0.051,0.998,0.0,1852875
-0.004,0.052,0.998,-0.122,1852879
-0.004,0.052,0.998,-0.366,1852883
-0.003,0.052,0.999,-0.183,1852887
-0.003,0.052,0.999,-0.183,1852891
-0.003,0.052,0.999,-0.183,1852895
-0.004,0.053,0.998,-0.061,1852899
-0.004,0.053,0.998,-0.122,1852903
-0.003,0.051,0.998,-0.122,1852907
-0.003,0.051,0.998,-0.244,1852911
-0.003,0.051,0.998,-0.244,1852915
-0.002,0.052,0.998,-0.183,1852919
-0.002,0.052,0.998,-0.122,1852923
-0.004,0.051,0.999,-0.244,1852927
-0.004,0.051,0.999,-0.244,1852931
-0.004,0.051,0.999,-0.244,1852935
-0.005,0.052,1.001,-0.244,1852939
-0.005,0.052,1.001,-0.183,1852943
-0.005,0.052,0.999,-0.244,1852947
-0.005,0.052,0.999,-0.244,1852951
-0.005,0.052,0.999,-0.244,1852955
-0.003,0.054,0.998,-0.305,1852959
-0.003,0.054,0.998,-0.244,1852963
-0.003,0.052,1.0,-0.305,1852967
-0.003,0.052,1.0,-0.122,1852971
-0.003,0.052,1.0,-0.122,1852974
-0.005,0.052,0.999,-0.183,1852978
-0.005,0.052,0.999,-0.244,1852982
-0.003,0.053,0.998,-0.244,1852986
-0.003,0.053,0.998,-0.183,1852990
-0.003,0.053,0.998,-0.183,1852994
-0.003,0.053,0.998,-0.183,1852998
-0.003,0.053,0.998,-0.244,1853002
-0.004,0.053,0.998,-0.183,1853006
-0.004,0.053,0.998,-0.244,1853010
-0.004,0.053,0.998,-0.244,1853014
-0.005,0.053,0.997,-0.122,1853018
-0.005,0.053,0.997,-0.061,1853022
-0.005,0.051,0.998,-0.122,1853026
-0.005,0.051,0.998,-0.061,1853030
-0.005,0.051,0.998,-0.061,1853034
-0.002,0.052,0.998,-0.061,1853038
-0.002,0.052,0.998,-0.122,1853042
-0.004,0.051,1.0,-0.244,1853046
-0.004,0.051,1.0,-0.305,1853050
-0.004,0.051,1.0,-0.305,1853054
-0.004,0.05,1.0,-0.244,1853058
-0.004,0.05,1.0,-0.244,1853062
-0.002,0.052,0.999,-0.122,1853066
-0.002,0.052,0.999,-0.244,1853070
-0.002,0.052,0.999,-0.244,1853074
-0.005,0.051,0.998,-0.183,1853078
-0.005,0.051,0.998,-0.244,1853082
-0.003,0.051,0.999,-0.183,1853086
-0.003,0.051,0.999,-0.244,1853090
-0.003,0.051,0.999,-0.244,1853094
-0.002,0.051,1.0,-0.244,1853098
-0.002,0.051,1.0,-0.183,1853102
-0.004,0.052,0.999,-0.122,1853106
-0.004,0.052,0.999,-0.183,1853110
-0.004,0.052,0.999,-0.183,1853113
-0.003,0.053,0.999,-0.183,1853117
-0.003,0.053,0.999,-0.183,1853121
-0.003,0.054,0.999,-0.183,1853125
-0.003,0.054,0.999,-0.183,1853129
-0.003,0.054,0.999,-0.183,1853133
-0.003,0.053,0.999,-0.183,1853137
-0.003,0.053,0.999,-0.183,1853141
-0.004,0.052,0.999,-0.061,1853145
-0.004,0.052,0.999,-0.183,1853149
-0.004,0.052,0.999,-0.183,1853153
-0.005,0.051,0.999,-0.061,1853157
-0.005,0.051,0.999,-0.183,1853161
-0.003,0.052,0.998,-0.183,1853165
-0.003,0.052,0.998,-0.183,1853169
-0.003,0.052,0.998,-0.183,1853173
-0.005,0.051,0.999,-0.183,1853177
-0.005,0.051,0.999,-0.183,1853181
-0.005,0.052,1.0,-0.122,1853185
-0.005,0.052,1.0,-0.061,1853189
-0.005,0.052,1.0,-0.061,1853193
-0.005,0.052,0.998,-0.122,1853197
-0.005,0.052,0.998,-0.122,1853201
-0.005,0.053,1.0,-0.244,1853205
-0.005,0.053,1.0,-0.183,1853209
-0.005,0.053,1.0,-0.183,1853213
-0.004,0.052,1.0,-0.183,1853217
-0.004,0.052,1.0,-0.305,1853221
-0.003,0.05,0.999,-0.061,1853225
-0.003,0.05,0.999,-0.244,1853229
-0.003,0.05,0.999,-0.244,1853233
-0.003,0.052,0.999,-0.244,1853237
-0.003,0.052,0.999,-0.183,1853241
-0.002,0.052,0.998,-0.122,1853244
-0.002,0.052,0.998,-0.244,1853248
-0.002,0.052,0.998,-0.244,1853252
-0.003,0.052,0.999,-0.305,1853256
-0.003,0.052,0.999,-0.183,1853260
-0.003,0.051,1.0,-0.061,1853264
-0.003,0.051,1.0,-0.122,1853268
-0.003,0.051,1.0,-0.122,1853272
-0.002,0.051,1.0,-0.183,1853276
-0.002,0.051,1.0,-0.244,1853280
-0.003,0.052,0.999,-0.183,1853284
-0.003,0.052,0.999,-0.122,1853288
-0.003,0.052,0.999,-0.122,1853292
-0.002,0.053,1.0,-0.183,1853296
-0.002,0.053,1.0,0.0,1853300
-0.004,0.052,0.999,-0.122,1853304
-0.004,0.052,0.999,-0.122,1853308
-0.004,0.052,0.999,-0.122,1853312
-0.005,0.052,0.999,-0.244,1853316
-0.005,0.052,0.999,-0.244,1853320
-0.004,0.052,0.999,-0.122,1853324
-0.004,0.052,0.999,-0.244,1853328
-0.004,0.052,0.999,-0.244,1853332
-0.003,0.052,0.998,-0.183,1853336
-0.003,0.052,0.998,-0.244,1853340
-0.002,0.052,0.999,-0.244,1853344
-0.002,0.052,0.999,-0.061,1853348
-0.002,0.052,0.999,-0.061,1853352
-0.005,0.052,1.0,-0.122,1853356
-0.005,0.052,1.0,-0.122,1853360
-0.004,0.052,1.0,-0.183,1853364
-0.004,0.052,1.0,-0.183,1853368
-0.004,0.052,1.0,-0.183,1853372
-0.003,0.051,0.999,-0.244,1853376
-0.003,0.051,0.999,-0.244,1853379
-0.001,0.052,1.001,-0.183,1853383
-0.001,0.052,1.001,-0.183,1853387
-0.001,0.052,1.001,-0.183,1853391
-0.002,0.053,0.999,-0.183,1853395
-0.002,0.053,0.999,-0.183,1853399
-0.003,0.052,0.999,-0.122,1853403
-0.003,0.052,0.999,-0.183,1853407
-0.003,0.052,0.999,-0.183,1853411
-0.004,0.052,1.0,-0.122,1853415
-0.004,0.052,1.0,-0.183,1853419
-0.004,0.052,0.999,-0.183,1853423
-0.004,0.052,0.999,-0.183,1853427
-0.004,0.052,0.999,-0.183,1853431
-0.004,0.053,0.999,-0.183,1853435
-0.004,0.053,0.999,-0.183,1853439
-0.004,0.052,1.0,-0.122,1853443
-0.004,0.052,1.0,-0.122,1853447
-0.004,0.052,1.0,-0.122,1853451
-0.003,0.051,0.999,-0.122,1853455
-0.003,0.051,0.999,-0.061,1853459
-0.004,0.052,0.999,-0.122,1853463
-0.004,0.052,0.999,-0.244,1853467
-0.004,0.052,0.999,-0.244,1853471
-0.003,0.053,0.998,-0.061,1853475
-0.003,0.053,0.998,-0.122,1853479
-0.003,0.052,0.998,-0.244,1853483
-0.003,0.052,0.998,-0.244,1853487
-0.003,0.052,0.998,-0.244,1853491
-0.003,0.051,0.999,-0.244,1853495
-0.003,0.051,0.999,-0.122,1853499
-0.003,0.052,1.0,-0.122,1853503
-0.003,0.052,1.0,-0.244,1853506
-0.003,0.052,1.0,-0.244,1853510
-0.003,0.052,1.0,-0.183,1853514
-0.003,0.052,1.0,-0.244,1853518
-0.003,0.053,1.0,-0.244,1853522
-0.003,0.053,1.0,-0.122,1853526
-0.003,0.053,1.0,-0.122,1853530
-0.003,0.052,1.0,-0.122,1853534
-0.003,0.052,1.0,-0.183,1853538
-0.005,0.052,1.0,-0.244,1853542
-0.005,0.052,1.0,-0.244,1853546
-0.005,0.052,1.0,-0.244,1853550
-0.005,0.052,0.998,-0.061,1853554
-0.005,0.052,0.998,0.0,1853558
-0.003,0.051,0.998,0.0,1853562
-0.003,0.051,0.998,-0.122,1853566
-0.003,0.051,0.998,-0.122,1853570
-0.005,0.052,1.0,-0.122,1853574
-0.005,0.052,1.0,-0.122,1853578
-0.004,0.054,0.999,-0.122,1853582
-0.004,0.054,0.999,-0.244,1853586
-0.004,0.054,0.999,-0.244,1853590
-0.004,0.052,0.999,-0.122,1853594
-0.004,0.052,0.999,-0.122,1853598
-0.003,0.052,0.999,-0.061,1853602
-0.003,0.052,0.999,-0.183,1853606
-0.003,0.052,0.999,-0.183,1853610
-0.003,0.053,1.0,-0.183,1853614
-0.003,0.053,1.0,-0.183,1853618
-0.003,0.052,0.999,-0.122,1853621
-0.003,0.052,0.999,-0.183,1853625
-0.003,0.052,0.999,-0.183,1853629
-0.002,0.051,0.999,-0.183,1853633
-0.002,0.051,0.999,-0.061,1853637
-0.003,0.052,1.0,-0.122,1853641
-0.003,0.052,1.0,-0.061,1853645
-0.003,0.052,1.0,-0.061,1853649
-0.004,0.052,0.998,0.0,1853653
-0.004,0.052,0.998,-0.305,1853657
-0.003,0.052,0.999,-0.061,1853661
-0.003,0.052,0.999,-0.122,1853665
-0.003,0.052,0.999,-0.122,1853669
-0.004,0.052,0.999,-0.122,1853673
-0.004,0.052,0.999,-0.122,1853677
-0.004,0.052,0.999,-0.305,1853681
-0.004,0.052,0.999,-0.305,1853685
-0.004,0.052,0.999,-0.305,1853689
-0.004,0.052,0.998,-0.244,1853693
-0.004,0.052,0.998,-0.061,1853697
-0.003,0.053,1.0,-0.183,1853701
-0.003,0.053,1.0,-0.244,1853705
-0.003,0.053,1.0,-0.244,1853709
-0.002,0.052,1.0,-0.183,1853713
-0.002,0.052,1.0,-0.061,1853717
-0.005,0.053,0.998,0.0,1853721
-0.005,0.053,0.998,-0.244,1853725
-0.005,0.053,0.998,-0.244,1853729
-0.004,0.054,0.999,-0.305,1853733
-0.004,0.054,0.999,-0.244,1853736
-0.003,0.052,0.999,-0.305,1853740
-0.003,0.052,0.999,-0.183,1853744
-0.003,0.052,0.999,-0.183,1853748
-0.004,0.052,0.999,-0.183,1853752
-0.004,0.052,0.999,-0.244,1853756
-0.005,0.052,1.0,-0.305,1853760
-0.005,0.052,1.0,-0.122,1853764
-0.005,0.052,1.0,-0.122,1853768
-0.003,0.052,1.0,-0.061,1853772
-0.003,0.052,1.0,-0.122,1853776
-0.004,0.052,0.999,-0.122,1853780
-0.004,0.052,0.999,-0.122,1853784
-0.004,0.052,0.999,-0.122,1853788
-0.002,0.052,0.999,-0.244,1853792
-0.002,0.052,0.999,-0.244,1853796
-0.002,0.052,1.0,-0.122,1853800
-0.002,0.052,1.0,-0.183,1853804
-0.002,0.052,1.0,-0.183,1853808
0.0,0.053,1.0,-0.366,1853812
0.0,0.053,1.0,-0.122,1853816
-0.003,0.052,1.001,-0.061,1853820
-0.003,0.052,1.001,-0.122,1853824
-0.003,0.052,1.001,-0.122,1853828
-0.003,0.051,1.001,-0.244,1853832
-0.003,0.051,1.001,-0.183,1853836
-0.003,0.053,0.998,-0.183,1853840
-0.003,0.053,0.998,-0.061,1853844
-0.003,0.053,0.998,-0.061,1853848
-0.002,0.053,0.998,-0.183,1853852
-0.002,0.053,0.998,-0.183,1853856
-0.002,0.052,0.998,-0.183,1853860
-0.002,0.052,0.998,-0.183,1853864
-0.002,0.052,0.998,-0.183,1853868
-0.004,0.052,1.0,-0.183,1853872
-0.004,0.052,1.0,-0.183,1853876
-0.004,0.052,0.999,-0.183,1853880
-0.004,0.052,0.999,-0.183,1853883
-0.004,0.052,0.999,-0.183,1853887
-0.004,0.051,0.999,-0.244,1853891
-0.004,0.051,0.999,-0.183,1853895
-0.004,0.051,0.999,-0.244,1853899
-0.004,0.051,0.999,-0.305,1853903
-0.004,0.051,0.999,-0.305,1853907
-0.003,0.052,0.999,-0.244,1853911
-0.003,0.052,0.999,-0.183,1853915
-0.004,0.052,1.0,-0.183,1853919
-0.004,0.052,1.0,-0.244,1853923
-0.004,0.052,1.0,-0.244,1853927
-0.003,0.052,0.999,-0.183,1853931
-0.003,0.052,0.999,-0.183,1853935
-0.003,0.053,0.998,-0.183,1853939
-0.003,0.053,0.998,-0.061,1853943
-0.003,0.053,0.998,-0.061,1853947
-0.004,0.053,0.999,0.0,1853951
-0.004,0.053,0.999,-0.183,1853955
-0.004,0.052,0.999,-0.061,1853959
-0.004,0.052,0.999,-0.122,1853963
-0.004,0.052,0.999,-0.122,1853967
-0.005,0.052,0.999,-0.061,1853971
-0.005,0.052,0.999,-0.244,1853975
-0.003,0.053,0.997,-0.366,1853979
-0.003,0.053,0.997,-0.244,1853983
-0.003,0.053,0.997,-0.244,1853987
-0.003,0.052,0.998,-0.244,1853991
-0.003,0.052,0.998,-0.183,1853995
-0.003,0.053,0.999,-0.183,1853998
-0.003,0.053,0.999,-0.244,1854002
-0.003,0.053,0.999,-0.244,1854006
-0.004,0.053,0.999,-0.305,1854010
-0.004,0.053,0.999,-0.244,1854014
-0.005,0.051,1.0,-0.061,1854018
-0.005,0.051,1.0,-0.244,1854022
-0.005,0.051,1.0,-0.244,1854026
-0.003,0.053,1.0,-0.244,1854030
-0.003,0.053,1.0,-0.183,1854034
-0.003,0.052,1.0,-0.061,1854038
-0.003,0.052,1.0,-0.183,1854042
-0.003,0.052,1.0,-0.183,1854046
-0.004,0.052,0.999,-0.244,1854050
-0.004,0.052,0.999,-0.244,1854054
-0.004,0.052,0.997,-0.061,1854058
-0.004,0.052,0.997,-0.244,1854062
-0.004,0.052,0.997,-0.244,1854066
-0.003,0.052,1.0,-0.366,1854070
-0.003,0.052,1.0,-0.427,1854074
-0.003,0.051,1.001,-0.244,1854078
-0.003,0.051,1.001,-0.183,1854082
-0.003,0.051,1.001,-0.183,1854086
-0.004,0.05,0.999,-0.366,1854090
-0.004,0.05,0.999,-0.305,1854094
-0.005,0.051,1.0,-0.183,1854098
-0.005,0.051,1.0,-0.244,1854102
-0.005,0.051,1.0,-0.244,1854106
-0.003,0.052,0.999,-0.244,1854110
-0.003,0.052,0.999,-0.305,1854114
-0.004,0.052,0.999,-0.305,1854118
-0.004,0.052,0.999,-0.244,1854122
-0.004,0.052,0.999,-0.244,1854126
-0.004,0.051,1.0,-0.183,1854129
-0.004,0.051,1.0,-0.183,1854133
-0.003,0.052,1.0,-0.305,1854137
-0.003,0.052,1.0,-0.183,1854141
-0.003,0.052,1.0,-0.183,1854145
-0.003,0.052,1.0,-0.244,1854149
-0.003,0.052,1.0,-0.183,1854153
-0.005,0.054,0.999,-0.122,1854157
-0.005,0.054,0.999,-0.244,1854161
-0.005,0.054,0.999,-0.244,1854165
-0.004,0.053,1.0,-0.183,1854169
-0.004,0.053,1.0,-0.122,1854173
-0.005,0.052,1.0,-0.183,1854177
-0.005,0.052,1.0,-0.183,1854181
-0.005,0.052,1.0,-0.183,1854185
-0.004,0.052,0.998,-0.305,1854189
-0.004,0.052,0.998,-0.183,1854193
-0.004,0.053,0.998,-0.244,1854197
-0.004,0.053,0.998,-0.183,1854201
-0.004,0.053,0.998,-0.183,1854205
-0.004,0.052,0.999,-0.244,1854209
-0.004,0.052,0.999,-0.183,1854213
-0.004,0.052,0.999,-0.061,1854217
-0.004,0.052,0.999,-0.244,1854221
-0.004,0.052,0.999,-0.244,1854225
-0.006,0.052,0.999,-0.244,1854229
-0.006,0.052,0.999,-0.061,1854233
-0.005,0.052,1.0,-0.305,1854237
-0.005,0.052,1.0,-0.305,1854241
-0.005,0.052,1.0,-0.305,1854245
-0.004,0.052,0.999,-0.244,1854249
-0.004,0.052,0.999,-0.183,1854253
-0.005,0.052,0.998,-0.122,1854256
-0.005,0.052,0.998,-0.244,1854260
-0.005,0.052,0.998,-0.244,1854264
-0.003,0.052,0.999,-0.122,1854268
-0.003,0.052,0.999,-0.122,1854272
-0.003,0.052,1.0,-0.061,1854276
-0.003,0.052,1.0,-0.122,1854280
-0.003,0.052,1.0,-0.122,1854284
-0.004,0.052,1.0,-0.244,1854288
-0.004,0.052,1.0,-0.244,1854292
-0.003,0.052,0.999,-0.122,1854296
-0.003,0.052,0.999,-0.183,1854300
-0.003,0.052,0.999,-0.183,1854304
-0.004,0.052,0.999,-0.183,1854308
-0.004,0.052,0.999,-0.122,1854312
-0.004,0.052,0.997,-0.122,1854316
-0.004,0.052,0.997,-0.244,1854320
-0.004,0.052,0.997,-0.244,1854324
-0.005,0.053,0.999,-0.366,1854328
-0.005,0.053,0.999,-0.183,1854332
-0.005,0.052,0.999,-0.244,1854336
-0.005,0.052,0.999,-0.244,1854340
-0.005,0.052,0.999,-0.244,1854344
-0.005,0.052,0.999,-0.122,1854348
-0.005,0.052,0.999,-0.244,1854352
-0.004,0.052,0.998,-0.183,1854356
-0.004,0.052,0.998,-0.183,1854360
-0.004,0.052,0.998,-0.183,1854364
-0.003,0.051,1.0,-0.305,1854368
-0.003,0.051,1.0,-0.183,1854372
-0.004,0.053,1.0,-0.183,1854376
-0.004,0.053,1.0,-0.244,1854380
-0.004,0.053,1.0,-0.244,1854384
-0.004,0.052,1.0,-0.183,1854387
-0.004,0.052,1.0,-0.183,1854391
-0.004,0.054,1.001,-0.183,1854395
-0.004,0.054,1.001,-0.061,1854399
-0.004,0.054,1.001,-0.061,1854403
-0.003,0.053,1.001,-0.061,1854407
-0.003,0.053,1.001,-0.366,1854411
-0.004,0.052,0.997,-0.183,1854415
-0.004,0.052,0.997,-0.061,1854419
-0.004,0.052,0.997,-0.061,1854423
-0.005,0.052,0.998,-0.122,1854427
-0.005,0.052,0.998,-0.244,1854431
-0.005,0.052,0.999,-0.122,1854435
-0.005,0.052,0.999,-0.061,1854439
-0.005,0.052,0.999,-0.061,1854443
-0.004,0.052,0.998,-0.244,1854447
-0.004,0.052,0.998,-0.244,1854451
-0.005,0.052,1.0,-0.244,1854455
-0.005,0.052,1.0,-0.122,1854459
-0.005,0.052,1.0,-0.122,1854463
-0.005,0.052,0.999,-0.244,1854467
-0.005,0.052,0.999,-0.183,1854471
-0.005,0.052,0.998,-0.061,1854475
-0.005,0.052,0.998,-0.183,1854479
-0.005,0.052,0.998,-0.183,1854483
-0.003,0.052,0.999,-0.183,1854487
-0.003,0.052,0.999,-0.122,1854491
-0.003,0.052,1.0,-0.122,1854495
-0.003,0.052,1.0,-0.183,1854499
-0.003,0.052,1.0,-0.183,1854503
-0.004,0.051,0.999,-0.122,1854507
-0.004,0.051,0.999,-0.122,1854511
-0.003,0.051,1.0,-0.183,1854515
-0.003,0.051,1.0,-0.305,1854518
-0.003,0.051,1.0,-0.305,1854522
-0.003,0.052,0.999,-0.305,1854526
-0.003,0.052,0.999,-0.183,1854530
-0.004,0.054,0.998,-0.122,1854534
-0.004,0.054,0.998,-0.122,1854538
-0.004,0.054,0.998,-0.122,1854542
-0.004,0.052,0.999,-0.183,1854546
-0.004,0.052,0.999,-0.122,1854550
-0.003,0.053,0.999,0.0,1854554
-0.003,0.053,0.999,-0.122,1854558
-0.003,0.053,0.999,-0.122,1854562
-0.004,0.051,0.997,-0.183,1854566
-0.004,0.051,0.997,-0.305,1854570
-0.003,0.052,0.998,-0.244,1854574
-0.003,0.052,0.998,-0.183,1854578
-0.003,0.052,0.998,-0.183,1854582
-0.003,0.052,0.999,-0.305,1854586
-0.003,0.052,0.999,-0.061,1854590
-0.003,0.052,0.998,-0.244,1854594
-0.003,0.052,0.998,-0.366,1854598
-0.003,0.052,0.998,-0.366,1854602
-0.003,0.054,0.998,-0.244,1854606
-0.003,0.054,0.998,-0.122,1854610
-0.003,0.052,0.998,-0.183,1854614
-0.003,0.052,0.998,-0.183,1854618
-0.003,0.052,0.998,-0.183,1854622
-0.002,0.053,1.0,-0.244,1854626
-0.002,0.053,1.0,-0.122,1854630
-0.005,0.053,0.999,-0.244,1854634
-0.005,0.053,0.999,-0.122,1854637
-0.005,0.053,0.999,-0.122,1854641
-0.005,0.052,1.0,-0.183,1854645
-0.005,0.052,1.0,-0.183,1854649
-0.002,0.052,0.999,-0.244,1854653
-0.002,0.052,0.999,-0.366,1854657
-0.002,0.052,0.999,-0.366,1854661
-0.002,0.053,0.999,-0.183,1854665
-0.002,0.053,0.999,-0.122,1854669
-0.004,0.051,0.999,-0.183,1854673
-0.004,0.051,0.999,-0.305,1854677
-0.004,0.051,0.999,-0.305,1854681
-0.004,0.052,0.999,-0.427,1854685
-0.004,0.052,0.999,-0.183,1854689
-0.002,0.053,0.999,-0.183,1854693
-0.002,0.053,0.999,-0.244,1854697
-0.002,0.053,0.999,-0.244,1854701
-0.005,0.052,0.999,-0.183,1854705
-0.005,0.052,0.999,-0.122,1854709
-0.004,0.052,0.999,-0.122,1854713
-0.004,0.052,0.999,-0.183,1854717
-0.004,0.052,0.999,-0.183,1854721
-0.003,0.052,0.999,-0.183,1854725
-0.003,0.052,0.999,-0.061,1854729
-0.004,0.052,1.0,-0.122,1854733
-0.004,0.052,1.0,-0.122,1854737
-0.004,0.052,1.0,-0.122,1854741
-0.004,0.051,0.998,-0.244,1854745
-0.004,0.051,0.998,-0.305,1854749
-0.004,0.052,1.001,-0.183,1854753
-0.004,0.052,1.001,-0.183,1854757
-0.004,0.052,1.001,-0.183,1854761
-0.002,0.052,0.999,-0.183,1854765
-0.002,0.052,0.999,-0.183,1854768
-0.005,0.053,0.999,-0.305,1854772
-0.005,0.053,0.999,-0.366,1854776
-0.005,0.053,0.999,-0.366,1854780
-0.003,0.052,0.998,-0.305,1854784
-0.003,0.052,0.998,-0.183,1854788
-0.004,0.052,0.998,-0.183,1854792
-0.004,0.052,0.998,-0.183,1854796
-0.005,0.051,0.999,-0.122,1854800
-0.005,0.051,0.999,-0.122,1854804
-0.005,0.051,0.999,-0.183,1854808
-0.003,0.052,0.999,-0.183,1854812
-0.003,0.052,0.999,-0.183,1854816
-0.003,0.051,1.0,-0.122,1854820
-0.003,0.051,1.0,-0.122,1854824
-0.003,0.051,1.0,-0.122,1854828
-0.003,0.053,0.999,-0.122,1854832
-0.003,0.053,0.999,-0.183,1854836
-0.005,0.052,0.999,-0.183,1854840
-0.005,0.052,0.999,-0.183,1854844
-0.005,0.052,0.999,-0.183,1854848
-0.005,0.053,0.999,-0.183,1854852
-0.005,0.053,0.999,-0.183,1854856
-0.003,0.053,0.999,-0.244,1854860
-0.003,0.053,0.999,-0.244,1854864
-0.003,0.053,0.999,-0.244,1854868
-0.004,0.052,1.0,-0.122,1854872
-0.004,0.052,1.0,-0.183,1854876
-0.004,0.052,1.001,-0.183,1854880
-0.004,0.052,1.001,-0.183,1854884
-0.004,0.052,1.001,-0.183,1854888
-0.003,0.052,1.001,-0.061,1854892
-0.003,0.052,1.001,-0.122,1854896
-0.005,0.052,0.998,-0.244,1854900
-0.005,0.052,0.998,-0.244,1854904
-0.005,0.052,0.998,-0.244,1854908
-0.003,0.052,0.996,-0.183,1854911
-0.003,0.052,0.996,-0.183,1854915
-0.004,0.05,1.0,-0.061,1854919
-0.004,0.05,1.0,-0.061,1854923
-0.004,0.05,1.0,-0.183,1854927
-0.005,0.052,0.999,-0.244,1854931
-0.005,0.052,0.999,-0.244,1854935
-0.003,0.053,0.999,-0.122,1854939
-0.003,0.053,0.999,-0.122,1854943
-0.003,0.053,0.999,-0.244,1854947
-0.002,0.051,0.999,-0.305,1854951
-0.002,0.051,0.999,-0.183,1854955
-0.003,0.052,0.999,-0.244,1854959
-0.003,0.052,0.999,-0.244,1854963
-0.003,0.052,0.999,-0.183,1854967
-0.003,0.052,0.998,-0.183,1854971
-0.003,0.052,0.998,-0.183,1854975
-0.005,0.051,0.999,-0.122,1854979
-0.005,0.051,0.999,-0.122,1854983
-0.005,0.051,0.999,-0.183,1854987
-0.005,0.053,1.0,-0.183,1854991
-0.005,0.053,1.0,-0.122,1854995
-0.005,0.052,1.001,-0.305,1854999
-0.005,0.052,1.001,-0.305,1855003
-0.005,0.052,1.001,-0.183,1855007
-0.004,0.05,1.0,-0.122,1855011
-0.004,0.05,1.0,-0.244,1855015
-0.003,0.051,1.0,-0.244,1855019
-0.003,0.051,1.0,-0.244,1855023
-0.003,0.051,1.0,-0.305,1855027
-0.003,0.051,1.0,-0.183,1855031
-0.003,0.051,1.0,-0.183,1855034
-0.004,0.051,0.999,-0.183,1855038
-0.004,0.051,0.999,-0.183,1855042
-0.004,0.051,0.999,-0.122,1855046
-0.003,0.052,1.0,-0.244,1855050
-0.003,0.052,1.0,-0.305,1855054
-0.002,0.052,1.0,-0.244,1855058
-0.002,0.052,1.0,-0.244,1855062
-0.002,0.052,1.0,-0.183,1855066
-0.003,0.051,0.999,-0.183,1855070
-0.003,0.051,0.999,-0.183,1855074
-0.004,0.052,0.997,-0.122,1855078
-0.004,0.052,0.997,-0.122,1855082
-0.004,0.052,0.997,-0.122,1855086
-0.004,0.052,0.998,-0.122,1855090
-0.004,0.052,0.998,-0.183,1855094
-0.004,0.052,0.999,-0.244,1855098
-0.004,0.052,0.999,-0.244,1855102
-0.004,0.052,0.999,-0.183,1855106
-0.004,0.052,0.999,-0.061,1855110
-0.004,0.052,0.999,-0.244,1855114
-0.004,0.052,0.999,-0.122,1855118
-0.004,0.052,0.999,-0.122,1855122
-0.004,0.052,0.999,-0.183,1855126
-0.003,0.053,0.999,-0.183,1855130
-0.003,0.053,0.999,-0.244,1855134
-0.004,0.053,0.999,-0.183,1855138
-0.004,0.053,0.999,-0.183,1855142
-0.004,0.053,0.999,-0.183,1855146
-0.003,0.052,1.001,-0.122,1855150
-0.003,0.052,1.001,-0.061,1855154
-0.003,0.053,1.0,-0.122,1855158
-0.003,0.053,1.0,-0.122,1855162
-0.003,0.053,1.0,-0.244,1855166
-0.004,0.052,1.0,-0.183,1855170
-0.004,0.052,1.0,-0.122,1855174
-0.004,0.052,0.999,-0.183,1855177
-0.004,0.052,0.999,-0.183,1855181
-0.004,0.052,0.999,-0.183,1855185
-0.004,0.052,1.001,-0.244,1855189
-0.004,0.052,1.001,-0.183,1855193
-0.004,0.052,1.0,-0.244,1855197
-0.004,0.052,1.0,-0.244,1855201
