Acc_X,Acc_Y,Acc_Z,Rot_Z,Millis
-0.004,0.053,1.0,-0.305,2020535
-0.004,0.053,1.0,-0.122,2020539
-0.004,0.053,0.999,-0.244,2020543
-0.004,0.053,0.999,-0.244,2020547
-0.004,0.053,0.999,-0.183,2020551
-0.003,0.053,1.0,-0.244,2020555
-0.003,0.053,1.0,-0.244,2020559
-0.002,0.053,1.0,-0.183,2020563
-0.002,0.053,1.0,-0.183,2020567
-0.002,0.053,1.0,-0.183,2020571
-0.003,0.052,0.998,-0.244,2020575
-0.003,0.052,0.998,-0.183,2020579
-0.003,0.053,1.0,-0.244,2020583
-0.003,0.053,1.0,-0.244,2020587
-0.003,0.053,1.0,-0.244,2020591
-0.004,0.052,0.999,-0.183,2020594
-0.004,0.052,0.999,-0.061,2020598
-0.004,0.052,1.0,-0.122,2020602
-0.004,0.052,1.0,-0.122,2020606
-0.004,0.052,1.0,-0.183,2020610
-0.003,0.053,1.001,-0.244,2020614
-0.003,0.053,1.001,-0.183,2020618
-0.006,0.053,1.0,-0.122,2020622
-0.006,0.053,1.0,-0.122,2020626
-0.006,0.053,1.0,-0.244,2020630
-0.005,0.053,0.999,-0.122,2020634
-0.005,0.053,0.999,-0.122,2020638
-0.004,0.053,0.999,-0.183,2020642
-0.004,0.053,0.999,-0.183,2020646
-0.004,0.053,0.999,-0.183,2020650
-0.004,0.054,1.0,-0.183,2020654
-0.004,0.054,1.0,-0.305,2020658
-0.004,0.054,0.999,-0.183,2020662
-0.004,0.054,0.999,-0.183,2020666
-0.004,0.054,0.999,-0.183,2020670
-0.003,0.053,1.0,-0.305,2020674
-0.003,0.053,1.0,-0.244,2020678
-0.004,0.054,1.0,-0.183,2020682
-0.004,0.054,1.0,-0.183,2020686
-0.004,0.054,1.0,-0.244,2020690
-0.006,0.054,0.998,-0.305,2020694
-0.006,0.054,0.998,-0.183,2020698
-0.004,0.053,0.997,-0.122,2020702
-0.004,0.053,0.997,-0.122,2020706
-0.004,0.053,0.997,-0.244,2020710
-0.005,0.052,0.999,-0.122,2020714
-0.005,0.052,0.999,-0.244,2020718
-0.006,0.052,1.0,-0.305,2020722
-0.006,0.052,1.0,-0.305,2020726
-0.006,0.052,1.0,-0.244,2020729
-0.003,0.053,1.0,-0.183,2020733
-0.003,0.053,1.0,-0.244,2020737
-0.005,0.053,0.999,-0.122,2020741
-0.005,0.053,0.999,-0.122,2020745
-0.005,0.053,0.999,-0.122,2020749
-0.005,0.053,0.998,-0.122,2020753
-0.005,0.053,0.998,-0.183,2020757
-0.004,0.053,0.999,-0.122,2020761
-0.004,0.053,0.999,-0.122,2020765
-0.004,0.053,0.999,-0.244,2020769
-0.005,0.052,1.001,-0.183,2020773
-0.005,0.052,1.001,-0.061,2020777
-0.003,0.053,0.999,-0.061,2020781
-0.003,0.053,0.999,-0.061,2020785
-0.003,0.053,0.999,-0.183,2020789
-0.005,0.053,0.998,-0.244,2020793
-0.005,0.053,0.998,-0.183,2020797
-0.002,0.052,0.998,-0.244,2020801
-0.002,0.052,0.998,-0.244,2020805
-0.002,0.052,0.998,-0.122,2020809
-0.002,0.053,1.0,-0.305,2020813
-0.002,0.053,1.0,-0.244,2020817
-0.004,0.053,1.0,-0.244,2020821
-0.004,0.053,1.0,-0.244,2020825
-0.004,0.053,1.0,-0.122,2020829
-0.004,0.053,1.0,-0.305,2020833
-0.004,0.053,1.0,-0.061,2020837
-0.003,0.051,1.001,-0.122,2020841
-0.003,0.051,1.001,-0.122,2020845
-0.003,0.051,1.001,-0.305,2020849
-0.004,0.052,0.999,-0.183,2020853
-0.004,0.052,0.999,-0.122,2020856
-0.004,0.052,0.999,-0.183,2020860
-0.004,0.052,0.999,-0.183,2020864
-0.004,0.052,0.999,-0.244,2020868
-0.004,0.054,1.0,-0.305,2020872
-0.004,0.054,1.0,-0.183,2020876
-0.004,0.053,0.998,-0.122,2020880
-0.004,0.053,0.998,-0.122,2020884
-0.004,0.053,0.998,-0.183,2020888
-0.003,0.054,0.999,-0.244,2020892
-0.003,0.054,0.999,-0.305,2020896
-0.005,0.053,0.999,-0.183,2020900
-0.005,0.053,0.999,-0.183,2020904
-0.005,0.053,0.999,-0.183,2020908
-0.006,0.055,1.0,-0.244,2020912
-0.006,0.055,1.0,-0.183,2020916
-0.005,0.053,0.999,-0.122,2020920
-0.005,0.053,0.999,-0.122,2020924
-0.005,0.053,0.999,-0.061,2020928
-0.006,0.052,0.999,-0.061,2020932
-0.006,0.052,0.999,-0.061,2020936
-0.005,0.053,1.0,-0.183,2020940
-0.005,0.053,1.0,-0.183,2020944
-0.005,0.053,1.0,-0.366,2020948
-0.005,0.053,0.998,-0.427,2020952
-0.005,0.053,0.998,-0.183,2020956
-0.004,0.053,0.999,-0.183,2020960
-0.004,0.053,0.999,-0.183,2020964
-0.004,0.053,0.999,-0.061,2020968
-0.004,0.054,0.998,-0.244,2020972
-0.004,0.054,0.998,-0.305,2020976
-0.003,0.054,0.999,-0.183,2020980
-0.003,0.054,0.999,-0.183,2020984
-0.003,0.054,0.999,-0.061,2020987
-0.004,0.052,1.0,-0.244,2020991
-0.004,0.052,1.0,-0.244,2020995
-0.005,0.053,1.0,-0.244,2020999
-0.005,0.053,1.0,-0.244,2021003
-0.005,0.053,1.0,-0.305,2021007
-0.005,0.054,0.999,-0.183,2021011
-0.005,0.054,0.999,-0.305,2021015
-0.002,0.054,1.0,-0.305,2021019
-0.002,0.054,1.0,-0.305,2021023
-0.002,0.054,1.0,-0.122,2021027
-0.001,0.053,0.998,-0.244,2021031
-0.001,0.053,0.998,-0.122,2021035
-0.004,0.054,0.998,-0.183,2021039
-0.004,0.054,0.998,-0.183,2021043
-0.004,0.054,0.998,-0.244,2021047
-0.004,0.054,0.998,-0.122,2021051
-0.004,0.054,0.998,-0.244,2021055
-0.003,0.053,0.998,-0.305,2021059
-0.003,0.053,0.998,-0.305,2021063
-0.003,0.053,0.998,-0.244,2021067
-0.004,0.054,0.999,-0.122,2021071
-0.004,0.054,0.999,-0.061,2021075
-0.004,0.053,1.001,-0.183,2021079
-0.004,0.053,1.001,-0.183,2021083
-0.004,0.053,1.001,-0.183,2021087
-0.004,0.053,1.0,-0.183,2021091
-0.004,0.053,1.0,-0.183,2021095
-0.005,0.052,0.999,-0.305,2021099
-0.005,0.052,0.999,-0.305,2021103
-0.005,0.052,0.999,-0.244,2021107
-0.005,0.052,1.0,-0.244,2021110
-0.005,0.052,1.0,-0.244,2021114
-0.005,0.054,0.999,-0.305,2021118
-0.005,0.054,0.999,-0.305,2021122
-0.005,0.054,0.999,-0.305,2021126
-0.005,0.054,0.999,-0.183,2021130
-0.005,0.054,0.999,-0.244,2021134
-0.004,0.053,1.0,-0.183,2021138
-0.004,0.053,1.0,-0.183,2021142
-0.004,0.053,1.0,-0.183,2021146
-0.004,0.053,1.001,-0.244,2021150
-0.004,0.053,1.001,-0.305,2021154
-0.005,0.052,0.999,-0.183,2021158
-0.005,0.052,0.999,-0.183,2021162
-0.005,0.052,0.999,-0.183,2021166
-0.006,0.052,0.999,-0.183,2021170
-0.006,0.052,0.999,-0.183,2021174
-0.003,0.052,0.997,-0.183,2021178
-0.003,0.052,0.997,-0.183,2021182
-0.003,0.052,0.997,-0.183,2021186
-0.004,0.054,0.999,-0.183,2021190
-0.004,0.054,0.999,-0.183,2021194
-0.004,0.052,0.998,-0.244,2021198
-0.004,0.052,0.998,-0.244,2021202
-0.004,0.052,0.998,-0.305,2021206
-0.005,0.053,0.998,-0.183,2021210
-0.005,0.053,0.998,-0.183,2021214
-0.003,0.054,1.0,-0.244,2021218
-0.003,0.054,1.0,-0.244,2021222
-0.003,0.054,1.0,-0.183,2021226
-0.001,0.054,0.998,-0.244,2021230
-0.001,0.054,0.998,-0.183,2021234
-0.002,0.052,1.0,-0.183,2021238
-0.002,0.052,1.0,-0.183,2021242
-0.002,0.052,1.0,-0.183,2021245
-0.004,0.053,1.001,-0.244,2021249
-0.004,0.053,1.001,-0.183,2021253
-0.003,0.052,1.0,-0.305,2021257
-0.003,0.052,1.0,-0.305,2021261
-0.003,0.052,1.0,-0.183,2021265
-0.006,0.052,0.998,-0.305,2021269
-0.006,0.052,0.998,-0.427,2021273
-0.003,0.053,1.0,-0.244,2021277
-0.003,0.053,1.0,-0.244,2021281
-0.003,0.053,1.0,-0.244,2021285
-0.002,0.054,1.0,-0.122,2021289
-0.002,0.054,1.0,-0.183,2021293
-0.003,0.052,0.999,-0.183,2021297
-0.003,0.052,0.999,-0.183,2021301
-0.003,0.052,0.999,-0.122,2021305
-0.005,0.053,0.999,-0.183,2021309
-0.005,0.053,0.999,-0.122,2021313
-0.004,0.052,0.999,-0.183,2021317
-0.004,0.052,0.999,-0.183,2021321
-0.004,0.052,0.999,-0.305,2021325
-0.004,0.053,1.0,-0.183,2021329
-0.004,0.053,1.0,-0.122,2021333
-0.004,0.053,0.999,-0.183,2021337
-0.004,0.053,0.999,-0.183,2021341
-0.004,0.053,0.999,-0.122,2021345
-0.003,0.053,0.999,-0.122,2021349
-0.003,0.053,0.999,-0.122,2021353
-0.005,0.054,0.998,-0.183,2021357
-0.005,0.054,0.998,-0.183,2021361
-0.005,0.054,0.998,-0.183,2021365
-0.003,0.053,0.997,-0.244,2021369
-0.003,0.053,0.997,-0.122,2021372
-0.004,0.052,0.999,-0.122,2021376
-0.004,0.052,0.999,-0.122,2021380
-0.004,0.052,0.999,-0.183,2021384
-0.004,0.052,0.998,-0.061,2021388
-0.004,0.052,0.998,-0.183,2021392
-0.002,0.052,1.0,-0.183,2021396
-0.002,0.052,1.0,-0.183,2021400
-0.002,0.052,1.0,-0.183,2021404
-0.003,0.053,0.999,-0.305,2021408
-0.003,0.053,0.999,-0.183,2021412
-0.004,0.053,0.999,-0.183,2021416
-0.004,0.053,0.999,-0.183,2021420
-0.004,0.053,0.999,-0.305,2021424
-0.004,0.052,1.0,-0.183,2021428
-0.004,0.052,1.0,-0.122,2021432
-0.004,0.053,0.999,-0.305,2021436
-0.004,0.053,0.999,-0.305,2021440
-0.004,0.053,0.999,-0.244,2021444
-0.003,0.054,1.0,-0.122,2021448
-0.003,0.054,1.0,-0.244,2021452
-0.004,0.052,0.999,-0.183,2021456
-0.004,0.052,0.999,-0.183,2021460
-0.004,0.052,0.999,-0.122,2021464
-0.004,0.052,1.0,-0.122,2021468
-0.004,0.052,1.0,-0.305,2021472
-0.002,0.052,0.998,-0.244,2021476
-0.002,0.052,0.998,-0.244,2021480
-0.002,0.052,0.998,-0.183,2021484
-0.002,0.052,0.998,-0.183,2021488
-0.002,0.052,0.998,-0.244,2021492
-0.004,0.054,1.001,-0.244,2021496
-0.004,0.054,1.001,-0.244,2021499
-0.004,0.054,1.001,-0.183,2021503
-0.004,0.053,1.0,-0.183,2021507
-0.004,0.053,1.0,-0.183,2021511
-0.004,0.054,0.999,-0.244,2021515
-0.004,0.054,0.999,-0.244,2021519
-0.004,0.054,0.999,-0.244,2021523
-0.006,0.053,1.0,-0.305,2021527
-0.006,0.053,1.0,-0.183,2021531
-0.003,0.052,0.999,-0.183,2021535
-0.003,0.052,0.999,-0.183,2021539
-0.003,0.052,0.999,-0.183,2021543
-0.003,0.052,0.999,-0.183,2021547
-0.003,0.052,0.999,-0.122,2021551
-0.003,0.052,0.998,-0.183,2021555
-0.003,0.052,0.998,-0.183,2021559
-0.003,0.052,0.998,-0.305,2021563
-0.005,0.052,1.0,-0.244,2021567
-0.005,0.052,1.0,-0.122,2021571
-0.005,0.054,0.999,-0.244,2021575
-0.005,0.054,0.999,-0.244,2021579
-0.005,0.054,0.999,-0.122,2021583
-0.003,0.053,1.0,-0.122,2021587
-0.003,0.053,1.0,-0.122,2021591
-0.003,0.052,0.998,-0.122,2021595
-0.003,0.052,0.998,-0.122,2021599
-0.003,0.052,0.998,-0.122,2021603
-0.005,0.052,1.0,-0.122,2021607
-0.005,0.052,1.0,-0.183,2021611
-0.002,0.052,0.999,-0.244,2021615
-0.002,0.052,0.999,-0.244,2021619
-0.002,0.052,0.999,-0.122,2021623
-0.003,0.052,0.998,-0.122,2021627
-0.003,0.052,0.998,-0.122,2021630
-0.003,0.054,0.998,-0.244,2021634
-0.003,0.054,0.998,-0.244,2021638
-0.003,0.054,0.998,-0.305,2021642
-0.004,0.054,1.0,-0.244,2021646
-0.004,0.054,1.0,-0.183,2021650
-0.002,0.055,1.0,-0.244,2021654
-0.002,0.055,1.0,-0.244,2021658
-0.002,0.055,1.0,-0.122,2021662
-0.004,0.053,0.999,-0.244,2021666
-0.004,0.053,0.999,-0.244,2021670
-0.005,0.052,0.998,-0.244,2021674
-0.005,0.052,0.998,-0.244,2021678
-0.005,0.052,0.998,-0.122,2021682
-0.005,0.053,0.999,-0.122,2021686
-0.005,0.053,0.999,-0.244,2021690
-0.005,0.052,1.0,-0.183,2021694
-0.005,0.052,1.0,-0.305,2021698
-0.005,0.052,1.0,-0.305,2021702
-0.005,0.052,0.999,-0.244,2021706
-0.005,0.052,0.999,-0.244,2021710
-0.004,0.054,1.0,-0.244,2021714
-0.004,0.054,1.0,-0.244,2021718
-0.004,0.054,1.0,-0.183,2021722
-0.005,0.053,1.0,-0.244,2021726
-0.005,0.053,1.0,-0.244,2021730
-0.005,0.052,1.0,-0.183,2021734
-0.005,0.052,1.0,-0.183,2021738
-0.005,0.052,1.0,-0.183,2021742
-0.004,0.052,0.999,-0.061,2021746
-0.004,0.052,0.999,-0.183,2021750
-0.005,0.053,0.999,-0.244,2021754
-0.005,0.053,0.999,-0.244,2021757
-0.005,0.053,0.999,-0.122,2021761
-0.002,0.053,0.999,-0.183,2021765
-0.002,0.053,0.999,-0.244,2021769
-0.003,0.053,0.998,-0.244,2021773
-0.003,0.053,0.998,-0.183,2021777
-0.003,0.053,0.998,-0.183,2021781
-0.004,0.053,1.001,-0.183,2021785
-0.004,0.053,1.001,-0.244,2021789
-0.003,0.052,1.0,-0.244,2021793
-0.003,0.052,1.0,-0.244,2021797
-0.003,0.052,1.0,-0.244,2021801
-0.005,0.052,0.999,-0.366,2021805
-0.005,0.052,0.999,-0.244,2021809
-0.005,0.051,1.0,-0.183,2021813
-0.005,0.051,1.0,-0.244,2021817
-0.005,0.051,1.0,-0.244,2021821
-0.004,0.052,0.999,-0.305,2021825
-0.004,0.052,0.999,-0.183,2021829
-0.003,0.052,0.998,-0.183,2021833
-0.003,0.052,0.998,-0.183,2021837
-0.003,0.052,0.998,-0.183,2021841
-0.004,0.052,0.999,-0.183,2021845
-0.004,0.052,0.999,-0.183,2021849
-0.004,0.052,1.0,-0.183,2021853
-0.004,0.052,1.0,-0.122,2021857
-0.004,0.052,1.0,-0.122,2021861
-0.004,0.054,1.0,-0.122,2021865
-0.004,0.054,1.0,-0.122,2021869
-0.004,0.055,0.999,-0.183,2021873
-0.004,0.055,0.999,-0.122,2021877
-0.004,0.055,0.999,-0.122,2021881
-0.005,0.054,0.999,-0.122,2021885
-0.005,0.054,0.999,-0.183,2021888
-0.004,0.054,0.999,-0.305,2021892
-0.004,0.054,0.999,-0.183,2021896
-0.004,0.054,0.999,-0.183,2021900
-0.003,0.053,1.0,-0.122,2021904
-0.003,0.053,1.0,-0.244,2021908
-0.004,0.052,1.0,-0.305,2021912
-0.004,0.052,1.0,-0.244,2021916
-0.004,0.052,1.0,-0.244,2021920
-0.004,0.053,0.999,-0.183,2021924
-0.004,0.053,0.999,-0.183,2021928
-0.005,0.054,0.999,-0.244,2021932
-0.005,0.054,0.999,-0.183,2021936
-0.005,0.054,0.999,-0.183,2021940
-0.004,0.052,1.0,-0.061,2021944
-0.004,0.052,1.0,-0.122,2021948
-0.004,0.053,0.999,-0.122,2021952
-0.004,0.053,0.999,-0.122,2021956
-0.004,0.053,0.999,-0.122,2021960
-0.002,0.053,0.997,-0.183,2021964
-0.002,0.053,0.997,-0.366,2021968
-0.003,0.054,0.998,-0.244,2021972
-0.003,0.054,0.998,-0.183,2021976
-0.003,0.054,0.998,-0.183,2021980
-0.004,0.053,0.999,-0.122,2021984
-0.004,0.053,0.999,-0.183,2021988
-0.004,0.052,0.999,-0.122,2021992
-0.004,0.052,0.999,-0.122,2021996
-0.004,0.052,0.999,-0.122,2022000
-0.005,0.053,0.999,-0.244,2022004
-0.005,0.053,0.999,-0.244,2022008
-0.004,0.054,1.001,-0.183,2022011
-0.004,0.054,1.001,-0.244,2022015
-0.004,0.054,1.001,-0.244,2022019
-0.003,0.053,1.001,-0.244,2022023
-0.003,0.053,1.001,-0.183,2022027
-0.004,0.052,1.0,-0.244,2022031
-0.004,0.052,1.0,-0.305,2022035
-0.004,0.052,1.0,-0.305,2022039
-0.005,0.052,0.999,-0.183,2022043
-0.005,0.052,0.999,-0.061,2022047
-0.003,0.052,1.0,-0.244,2022051
-0.003,0.052,1.0,-0.305,2022055
-0.003,0.052,1.0,-0.305,2022059
-0.003,0.053,1.0,-0.244,2022063
-0.003,0.053,1.0,-0.183,2022067
-0.003,0.053,0.999,-0.244,2022071
-0.003,0.053,0.999,-0.183,2022075
-0.003,0.053,0.999,-0.183,2022079
-0.003,0.054,1.0,-0.183,2022083
-0.003,0.054,1.0,-0.183,2022087
-0.006,0.054,0.998,-0.183,2022091
-0.006,0.054,0.998,-0.183,2022095
-0.006,0.054,0.998,-0.183,2022099
-0.004,0.052,0.998,-0.061,2022103
-0.004,0.052,0.998,-0.061,2022107
-0.004,0.053,1.0,-0.122,2022111
-0.004,0.053,1.0,-0.122,2022115
-0.004,0.053,1.0,-0.122,2022119
-0.003,0.053,1.001,-0.183,2022123
-0.003,0.053,1.001,-0.244,2022127
-0.003,0.052,0.998,-0.427,2022131
-0.003,0.052,0.998,-0.366,2022134
-0.003,0.052,0.998,-0.366,2022138
-0.003,0.052,0.998,-0.183,2022142
-0.003,0.052,0.998,-0.244,2022146
-0.003,0.053,0.999,-0.305,2022150
-0.003,0.053,0.999,-0.305,2022154
-0.003,0.053,0.999,-0.305,2022158
-0.004,0.052,0.999,-0.305,2022162
-0.004,0.052,0.999,-0.183,2022166
-0.002,0.054,0.999,-0.183,2022170
-0.002,0.054,0.999,-0.183,2022174
-0.002,0.054,0.999,-0.183,2022178
-0.005,0.054,1.0,-0.183,2022182
-0.005,0.054,1.0,-0.183,2022186
-0.006,0.053,1.0,-0.244,2022190
-0.006,0.053,1.0,-0.305,2022194
-0.006,0.053,1.0,-0.305,2022198
-0.005,0.053,1.0,-0.183,2022202
-0.005,0.053,1.0,-0.183,2022206
-0.003,0.052,0.998,-0.244,2022210
-0.003,0.052,0.998,-0.183,2022214
-0.003,0.052,0.998,-0.183,2022218
-0.004,0.053,0.997,-0.061,2022222
-0.004,0.053,0.997,-0.061,2022226
-0.005,0.053,0.999,-0.122,2022230
-0.005,0.053,0.999,-0.244,2022234
-0.005,0.053,0.999,-0.244,2022238
-0.005,0.054,0.998,-0.122,2022242
-0.005,0.054,0.998,-0.183,2022246
-0.004,0.053,0.998,-0.305,2022250
-0.004,0.053,0.998,-0.244,2022254
-0.004,0.053,0.998,-0.244,2022258
-0.003,0.053,1.0,-0.183,2022261
-0.003,0.053,1.0,-0.183,2022265
-0.002,0.053,0.998,-0.244,2022269
-0.002,0.053,0.998,-0.122,2022273
-0.002,0.053,0.998,-0.122,2022277
-0.002,0.051,1.001,-0.122,2022281
-0.002,0.051,1.001,-0.183,2022285
-0.003,0.053,0.999,-0.183,2022289
-0.003,0.053,0.999,-0.305,2022293
-0.003,0.053,0.999,-0.305,2022297
-0.005,0.054,0.999,-0.244,2022301
-0.005,0.054,0.999,-0.061,2022305
-0.004,0.053,1.0,-0.183,2022309
-0.004,0.053,1.0,-0.305,2022313
-0.004,0.053,1.0,-0.305,2022317
-0.003,0.053,0.999,-0.305,2022321
-0.003,0.053,0.999,-0.305,2022325
-0.003,0.053,1.0,-0.183,2022329
-0.003,0.053,1.0,-0.122,2022333
-0.003,0.053,1.0,-0.122,2022337
-0.005,0.052,1.0,-0.122,2022341
-0.005,0.052,1.0,-0.183,2022345
-0.003,0.052,0.999,-0.183,2022349
-0.003,0.052,0.999,-0.183,2022353
-0.003,0.052,0.999,-0.183,2022357
-0.005,0.053,1.0,-0.122,2022361
-0.005,0.053,1.0,-0.183,2022365
-0.005,0.053,1.0,-0.122,2022369
-0.005,0.053,1.0,-0.244,2022373
-0.005,0.053,1.0,-0.244,2022377
-0.005,0.052,1.0,-0.122,2022381
-0.005,0.052,1.0,-0.183,2022385
-0.004,0.053,0.999,-0.183,2022388
-0.004,0.053,0.999,-0.061,2022392
-0.004,0.053,0.999,-0.061,2022396
-0.004,0.053,0.999,-0.244,2022400
-0.004,0.053,0.999,-0.244,2022404
-0.004,0.053,0.999,-0.244,2022408
-0.004,0.053,0.999,-0.122,2022412
-0.004,0.053,0.999,-0.122,2022416
-0.005,0.053,1.0,-0.122,2022420
-0.005,0.053,1.0,-0.183,2022424
-0.003,0.052,1.0,-0.183,2022428
-0.003,0.052,1.0,-0.244,2022432
-0.003,0.052,1.0,-0.244,2022436
-0.005,0.053,1.0,-0.244,2022440
-0.005,0.053,1.0,-0.305,2022444
-0.002,0.053,1.0,-0.244,2022448
-0.002,0.053,1.0,-0.183,2022452
-0.002,0.053,1.0,-0.183,2022456
-0.003,0.053,0.998,-0.183,2022460
-0.003,0.053,0.998,-0.183,2022464
-0.005,0.053,0.998,-0.183,2022468
-0.005,0.053,0.998,-0.183,2022472
-0.005,0.053,0.998,-0.183,2022476
-0.004,0.054,0.998,-0.122,2022480
-0.004,0.054,0.998,-0.122,2022484
-0.006,0.054,0.999,-0.122,2022488
-0.006,0.054,0.999,-0.305,2022492
-0.006,0.054,0.999,-0.305,2022496
-0.006,0.053,0.999,-0.244,2022500
-0.006,0.053,0.999,-0.305,2022504
-0.005,0.052,1.0,-0.183,2022508
-0.005,0.052,1.0,-0.183,2022512
-0.005,0.052,1.0,-0.183,2022516
-0.003,0.053,0.998,-0.183,2022520
-0.003,0.053,0.998,-0.305,2022524
-0.004,0.052,0.999,-0.244,2022527
-0.004,0.052,0.999,-0.244,2022531
-0.004,0.052,0.999,-0.244,2022535
-0.004,0.053,1.0,-0.061,2022539
-0.004,0.053,1.0,-0.244,2022543
-0.003,0.052,0.999,-0.183,2022547
-0.003,0.052,0.999,-0.122,2022551
-0.003,0.052,0.999,-0.122,2022555
-0.004,0.054,1.0,-0.122,2022559
-0.004,0.054,1.0,-0.183,2022563
-0.003,0.054,1.001,-0.183,2022567
-0.003,0.054,1.001,-0.122,2022571
-0.003,0.054,1.001,-0.122,2022575
-0.004,0.054,1.001,-0.183,2022579
-0.004,0.054,1.001,-0.244,2022583
-0.004,0.054,1.0,-0.305,2022587
-0.004,0.054,1.0,-0.244,2022591
-0.004,0.054,1.0,-0.244,2022595
-0.004,0.054,0.997,-0.305,2022599
-0.004,0.054,0.997,-0.366,2022603
-0.003,0.054,1.0,-0.183,2022607
-0.003,0.054,1.0,-0.183,2022611
-0.003,0.054,1.0,-0.183,2022615
-0.004,0.053,0.998,-0.183,2022619
-0.004,0.053,0.998,-0.122,2022623
-0.005,0.054,0.998,-0.244,2022627
-0.005,0.054,0.998,-0.183,2022631
-0.005,0.054,0.998,-0.183,2022635
-0.003,0.052,0.998,-0.122,2022639
-0.003,0.052,0.998,-0.122,2022643
-0.003,0.054,1.001,0.0,2022647
-0.003,0.054,1.001,-0.122,2022651
-0.003,0.054,1.001,-0.122,2022654
-0.004,0.054,1.0,-0.305,2022658
-0.004,0.054,1.0,-0.366,2022662
-0.005,0.053,0.999,-0.305,2022666
-0.005,0.053,0.999,-0.244,2022670
-0.005,0.053,0.999,-0.244,2022674
-0.004,0.052,0.999,-0.244,2022678
-0.004,0.052,0.999,-0.244,2022682
-0.004,0.052,1.0,-0.366,2022686
-0.004,0.052,1.0,-0.061,2022690
-0.004,0.052,1.0,-0.061,2022694
-0.006,0.053,0.998,-0.122,2022698
-0.006,0.053,0.998,-0.244,2022702
-0.004,0.054,0.999,-0.183,2022706
-0.004,0.054,0.999,-0.122,2022710
-0.004,0.054,0.999,-0.122,2022714
-0.004,0.052,1.0,-0.244,2022718
-0.004,0.052,1.0,-0.244,2022722
-0.005,0.052,0.999,-0.305,2022726
-0.005,0.052,0.999,-0.244,2022730
-0.005,0.052,0.999,-0.244,2022734
-0.004,0.052,1.001,0.0,2022738
-0.004,0.052,1.001,-0.122,2022742
-0.004,0.053,0.999,-0.183,2022746
-0.004,0.053,0.999,-0.244,2022750
-0.004,0.053,0.999,-0.244,2022754
-0.003,0.054,0.999,-0.366,2022758
-0.003,0.054,0.999,-0.244,2022762
-0.001,0.053,1.001,-0.183,2022766
-0.001,0.053,1.001,-0.061,2022770
-0.001,0.053,1.001,-0.061,2022774
-0.004,0.052,0.999,-0.122,2022778
-0.004,0.052,0.999,-0.305,2022781
-0.004,0.052,1.0,-0.183,2022785
-0.004,0.052,1.0,-0.183,2022789
-0.004,0.052,1.0,-0.183,2022793
-0.003,0.053,1.001,-0.244,2022797
-0.003,0.053,1.001,-0.183,2022801
-0.004,0.052,1.0,-0.305,2022805
-0.004,0.052,1.0,-0.244,2022809
-0.004,0.052,1.0,-0.244,2022813
-0.005,0.054,0.999,-0.183,2022817
-0.005,0.054,0.999,-0.244,2022821
-0.005,0.053,1.0,-0.183,2022825
-0.005,0.053,1.0,-0.122,2022829
-0.005,0.053,1.0,-0.122,2022833
-0.005,0.052,1.0,-0.183,2022837
-0.005,0.052,1.0,-0.183,2022841
-0.006,0.053,1.0,0.0,2022845
-0.006,0.053,1.0,-0.122,2022849
-0.006,0.053,1.0,-0.122,2022853
-0.005,0.053,0.998,-0.183,2022857
-0.005,0.053,0.998,-0.122,2022861
-0.004,0.052,1.001,-0.183,2022865
-0.004,0.052,1.001,-0.244,2022869
-0.004,0.052,1.001,-0.244,2022873
-0.005,0.052,1.001,-0.305,2022877
-0.005,0.052,1.001,-0.244,2022881
-0.005,0.053,0.997,-0.122,2022885
-0.005,0.053,0.997,-0.122,2022889
-0.005,0.053,0.997,-0.122,2022893
-0.004,0.051,0.999,-0.183,2022897
-0.004,0.051,0.999,-0.183,2022901
-0.004,0.052,0.997,-0.122,2022905
-0.004,0.052,0.997,-0.366,2022909
-0.004,0.052,0.997,-0.366,2022912
-0.003,0.053,0.997,-0.244,2022916
-0.003,0.053,0.997,-0.122,2022920
-0.006,0.052,0.998,-0.061,2022924
-0.006,0.052,0.998,-0.183,2022928
-0.006,0.052,0.998,-0.183,2022932
-0.004,0.052,0.999,-0.305,2022936
-0.004,0.052,0.999,-0.244,2022940
-0.002,0.052,0.999,-0.305,2022944
-0.002,0.052,0.999,-0.183,2022948
-0.002,0.052,0.999,-0.183,2022952
-0.003,0.053,0.999,-0.183,2022956
-0.003,0.053,0.999,-0.183,2022960
-0.004,0.054,0.998,-0.183,2022964
-0.004,0.054,0.998,-0.122,2022968
-0.004,0.054,0.998,-0.122,2022972
-0.003,0.052,0.999,-0.244,2022976
-0.003,0.052,0.999,-0.183,2022980
-0.002,0.052,1.0,-0.244,2022984
-0.002,0.052,1.0,-0.122,2022988
-0.002,0.052,1.0,-0.122,2022992
-0.003,0.053,1.0,-0.244,2022996
-0.003,0.053,1.0,-0.244,2023000
-0.003,0.053,0.999,-0.183,2023004
-0.003,0.053,0.999,-0.244,2023008
-0.003,0.053,0.999,-0.244,2023012
-0.003,0.053,0.998,-0.366,2023016
-0.003,0.053,0.998,-0.122,2023020
-0.004,0.052,1.0,-0.061,2023024
-0.004,0.052,1.0,-0.122,2023028
-0.004,0.052,1.0,-0.122,2023032
-0.005,0.054,1.0,-0.305,2023036
-0.005,0.054,1.0,-0.183,2023040
-0.004,0.054,1.0,-0.244,2023044
-0.004,0.054,1.0,-0.244,2023048
-0.004,0.054,1.0,-0.244,2023052
-0.004,0.053,0.998,-0.244,2023055
-0.004,0.053,0.998,-0.244,2023059
-0.005,0.053,1.0,-0.244,2023063
-0.005,0.053,1.0,-0.305,2023067
-0.005,0.053,1.0,-0.305,2023071
-0.006,0.052,0.998,-0.244,2023075
-0.006,0.052,0.998,-0.122,2023079
-0.004,0.052,0.998,-0.183,2023083
-0.004,0.052,0.998,-0.183,2023087
-0.004,0.052,0.998,-0.183,2023091
-0.005,0.051,0.999,-0.183,2023095
-0.005,0.051,0.999,-0.244,2023099
-0.005,0.051,0.999,-0.183,2023103
-0.005,0.051,0.999,-0.122,2023107
-0.005,0.051,0.999,-0.122,2023111
-0.004,0.053,0.998,-0.183,2023115
-0.004,0.053,0.998,-0.244,2023119
-0.004,0.052,0.999,-0.122,2023123
-0.004,0.052,0.999,-0.244,2023127
-0.004,0.052,0.999,-0.244,2023131
-0.003,0.053,0.999,-0.244,2023135
-0.003,0.053,0.999,-0.122,2023139
-0.003,0.052,1.0,-0.061,2023143
-0.003,0.052,1.0,-0.183,2023147
-0.003,0.052,1.0,-0.183,2023151
-0.006,0.054,1.0,-0.183,2023155
-0.006,0.054,1.0,-0.183,2023159
-0.003,0.053,0.999,-0.244,2023163
-0.003,0.053,0.999,-0.183,2023167
-0.003,0.053,0.999,-0.183,2023171
-0.003,0.053,0.999,-0.244,2023175
-0.003,0.053,0.999,-0.061,2023179
-0.004,0.053,0.998,-0.305,2023182
-0.004,0.053,0.998,-0.244,2023186
-0.004,0.053,0.998,-0.244,2023190
-0.002,0.053,0.998,-0.183,2023194
-0.002,0.053,0.998,-0.061,2023198
-0.004,0.053,1.0,-0.061,2023202
-0.004,0.053,1.0,-0.244,2023206
-0.004,0.053,1.0,-0.244,2023210
-0.005,0.052,1.001,-0.305,2023214
-0.005,0.052,1.001,-0.183,2023218
-0.004,0.053,1.0,-0.183,2023222
-0.004,0.053,1.0,-0.183,2023226
-0.004,0.053,1.0,-0.183,2023230
-0.004,0.053,1.0,-0.305,2023234
-0.004,0.053,1.0,-0.244,2023238
-0.004,0.052,0.999,-0.244,2023242
-0.004,0.052,0.999,-0.305,2023246
-0.004,0.052,0.999,-0.305,2023250
-0.003,0.052,0.999,-0.244,2023254
-0.003,0.052,0.999,-0.122,2023258
-0.004,0.052,0.999,-0.244,2023262
-0.004,0.052,0.999,-0.183,2023266
-0.004,0.052,0.999,-0.183,2023270
-0.006,0.053,0.999,-0.183,2023274
-0.006,0.053,0.999,-0.061,2023278
-0.003,0.054,0.999,-0.244,2023282
-0.003,0.054,0.999,-0.183,2023286
-0.003,0.054,0.999,-0.183,2023290
-0.003,0.053,0.999,-0.061,2023294
-0.003,0.053,0.999,-0.183,2023298
-0.005,0.052,0.998,-0.183,2023302
-0.005,0.052,0.998,-0.122,2023305
-0.005,0.052,0.998,-0.122,2023309
-0.004,0.053,0.999,-0.183,2023313
-0.004,0.053,0.999,-0.183,2023317
-0.003,0.054,1.0,-0.305,2023321
-0.003,0.054,1.0,-0.244,2023325
-0.003,0.054,1.0,-0.244,2023329
-0.003,0.053,0.999,-0.122,2023333
-0.003,0.053,0.999,-0.244,2023337
-0.004,0.052,0.999,-0.244,2023341
-0.004,0.052,0.999,-0.183,2023345
-0.004,0.052,0.999,-0.183,2023349
-0.003,0.053,0.999,-0.061,2023353
-0.003,0.053,0.999,-0.244,2023357
-0.003,0.053,0.999,-0.183,2023361
-0.003,0.053,0.999,-0.244,2023365
-0.003,0.053,0.999,-0.244,2023369
-0.004,0.053,1.0,-0.183,2023373
-0.004,0.053,1.0,-0.305,2023377
-0.003,0.054,1.0,-0.244,2023381
-0.003,0.054,1.0,-0.061,2023385
-0.003,0.054,1.0,-0.061,2023389
-0.003,0.054,1.0,-0.244,2023393
-0.003,0.054,1.0,-0.244,2023397
-0.004,0.054,1.0,-0.183,2023401
-0.004,0.054,1.0,-0.183,2023405
-0.004,0.054,1.0,-0.183,2023409
-0.002,0.053,0.998,-0.244,2023413
-0.002,0.053,0.998,-0.183,2023417
-0.004,0.053,1.0,-0.122,2023421
-0.004,0.053,1.0,-0.183,2023425
-0.004,0.053,1.0,-0.183,2023429
-0.004,0.052,0.999,-0.244,2023433
-0.004,0.052,0.999,-0.305,2023437
-0.003,0.052,1.0,-0.183,2023440
-0.003,0.052,1.0,-0.122,2023444
-0.003,0.052,1.0,-0.122,2023448
-0.004,0.052,1.0,-0.366,2023452
-0.004,0.052,1.0,-0.244,2023456
-0.006,0.053,1.0,-0.183,2023460
-0.006,0.053,1.0,-0.244,2023464
-0.006,0.053,1.0,-0.244,2023468
-0.004,0.052,1.0,-0.244,2023472
-0.004,0.052,1.0,-0.122,2023476
-0.005,0.053,0.999,-0.122,2023480
-0.005,0.053,0.999,-0.244,2023484
-0.005,0.053,0.999,-0.244,2023488
-0.005,0.052,0.997,-0.244,2023492
-0.005,0.052,0.997,-0.305,2023496
-0.004,0.052,0.999,-0.183,2023500
-0.004,0.052,0.999,-0.183,2023504
-0.004,0.052,0.999,-0.183,2023508
-0.001,0.053,0.999,-0.183,2023512
-0.001,0.053,0.999,-0.244,2023516
-0.003,0.052,0.999,-0.183,2023520
-0.003,0.052,0.999,-0.061,2023524
-0.003,0.052,0.999,-0.061,2023528
-0.004,0.053,0.998,-0.244,2023532
-0.004,0.053,0.998,-0.244,2023536
-0.004,0.053,0.997,-0.244,2023540
-0.004,0.053,0.997,-0.244,2023544
-0.004,0.053,0.997,-0.244,2023548
-0.005,0.053,0.999,-0.244,2023552
-0.005,0.053,0.999,-0.244,2023556
-0.004,0.053,1.001,-0.305,2023560
-0.004,0.053,1.001,-0.183,2023564
-0.004,0.053,1.001,-0.183,2023567
-0.005,0.054,0.999,-0.183,2023571
-0.005,0.054,0.999,-0.122,2023575
-0.004,0.053,0.998,-0.122,2023579
-0.004,0.053,0.998,-0.244,2023583
-0.004,0.053,0.998,-0.244,2023587
-0.004,0.054,0.999,-0.244,2023591
-0.004,0.054,0.999,-0.183,2023595
-0.004,0.054,0.999,-0.183,2023599
-0.004,0.054,0.999,-0.305,2023603
-0.004,0.054,0.999,-0.305,2023607
-0.003,0.053,1.0,-0.183,2023611
-0.003,0.053,1.0,-0.061,2023615
-0.004,0.053,1.0,-0.122,2023619
-0.004,0.053,1.0,-0.305,2023623
-0.004,0.053,1.0,-0.305,2023627
-0.004,0.053,1.001,-0.305,2023631
-0.004,0.053,1.001,0.0,2023635
-0.003,0.052,1.0,-0.122,2023639
-0.003,0.052,1.0,-0.122,2023643
-0.003,0.052,1.0,-0.122,2023647
-0.005,0.054,0.999,-0.183,2023651
-0.005,0.054,0.999,-0.122,2023655
-0.006,0.053,0.999,-0.244,2023659
-0.006,0.053,0.999,-0.183,2023663
-0.006,0.053,0.999,-0.183,2023667
-0.005,0.053,0.999,-0.244,2023671
-0.005,0.053,0.999,-0.183,2023675
-0.003,0.052,1.0,-0.183,2023679
-0.003,0.052,1.0,-0.244,2023683
-0.003,0.052,1.0,-0.244,2023687
-0.005,0.052,1.0,-0.244,2023691
-0.005,0.052,1.0,-0.244,2023695
-0.004,0.052,1.001,-0.244,2023698
-0.004,0.052,1.001,-0.122,2023702
-0.004,0.052,1.001,-0.122,2023706
-0.005,0.052,1.001,-0.061,2023710
-0.005,0.052,1.001,-0.061,2023714
-0.004,0.053,0.998,-0.122,2023718
-0.004,0.053,0.998,-0.183,2023722
-0.004,0.053,0.998,-0.183,2023726
-0.003,0.053,1.0,-0.183,2023730
-0.003,0.053,1.0,-0.183,2023734
-0.003,0.052,0.999,-0.183,2023738
-0.003,0.052,0.999,-0.305,2023742
-0.003,0.052,0.999,-0.305,2023746
-0.004,0.052,1.0,-0.244,2023750
-0.004,0.052,1.0,-0.183,2023754
-0.003,0.053,1.0,-0.183,2023758
-0.003,0.053,1.0,-0.244,2023762
-0.003,0.053,1.0,-0.244,2023766
-0.003,0.054,0.999,-0.183,2023770
-0.003,0.054,0.999,-0.183,2023774
-0.003,0.053,0.999,-0.183,2023778
-0.003,0.053,0.999,-0.183,2023782
-0.003,0.053,0.999,-0.183,2023786
-0.005,0.053,1.0,-0.183,2023790
-0.005,0.053,1.0,-0.183,2023794
-0.005,0.053,1.0,-0.122,2023798
-0.005,0.053,1.0,-0.061,2023802
-0.005,0.053,1.0,-0.061,2023806
-0.003,0.052,0.999,-0.244,2023810
-0.003,0.052,0.999,-0.366,2023814
-0.003,0.052,1.0,-0.122,2023818
-0.003,0.052,1.0,-0.244,2023822
-0.003,0.052,1.0,-0.244,2023826
-0.004,0.052,1.0,-0.122,2023829
-0.004,0.052,1.0,-0.183,2023833
-0.004,0.053,0.999,-0.183,2023837
-0.004,0.053,0.999,-0.305,2023841
-0.004,0.053,0.999,-0.305,2023845
-0.003,0.053,0.999,-0.183,2023849
-0.003,0.053,0.999,-0.061,2023853
-0.005,0.052,1.0,-0.122,2023857
-0.005,0.052,1.0,-0.183,2023861
-0.005,0.052,1.0,-0.183,2023865
-0.005,0.052,0.999,-0.122,2023869
-0.005,0.052,0.999,-0.183,2023873
-0.004,0.053,1.0,-0.244,2023877
-0.004,0.053,1.0,-0.244,2023881
-0.004,0.053,1.0,-0.244,2023885
-0.003,0.054,1.001,-0.061,2023889
-0.003,0.054,1.001,-0.183,2023893
-0.004,0.054,0.999,-0.183,2023897
-0.004,0.054,0.999,-0.244,2023901
-0.004,0.054,0.999,-0.244,2023905
-0.004,0.054,1.0,-0.244,2023909
-0.004,0.054,1.0,-0.122,2023913
-0.004,0.053,0.999,-0.122,2023917
-0.004,0.053,0.999,-0.061,2023921
-0.004,0.053,0.999,-0.061,2023925
-0.004,0.053,0.998,-0.183,2023929
-0.004,0.053,0.998,-0.305,2023933
-0.005,0.052,0.999,-0.183,2023937
-0.005,0.052,0.999,-0.122,2023941
-0.005,0.052,0.999,-0.122,2023945
-0.003,0.051,1.0,-0.122,2023949
-0.003,0.051,1.0,-0.305,2023953
-0.004,0.053,0.999,-0.122,2023957
-0.004,0.053,0.999,-0.305,2023960
-0.004,0.053,0.999,-0.305,2023964
-0.004,0.053,0.999,-0.244,2023968
-0.004,0.053,0.999,-0.183,2023972
-0.004,0.051,0.999,-0.122,2023976
-0.004,0.051,0.999,-0.122,2023980
-0.004,0.051,0.999,-0.122,2023984
-0.004,0.052,0.998,-0.122,2023988
-0.004,0.052,0.998,-0.061,2023992
-0.004,0.052,0.999,-0.122,2023996
-0.004,0.052,0.999,-0.305,2024000
-0.004,0.052,0.999,-0.305,2024004
-0.004,0.052,0.999,-0.122,2024008
-0.004,0.052,0.999,-0.244,2024012
-0.004,0.053,0.999,-0.244,2024016
-0.004,0.053,0.999,-0.061,2024020
-0.004,0.053,0.999,-0.061,2024024
-0.004,0.052,0.999,-0.122,2024028
-0.004,0.052,0.999,-0.183,2024032
-0.003,0.052,1.0,-0.244,2024036
-0.003,0.052,1.0,-0.244,2024040
-0.003,0.052,1.0,-0.244,2024044
-0.004,0.052,0.999,-0.122,2024048
-0.004,0.052,0.999,-0.305,2024052
-0.003,0.053,0.999,-0.244,2024056
-0.003,0.053,0.999,-0.244,2024060
-0.003,0.053,0.999,-0.244,2024064
-0.003,0.054,1.0,-0.183,2024068
-0.003,0.054,1.0,-0.122,2024072
-0.005,0.052,0.999,-0.244,2024076
-0.005,0.052,0.999,-0.305,2024080
-0.005,0.052,0.999,-0.305,2024084
-0.006,0.052,0.998,-0.183,2024088
-0.006,0.052,0.998,-0.183,2024092
-0.004,0.052,1.0,-0.305,2024096
-0.004,0.052,1.0,-0.183,2024099
-0.004,0.052,1.0,-0.183,2024103
-0.003,0.053,0.999,-0.122,2024107
-0.003,0.053,0.999,-0.244,2024111
-0.004,0.053,0.999,-0.244,2024115
-0.004,0.053,0.999,-0.244,2024119
-0.004,0.053,0.999,-0.244,2024123
-0.004,0.054,0.999,-0.183,2024127
-0.004,0.054,0.999,-0.122,2024131
-0.004,0.054,0.998,-0.244,2024135
-0.004,0.054,0.998,-0.366,2024139
-0.004,0.054,0.998,-0.366,2024143
-0.005,0.053,0.999,-0.122,2024147
-0.005,0.053,0.999,-0.122,2024151
-0.005,0.052,1.0,0.0,2024155
-0.005,0.052,1.0,-0.305,2024159
-0.005,0.052,1.0,-0.305,2024163
-0.004,0.053,0.998,-0.244,2024167
-0.004,0.053,0.998,-0.244,2024171
-0.003,0.054,0.998,-0.183,2024175
-0.003,0.054,0.998,-0.183,2024179
-0.003,0.054,0.998,-0.183,2024183
-0.004,0.052,0.999,-0.244,2024187
-0.004,0.052,0.999,-0.183,2024191
-0.005,0.053,0.998,-0.122,2024195
-0.005,0.053,0.998,-0.122,2024199
-0.005,0.053,0.998,-0.122,2024203
-0.004,0.054,0.999,-0.244,2024207
-0.004,0.054,0.999,-0.183,2024211
-0.004,0.052,1.0,-0.183,2024215
-0.004,0.052,1.0,-0.305,2024219
-0.004,0.052,1.0,-0.305,2024223
-0.003,0.053,0.999,-0.122,2024227
-0.003,0.053,0.999,-0.244,2024230
-0.002,0.053,0.999,-0.061,2024234
-0.002,0.053,0.999,-0.061,2024238
-0.002,0.053,0.999,-0.061,2024242
-0.004,0.052,1.001,-0.122,2024246
-0.004,0.052,1.001,-0.244,2024250
-0.004,0.053,0.999,-0.244,2024254
-0.004,0.053,0.999,-0.183,2024258
-0.004,0.053,0.999,-0.183,2024262
-0.005,0.052,1.001,-0.305,2024266
-0.005,0.052,1.001,-0.244,2024270
-0.004,0.053,0.998,-0.183,2024274
-0.004,0.053,0.998,-0.183,2024278
-0.004,0.053,0.998,-0.183,2024282
-0.004,0.053,0.999,-0.244,2024286
-0.004,0.053,0.999,-0.183,2024290
-0.006,0.052,0.999,-0.122,2024294
-0.006,0.052,0.999,-0.183,2024298
-0.006,0.052,0.999,-0.183,2024302
-0.004,0.054,0.999,-0.183,2024306
-0.004,0.054,0.999,-0.183,2024310
-0.006,0.054,0.999,-0.244,2024314
-0.006,0.054,0.999,-0.244,2024318
-0.006,0.054,0.999,-0.244,2024322
-0.004,0.053,1.0,-0.244,2024326
-0.004,0.053,1.0,-0.183,2024330
-0.004,0.053,0.998,-0.244,2024334
-0.004,0.053,0.998,-0.305,2024338
-0.004,0.053,0.998,-0.305,2024342
-0.005,0.052,1.0,-0.244,2024346
-0.005,0.052,1.0,-0.244,2024350
-0.005,0.052,1.0,-0.183,2024354
-0.005,0.052,1.0,-0.183,2024357
-0.005,0.052,1.0,-0.183,2024361
-0.004,0.053,1.0,-0.244,2024365
-0.004,0.053,1.0,-0.183,2024369
-0.004,0.053,0.998,-0.183,2024373
-0.004,0.053,0.998,-0.183,2024377
-0.004,0.053,0.998,-0.183,2024381
-0.004,0.052,0.998,-0.061,2024385
-0.004,0.052,0.998,-0.183,2024389
-0.002,0.053,0.999,-0.244,2024393
-0.002,0.053,0.999,-0.244,2024397
-0.002,0.053,0.999,-0.244,2024401
-0.004,0.052,1.0,-0.244,2024405
-0.004,0.052,1.0,-0.183,2024409
-0.004,0.052,1.0,-0.244,2024413
-0.004,0.052,1.0,-0.305,2024417
-0.004,0.052,1.0,-0.305,2024421
-0.003,0.054,0.999,-0.183,2024425
-0.003,0.054,0.999,-0.244,2024429
-0.004,0.054,0.999,-0.061,2024433
-0.004,0.054,0.999,-0.244,2024437
-0.004,0.054,0.999,-0.244,2024441
-0.004,0.053,0.999,-0.183,2024445
-0.004,0.053,0.999,-0.244,2024449
-0.004,0.052,1.001,-0.122,2024453
-0.004,0.052,1.001,-0.183,2024457
-0.004,0.052,1.001,-0.183,2024461
-0.003,0.054,0.999,-0.244,2024465
-0.003,0.054,0.999,-0.122,2024469
-0.004,0.054,0.999,-0.244,2024473
-0.004,0.054,0.999,-0.244,2024477
-0.004,0.054,0.999,-0.244,2024481
-0.004,0.053,0.999,-0.122,2024485
-0.004,0.053,0.999,-0.061,2024489
-0.004,0.053,0.997,-0.305,2024492
-0.004,0.053,0.997,-0.183,2024496
-0.004,0.053,0.997,-0.183,2024500
-0.004,0.052,1.0,-0.061,2024504
-0.004,0.052,1.0,-0.305,2024508
-0.005,0.052,0.999,-0.305,2024512
-0.005,0.052,0.999,-0.244,2024516
-0.005,0.052,0.999,-0.244,2024520
-0.005,0.054,0.998,-0.061,2024524
-0.005,0.054,0.998,-0.122,2024528
-0.004,0.055,0.999,-0.305,2024532
-0.004,0.055,0.999,-0.244,2024536
-0.004,0.055,0.999,-0.244,2024540
-0.005,0.053,0.999,-0.183,2024544
-0.005,0.053,0.999,-0.244,2024548
-0.005,0.053,0.998,-0.244,2024552
-0.005,0.053,0.998,-0.244,2024556
-0.005,0.053,0.998,-0.244,2024560
-0.003,0.052,1.001,-0.183,2024564
-0.003,0.052,1.001,-0.183,2024568
-0.003,0.052,1.0,-0.122,2024572
-0.003,0.052,1.0,-0.244,2024576
-0.003,0.052,1.0,-0.244,2024580
-0.005,0.054,1.0,-0.244,2024584
-0.005,0.054,1.0,-0.183,2024588
-0.004,0.053,1.0,-0.183,2024592
-0.004,0.053,1.0,-0.183,2024596
-0.004,0.053,1.0,-0.183,2024600
-0.004,0.054,0.999,-0.244,2024604
-0.004,0.054,0.999,-0.305,2024608
-0.003,0.052,1.0,-0.366,2024612
-0.003,0.052,1.0,-0.366,2024616
-0.003,0.052,1.0,-0.366,2024619
-0.005,0.052,1.0,-0.183,2024623
-0.005,0.052,1.0,-0.122,2024627
-0.006,0.052,1.001,-0.305,2024631
-0.006,0.052,1.001,-0.244,2024635
-0.006,0.052,1.001,-0.244,2024639
-0.003,0.052,0.999,-0.122,2024643
-0.003,0.052,0.999,-0.122,2024647
-0.003,0.052,0.998,-0.061,2024651
-0.003,0.052,0.998,-0.244,2024655
-0.003,0.052,0.998,-0.244,2024659
-0.004,0.052,1.0,-0.244,2024663
-0.004,0.052,1.0,-0.183,2024667
-0.004,0.053,0.998,-0.122,2024671
-0.004,0.053,0.998,-0.366,2024675
-0.004,0.053,0.998,-0.366,2024679
-0.004,0.053,0.998,-0.244,2024683
-0.004,0.053,0.998,-0.122,2024687
-0.004,0.052,0.998,-0.122,2024691
-0.004,0.052,0.998,-0.244,2024695
-0.004,0.052,0.998,-0.244,2024699
-0.002,0.053,1.0,-0.183,2024703
-0.002,0.053,1.0,-0.183,2024707
-0.004,0.051,1.0,-0.122,2024711
-0.004,0.051,1.0,-0.122,2024715
-0.004,0.051,1.0,-0.122,2024719
-0.004,0.051,1.0,-0.122,2024723
-0.004,0.051,1.0,-0.122,2024727
-0.003,0.053,0.998,-0.183,2024731
-0.003,0.053,0.998,-0.183,2024735
-0.003,0.053,0.998,-0.183,2024739
-0.004,0.054,0.999,-0.305,2024743
-0.004,0.054,0.999,-0.183,2024747
-0.003,0.053,0.998,-0.183,2024750
-0.003,0.053,0.998,-0.122,2024754
-0.003,0.053,0.999,-0.244,2024758
-0.003,0.053,0.999,-0.244,2024762
-0.003,0.053,0.999,-0.305,2024766
-0.004,0.053,1.0,-0.244,2024770
-0.004,0.053,1.0,-0.122,2024774
-0.004,0.054,1.0,-0.122,2024778
-0.004,0.054,1.0,-0.122,2024782
-0.004,0.054,1.0,-0.183,2024786
-0.003,0.053,0.997,-0.183,2024790
-0.003,0.053,0.997,-0.122,2024794
-0.003,0.053,0.997,-0.122,2024798
-0.003,0.052,0.998,-0.244,2024802
-0.003,0.052,0.998,-0.244,2024806
-0.005,0.053,1.002,-0.183,2024810
-0.005,0.053,1.002,-0.244,2024814
-0.005,0.053,1.002,-0.244,2024818
-0.004,0.052,0.999,-0.183,2024822
-0.004,0.052,0.999,-0.183,2024826
-0.004,0.053,0.998,-0.122,2024830
-0.004,0.053,0.998,-0.061,2024834
-0.004,0.053,0.998,-0.061,2024838
-0.006,0.052,0.998,-0.244,2024842
-0.006,0.052,0.998,-0.305,2024846
-0.005,0.054,0.999,-0.244,2024850
-0.005,0.054,0.999,-0.366,2024854
-0.005,0.054,0.999,-0.366,2024858
-0.006,0.053,0.999,-0.366,2024862
-0.006,0.053,0.999,-0.061,2024866
-0.004,0.054,0.997,-0.183,2024869
-0.004,0.054,0.997,-0.244,2024873
-0.004,0.054,0.997,-0.244,2024877
-0.004,0.054,0.998,-0.244,2024881
-0.004,0.054,0.998,-0.183,2024885
-0.004,0.055,0.999,-0.305,2024889
-0.004,0.055,0.999,-0.183,2024893
-0.005,0.053,0.997,-0.061,2024897
-0.005,0.053,0.997,-0.061,2024901
-0.005,0.053,0.997,-0.122,2024905
-0.005,0.054,0.999,-0.183,2024909
-0.005,0.054,0.999,-0.183,2024913
-0.006,0.053,0.999,-0.183,2024917
-0.006,0.053,0.999,-0.183,2024921
-0.006,0.053,0.999,-0.183,2024925
-0.005,0.053,0.998,-0.305,2024929
-0.005,0.053,0.998,-0.122,2024933
-0.005,0.053,0.998,-0.122,2024937
-0.003,0.053,1.0,-0.061,2024941
-0.003,0.053,1.0,-0.244,2024945
-0.004,0.053,0.998,-0.244,2024949
-0.004,0.053,0.998,-0.122,2024953
-0.004,0.053,0.998,-0.122,2024957
-0.003,0.053,0.999,-0.305,2024961
-0.003,0.053,0.999,-0.305,2024965
-0.003,0.053,0.999,-0.305,2024969
-0.003,0.053,0.999,-0.305,2024973
-0.003,0.053,0.999,-0.305,2024977
-0.002,0.053,1.0,-0.183,2024981
-0.002,0.053,1.0,-0.122,2024985
-0.003,0.053,1.0,-0.183,2024989
-0.003,0.053,1.0,-0.244,2024993
-0.003,0.053,1.0,-0.244,2024996
-0.004,0.053,0.998,-0.183,2025000
-0.004,0.053,0.998,-0.183,2025004
-0.003,0.053,0.999,-0.122,2025008
-0.003,0.053,0.999,-0.183,2025012
-0.003,0.053,0.999,-0.183,2025016
-0.005,0.053,1.001,-0.183,2025020
-0.005,0.053,1.001,-0.122,2025024
-0.004,0.053,0.999,-0.183,2025028
-0.004,0.053,0.999,-0.061,2025032
-0.004,0.053,0.999,-0.061,2025036
-0.003,0.053,1.0,-0.244,2025040
-0.003,0.053,1.0,-0.366,2025044
-0.003,0.052,1.0,-0.183,2025048
-0.003,0.052,1.0,-0.244,2025052
-0.003,0.052,1.0,-0.244,2025056
-0.003,0.052,0.999,-0.366,2025060
-0.003,0.052,0.999,-0.305,2025064
-0.003,0.052,1.0,-0.122,2025068
-0.003,0.052,1.0,-0.244,2025072
-0.003,0.052,1.0,-0.244,2025076
-0.002,0.054,0.999,-0.183,2025080
-0.002,0.054,0.999,-0.183,2025084
-0.004,0.053,0.998,-0.183,2025088
-0.004,0.053,0.998,-0.122,2025092
-0.006,0.053,1.0,-0.122,2025096
-0.006,0.053,1.0,-0.122,2025100
-0.006,0.053,1.0,-0.244,2025104
-0.004,0.053,1.0,-0.244,2025108
-0.004,0.053,1.0,-0.122,2025112
-0.003,0.054,0.999,-0.183,2025116
-0.003,0.054,0.999,-0.183,2025120
-0.003,0.054,0.999,-0.061,2025123
-0.004,0.053,0.997,-0.061,2025127
-0.004,0.053,0.997,-0.183,2025131
-0.004,0.054,1.0,-0.244,2025135
-0.004,0.054,1.0,-0.244,2025139
-0.004,0.054,1.0,-0.122,2025143
-0.004,0.053,1.0,-0.183,2025147
-0.004,0.053,1.0,-0.122,2025151
-0.002,0.053,0.999,-0.061,2025155
-0.002,0.053,0.999,-0.061,2025159
-0.002,0.053,0.999,-0.183,2025163
-0.002,0.053,1.0,-0.244,2025167
-0.002,0.053,1.0,-0.244,2025171
-0.003,0.052,1.0,-0.305,2025175
-0.003,0.052,1.0,-0.305,2025179
-0.003,0.052,1.0,-0.244,2025183
-0.002,0.053,0.999,-0.183,2025187
-0.002,0.053,0.999,-0.244,2025191
-0.004,0.053,1.0,-0.244,2025195
-0.004,0.053,1.0,-0.244,2025199
-0.004,0.053,1.0,-0.183,2025203
-0.003,0.053,0.999,-0.244,2025207
-0.003,0.053,0.999,-0.183,2025211
-0.005,0.053,1.0,-0.244,2025215
-0.005,0.053,1.0,-0.244,2025219
-0.005,0.053,1.0,-0.305,2025223
-0.004,0.053,1.0,-0.183,2025227
-0.004,0.053,1.0,-0.122,2025231
-0.003,0.052,1.0,-0.244,2025235
-0.003,0.052,1.0,-0.244,2025239
-0.003,0.052,1.0,-0.122,2025243
-0.003,0.054,1.0,-0.183,2025247
-0.003,0.054,1.0,-0.305,2025251
-0.004,0.053,0.999,-0.183,2025255
-0.004,0.053,0.999,-0.183,2025259
-0.004,0.053,0.999,-0.122,2025263
-0.004,0.052,0.999,-0.183,2025267
-0.004,0.052,0.999,-0.183,2025270
-0.005,0.053,1.0,-0.122,2025274
-0.005,0.053,1.0,-0.122,2025278
-0.005,0.053,1.0,0.0,2025282
-0.004,0.053,1.0,-0.305,2025286
-0.004,0.053,1.0,-0.244,2025290
-0.004,0.052,1.001,-0.183,2025294
-0.004,0.052,1.001,-0.183,2025298
-0.004,0.052,1.001,-0.183,2025302
-0.003,0.053,1.0,-0.244,2025306
-0.003,0.053,1.0,-0.183,2025310
-0.002,0.052,0.998,-0.305,2025314
-0.002,0.052,0.998,-0.305,2025318
-0.002,0.052,0.998,-0.366,2025322
-0.004,0.053,0.999,-0.122,2025326
-0.004,0.053,0.999,0.0,2025330
-0.004,0.054,1.0,-0.244,2025334
-0.004,0.054,1.0,-0.244,2025338
-0.004,0.054,1.0,-0.244,2025342
-0.004,0.053,1.0,-0.061,2025346
-0.004,0.053,1.0,-0.122,2025350
-0.004,0.055,0.999,-0.183,2025354
-0.004,0.055,0.999,-0.183,2025358
-0.004,0.055,0.999,-0.244,2025362
-0.004,0.055,1.001,-0.183,2025366
-0.004,0.055,1.001,-0.183,2025370
-0.003,0.054,1.0,-0.244,2025374
-0.003,0.054,1.0,-0.244,2025378
-0.003,0.054,1.0,-0.061,2025382
-0.003,0.053,0.997,-0.183,2025385
-0.003,0.053,0.997,-0.244,2025389
-0.004,0.052,0.999,-0.183,2025393
-0.004,0.052,0.999,-0.183,2025397
-0.004,0.052,0.999,-0.183,2025401
-0.006,0.053,0.999,-0.122,2025405
-0.006,0.053,0.999,-0.122,2025409
-0.004,0.054,0.999,-0.183,2025413
-0.004,0.054,0.999,-0.183,2025417
-0.004,0.054,0.999,-0.122,2025421
-0.002,0.054,0.999,-0.122,2025425
-0.002,0.054,0.999,-0.244,2025429
-0.004,0.052,0.998,-0.061,2025433
-0.004,0.052,0.998,-0.061,2025437
-0.004,0.052,0.998,-0.183,2025441
-0.006,0.051,1.0,-0.305,2025445
-0.006,0.051,1.0,-0.244,2025449
-0.004,0.053,1.0,-0.244,2025453
-0.004,0.053,1.0,-0.244,2025457
-0.004,0.053,1.0,-0.183,2025461
-0.004,0.052,0.999,-0.183,2025465
-0.004,0.052,0.999,-0.183,2025469
-0.003,0.052,0.999,-0.305,2025473
-0.003,0.052,0.999,-0.305,2025477
-0.003,0.052,0.999,-0.183,2025481
-0.002,0.054,1.001,-0.183,2025485
-0.002,0.054,1.001,-0.305,2025489
-0.005,0.054,0.999,-0.305,2025493
-0.005,0.054,0.999,-0.305,2025497
-0.005,0.054,0.999,-0.122,2025501
-0.004,0.052,1.0,-0.122,2025505
-0.004,0.052,1.0,-0.183,2025509
-0.004,0.053,1.0,-0.244,2025513
-0.004,0.053,1.0,-0.244,2025516
-0.004,0.053,1.0,-0.244,2025520
-0.004,0.053,0.999,-0.244,2025524
-0.004,0.053,0.999,-0.244,2025528
-0.005,0.054,0.999,-0.305,2025532
-0.005,0.054,0.999,-0.305,2025536
-0.005,0.054,0.999,-0.244,2025540
-0.005,0.053,1.0,-0.122,2025544
-0.005,0.053,1.0,-0.305,2025548
-0.005,0.052,0.999,-0.183,2025552
-0.005,0.052,0.999,-0.183,2025556
-0.005,0.052,0.999,-0.183,2025560
-0.004,0.053,0.998,-0.305,2025564
-0.004,0.053,0.998,-0.305,2025568
-0.004,0.052,1.0,-0.244,2025572
-0.004,0.052,1.0,-0.244,2025576
-0.004,0.052,1.0,-0.183,2025580
-0.003,0.053,0.996,-0.183,2025584
-0.003,0.053,0.996,-0.244,2025588
-0.004,0.053,1.0,-0.244,2025592
-0.004,0.053,1.0,-0.244,2025596
-0.004,0.053,1.0,-0.183,2025600
-0.002,0.053,1.0,-0.122,2025604
-0.002,0.053,1.0,-0.061,2025608
-0.005,0.054,0.999,-0.244,2025612
-0.005,0.054,0.999,-0.244,2025616
-0.005,0.054,0.999,-0.366,2025620
-0.004,0.053,1.0,-0.305,2025624
-0.004,0.053,1.0,-0.122,2025628
-0.004,0.054,0.997,-0.183,2025632
-0.004,0.054,0.997,-0.183,2025636
-0.004,0.054,0.997,-0.244,2025640
-0.003,0.053,0.999,-0.244,2025644
-0.003,0.053,0.999,-0.183,2025647
-0.005,0.054,1.001,-0.305,2025651
-0.005,0.054,1.001,-0.305,2025655
-0.005,0.054,1.001,-0.122,2025659
-0.003,0.052,1.0,-0.061,2025663
-0.003,0.052,1.0,-0.122,2025667
-0.003,0.053,0.997,-0.244,2025671
-0.003,0.053,0.997,-0.244,2025675
-0.003,0.053,0.997,-0.183,2025679
-0.004,0.053,0.999,-0.183,2025683
-0.004,0.053,0.999,-0.183,2025687
-0.004,0.053,1.0,-0.122,2025691
-0.004,0.053,1.0,-0.122,2025695
-0.004,0.053,1.0,-0.122,2025699
-0.003,0.052,1.0,-0.244,2025703
-0.003,0.052,1.0,-0.244,2025707
-0.005,0.053,1.001,-0.183,2025711
-0.005,0.053,1.001,-0.183,2025715
-0.005,0.053,1.001,-0.183,2025719
-0.001,0.052,1.0,-0.244,2025723
-0.001,0.052,1.0,-0.244,2025727
-0.004,0.052,0.998,-0.122,2025731
-0.004,0.052,0.998,-0.122,2025735
-0.004,0.052,0.998,-0.244,2025739
-0.004,0.055,0.999,-0.305,2025743
-0.004,0.055,0.999,-0.244,2025747
-0.004,0.052,1.0,-0.122,2025751
-0.004,0.052,1.0,-0.122,2025755
-0.004,0.052,1.0,-0.183,2025759
-0.004,0.054,0.998,-0.244,2025763
-0.004,0.054,0.998,-0.244,2025767
-0.002,0.053,1.0,-0.183,2025770
-0.002,0.053,1.0,-0.183,2025774
-0.002,0.053,1.0,-0.244,2025778
-0.004,0.053,0.999,-0.244,2025782
-0.004,0.053,0.999,-0.244,2025786
-0.002,0.052,0.998,-0.183,2025790
-0.002,0.052,0.998,-0.183,2025794
-0.002,0.052,0.998,-0.183,2025798
-0.005,0.052,0.999,-0.183,2025802
-0.005,0.052,0.999,-0.122,2025806
-0.005,0.052,0.999,-0.061,2025810
-0.005,0.052,0.999,-0.061,2025814
-0.005,0.052,0.999,-0.122,2025818
-0.002,0.053,1.0,-0.244,2025822
-0.002,0.053,1.0,-0.122,2025826
-0.004,0.052,1.0,-0.183,2025830
-0.004,0.052,1.0,-0.183,2025834
-0.004,0.052,1.0,-0.122,2025838
-0.005,0.053,0.999,-0.122,2025842
-0.005,0.053,0.999,-0.183,2025846
-0.006,0.054,0.999,-0.244,2025850
-0.006,0.054,0.999,-0.244,2025854
-0.006,0.054,0.999,-0.244,2025858
-0.005,0.054,1.0,-0.183,2025862
-0.005,0.054,1.0,-0.183,2025866
-0.006,0.054,0.999,-0.122,2025870
-0.006,0.054,0.999,-0.122,2025874
-0.006,0.054,0.999,-0.183,2025878
-0.005,0.053,0.998,-0.244,2025882
-0.005,0.053,0.998,-0.244,2025886
-0.004,0.052,0.998,-0.244,2025890
-0.004,0.052,0.998,-0.244,2025894
-0.004,0.052,0.998,-0.244,2025898
-0.004,0.052,0.999,-0.305,2025902
-0.004,0.052,0.999,-0.305,2025906
-0.005,0.053,0.998,-0.305,2025910
-0.005,0.053,0.998,-0.305,2025913
-0.005,0.053,0.998,-0.122,2025917
-0.005,0.053,1.0,-0.122,2025921
-0.005,0.053,1.0,-0.366,2025925
-0.004,0.054,0.999,-0.305,2025929
-0.004,0.054,0.999,-0.305,2025933
-0.004,0.054,0.999,-0.183,2025937
-0.005,0.054,0.998,-0.244,2025941
-0.005,0.054,0.998,-0.122,2025945
-0.004,0.053,0.999,-0.061,2025949
-0.004,0.053,0.999,-0.061,2025953
-0.004,0.053,0.999,-0.122,2025957
-0.004,0.053,0.999,-0.122,2025961
-0.004,0.053,0.999,-0.122,2025965
-0.004,0.053,0.999,-0.244,2025969
-0.004,0.053,0.999,-0.244,2025973
-0.004,0.053,0.999,-0.366,2025977
-0.003,0.053,0.999,-0.305,2025981
-0.003,0.053,0.999,-0.244,2025985
-0.004,0.052,0.999,-0.244,2025989
-0.004,0.052,0.999,-0.244,2025993
-0.004,0.052,0.999,-0.183,2025997
-0.003,0.053,0.999,-0.244,2026001
-0.003,0.053,0.999,-0.183,2026005
-0.005,0.053,0.998,-0.244,2026009
-0.005,0.053,0.998,-0.244,2026013
-0.005,0.053,0.998,-0.244,2026017
-0.004,0.053,0.997,-0.122,2026021
-0.004,0.053,0.997,-0.305,2026025
-0.004,0.053,1.0,-0.244,2026029
-0.004,0.053,1.0,-0.244,2026033
-0.004,0.053,1.0,-0.183,2026037
-0.003,0.055,0.999,-0.122,2026041
-0.003,0.055,0.999,-0.183,2026045
-0.003,0.052,0.998,-0.183,2026049
-0.003,0.052,0.998,-0.183,2026052
-0.003,0.052,0.998,-0.122,2026056
-0.005,0.052,1.001,-0.244,2026060
-0.005,0.052,1.001,-0.061,2026064
-0.005,0.053,1.0,-0.061,2026068
-0.005,0.053,1.0,-0.061,2026072
-0.005,0.053,1.0,-0.183,2026076
-0.004,0.053,0.999,-0.183,2026080
-0.004,0.053,0.999,-0.183,2026084
-0.004,0.054,0.998,-0.305,2026088
-0.004,0.054,0.998,-0.305,2026092
-0.004,0.054,0.998,-0.244,2026096
-0.004,0.054,1.0,-0.244,2026100
-0.004,0.054,1.0,-0.244,2026104
-0.003,0.052,0.999,-0.183,2026108
-0.003,0.052,0.999,-0.183,2026112
-0.003,0.052,0.999,-0.183,2026116
-0.004,0.052,0.997,-0.244,2026120
-0.004,0.052,0.997,-0.305,2026124
-0.004,0.053,0.999,-0.305,2026128
-0.004,0.053,0.999,-0.305,2026132
-0.004,0.053,0.999,-0.305,2026136
-0.003,0.052,1.0,-0.244,2026140
-0.003,0.052,1.0,-0.305,2026144
-0.004,0.053,1.0,-0.244,2026148
-0.004,0.053,1.0,-0.244,2026152
-0.004,0.053,1.0,-0.183,2026156
-0.004,0.053,1.0,-0.183,2026160
-0.004,0.053,1.0,-0.122,2026164
-0.003,0.053,0.998,-0.122,2026168
-0.003,0.053,0.998,-0.122,2026172
-0.003,0.053,0.998,-0.244,2026176
-0.006,0.054,0.999,-0.305,2026180
-0.006,0.054,0.999,-0.305,2026183
-0.004,0.054,0.999,-0.183,2026187
-0.004,0.054,0.999,-0.183,2026191
-0.004,0.054,0.999,-0.122,2026195
-0.003,0.053,0.999,-0.244,2026199
-0.003,0.053,0.999,-0.183,2026203
-0.005,0.053,1.0,-0.183,2026207
-0.005,0.053,1.0,-0.183,2026211
-0.005,0.053,1.0,-0.244,2026215
-0.003,0.053,1.0,-0.183,2026219
-0.003,0.053,1.0,-0.183,2026223
-0.005,0.053,0.999,-0.183,2026227
-0.005,0.053,0.999,-0.183,2026231
-0.005,0.053,0.999,-0.183,2026235
-0.004,0.052,1.0,-0.183,2026239
-0.004,0.052,1.0,-0.122,2026243
-0.003,0.052,0.999,-0.366,2026247
-0.003,0.052,0.999,-0.366,2026251
-0.003,0.052,0.999,-0.427,2026255
-0.003,0.052,1.0,-0.244,2026259
-0.003,0.052,1.0,-0.122,2026263
-0.003,0.052,1.001,-0.122,2026267
-0.003,0.052,1.001,-0.122,2026271
-0.003,0.052,1.001,-0.244,2026275
-0.004,0.052,1.0,-0.183,2026279
-0.004,0.052,1.0,-0.122,2026283
-0.004,0.052,1.0,-0.183,2026287
-0.004,0.052,1.0,-0.183,2026291
-0.004,0.052,1.0,-0.305,2026295
-0.002,0.052,0.998,-0.183,2026299
-0.002,0.052,0.998,-0.183,2026303
-0.004,0.054,0.999,-0.122,2026306
-0.004,0.054,0.999,-0.122,2026310
-0.004,0.054,0.999,-0.183,2026314
-0.005,0.052,0.999,-0.122,2026318
-0.005,0.052,0.999,-0.244,2026322
-0.003,0.052,0.997,-0.244,2026326
-0.003,0.052,0.997,-0.244,2026330
-0.003,0.052,0.997,-0.305,2026334
-0.003,0.054,1.0,-0.305,2026338
-0.003,0.054,1.0,-0.183,2026342
-0.004,0.052,1.0,-0.122,2026346
-0.004,0.052,1.0,-0.122,2026350
-0.004,0.052,1.0,-0.122,2026354
-0.004,0.052,1.0,-0.122,2026358
-0.004,0.052,1.0,-0.122,2026362
-0.004,0.054,0.998,-0.061,2026366
-0.004,0.054,0.998,-0.061,2026370
-0.004,0.054,0.998,-0.244,2026374
-0.003,0.053,0.998,-0.183,2026378
-0.003,0.053,0.998,-0.244,2026382
-0.004,0.053,0.998,-0.122,2026386
-0.004,0.053,0.998,-0.122,2026390
-0.004,0.053,0.998,-0.244,2026394
-0.005,0.052,0.997,-0.244,2026398
-0.005,0.052,0.997,-0.183,2026402
-0.004,0.053,0.997,-0.244,2026406
-0.004,0.053,0.997,-0.244,2026410
-0.004,0.053,0.997,-0.244,2026414
-0.004,0.053,0.999,-0.244,2026418
-0.004,0.053,0.999,-0.061,2026422
-0.004,0.052,0.998,-0.061,2026426
-0.004,0.052,0.998,-0.061,2026430
-0.004,0.052,0.998,-0.183,2026434
-0.005,0.053,0.998,-0.366,2026438
-0.005,0.053,0.998,-0.305,2026441
-0.004,0.053,0.998,-0.244,2026445
-0.004,0.053,0.998,-0.244,2026449
-0.004,0.053,0.998,-0.244,2026453
-0.003,0.051,1.001,-0.244,2026457
-0.003,0.051,1.001,-0.122,2026461
-0.004,0.051,0.999,-0.122,2026465
-0.004,0.051,0.999,-0.122,2026469
-0.004,0.051,0.999,-0.061,2026473
-0.004,0.052,0.998,-0.122,2026477
-0.004,0.052,0.998,-0.244,2026481
-0.003,0.052,0.999,-0.122,2026485
-0.003,0.052,0.999,-0.122,2026489
-0.003,0.052,0.999,-0.244,2026493
-0.005,0.054,0.999,-0.244,2026497
-0.005,0.054,0.999,-0.061,2026501
-0.004,0.052,1.0,-0.244,2026505
-0.004,0.052,1.0,-0.244,2026509
-0.004,0.052,1.0,-0.183,2026513
-0.003,0.054,0.999,-0.122,2026517
-0.003,0.054,0.999,-0.305,2026521
-0.004,0.054,0.998,-0.244,2026525
-0.004,0.054,0.998,-0.244,2026529
-0.004,0.054,0.998,-0.122,2026533
-0.003,0.054,0.999,-0.061,2026537
-0.003,0.054,0.999,-0.183,2026541
-0.003,0.053,0.997,-0.244,2026545
-0.003,0.053,0.997,-0.244,2026549
-0.003,0.053,0.997,-0.061,2026553
-0.004,0.053,0.996,-0.122,2026557
-0.004,0.053,0.996,-0.305,2026561
-0.003,0.054,0.999,-0.305,2026565
-0.003,0.054,0.999,-0.305,2026569
-0.003,0.054,0.999,-0.244,2026572
-0.004,0.053,0.998,-0.244,2026576
-0.004,0.053,0.998,-0.183,2026580
-0.005,0.053,0.999,-0.244,2026584
-0.005,0.053,0.999,-0.244,2026588
-0.005,0.053,0.999,-0.244,2026592
-0.004,0.053,0.998,-0.305,2026596
-0.004,0.053,0.998,-0.183,2026600
-0.005,0.052,0.999,-0.183,2026604
-0.005,0.052,0.999,-0.183,2026608
-0.005,0.052,0.999,-0.244,2026612
-0.005,0.052,0.999,-0.366,2026616
-0.005,0.052,0.999,-0.244,2026620
-0.004,0.052,0.998,-0.244,2026624
-0.004,0.052,0.998,-0.244,2026628
-0.004,0.052,0.998,-0.244,2026632
-0.005,0.052,0.997,-0.122,2026636
-0.005,0.052,0.997,-0.122,2026640
-0.004,0.053,0.999,-0.183,2026644
-0.004,0.053,0.999,-0.183,2026648
-0.004,0.053,0.999,-0.244,2026652
-0.003,0.051,0.999,-0.244,2026656
-0.003,0.051,0.999,-0.183,2026660
-0.004,0.053,0.998,-0.122,2026664
-0.004,0.053,0.998,-0.122,2026668
-0.004,0.053,0.998,-0.122,2026672
-0.003,0.052,0.999,-0.244,2026676
-0.003,0.052,0.999,-0.183,2026680
-0.002,0.053,1.0,-0.122,2026684
-0.002,0.053,1.0,-0.122,2026688
-0.002,0.053,1.0,-0.122,2026692
-0.003,0.055,0.998,-0.183,2026696
-0.003,0.055,0.998,-0.122,2026700
-0.004,0.052,1.0,-0.244,2026703
-0.004,0.052,1.0,-0.244,2026707
-0.004,0.052,1.0,-0.366,2026711
-0.004,0.053,1.0,-0.183,2026715
-0.004,0.053,1.0,-0.061,2026719
-0.004,0.052,0.999,-0.183,2026723
-0.004,0.052,0.999,-0.183,2026727
-0.004,0.052,0.999,-0.244,2026731
-0.005,0.053,0.998,-0.183,2026735
-0.005,0.053,0.998,-0.122,2026739
-0.005,0.054,1.0,-0.183,2026743
-0.005,0.054,1.0,-0.183,2026747
-0.005,0.054,1.0,-0.183,2026751
-0.003,0.053,0.999,-0.122,2026755
-0.003,0.053,0.999,-0.122,2026759
-0.001,0.053,0.999,-0.244,2026763
-0.001,0.053,0.999,-0.244,2026767
-0.001,0.053,0.999,-0.244,2026771
-0.003,0.052,0.998,-0.183,2026775
-0.003,0.052,0.998,-0.122,2026779
-0.003,0.053,0.997,-0.122,2026783
-0.003,0.053,0.997,-0.122,2026787
-0.003,0.053,0.997,-0.061,2026791
-0.004,0.052,0.999,-0.183,2026795
-0.004,0.052,0.999,-0.305,2026799
-0.004,0.052,1.001,-0.183,2026803
-0.004,0.052,1.001,-0.183,2026807
-0.004,0.052,1.001,-0.122,2026811
-0.004,0.052,0.998,-0.183,2026815
-0.004,0.052,0.998,-0.122,2026819
-0.004,0.053,0.999,-0.183,2026823
-0.004,0.053,0.999,-0.183,2026827
-0.004,0.053,0.999,-0.061,2026831
-0.006,0.054,0.999,-0.183,2026835
-0.006,0.054,0.999,-0.244,2026839
-0.005,0.054,0.998,-0.122,2026842
-0.005,0.054,0.998,-0.122,2026846
-0.005,0.054,0.998,-0.122,2026850
-0.005,0.053,0.999,-0.244,2026854
-0.005,0.053,0.999,-0.244,2026858
-0.005,0.053,0.999,-0.244,2026862
-0.005,0.053,0.999,-0.244,2026866
-0.005,0.053,0.999,-0.183,2026870
-0.006,0.053,0.999,-0.183,2026874
-0.006,0.053,0.999,-0.122,2026878
-0.006,0.053,1.0,-0.183,2026882
-0.006,0.053,1.0,-0.183,2026886
-0.006,0.053,1.0,-0.244,2026890
-0.005,0.053,0.999,-0.244,2026894
-0.005,0.053,0.999,-0.122,2026898
-0.004,0.054,0.998,-0.183,2026902
-0.004,0.054,0.998,-0.183,2026906
-0.004,0.054,0.998,-0.183,2026910
-0.004,0.055,0.999,-0.183,2026914
-0.004,0.055,0.999,-0.244,2026918
-0.004,0.053,1.001,-0.183,2026922
-0.004,0.053,1.001,-0.183,2026926
-0.004,0.053,1.001,-0.122,2026930
-0.005,0.053,0.998,-0.122,2026934
-0.005,0.053,0.998,-0.183,2026938
-0.004,0.052,1.001,-0.183,2026942
-0.004,0.052,1.001,-0.183,2026946
-0.004,0.052,1.001,-0.244,2026950
-0.004,0.052,0.999,-0.305,2026954
-0.004,0.052,0.999,-0.244,2026958
-0.003,0.052,1.0,-0.061,2026962
-0.003,0.052,1.0,-0.061,2026966
-0.003,0.052,1.0,-0.183,2026970
-0.003,0.054,1.0,-0.183,2026973
-0.003,0.054,1.0,-0.183,2026977
-0.002,0.051,1.001,-0.244,2026981
-0.002,0.051,1.001,-0.244,2026985
-0.002,0.051,1.001,-0.061,2026989
-0.003,0.052,1.0,-0.061,2026993
-0.003,0.052,1.0,-0.244,2026997
-0.003,0.052,1.0,-0.244,2027001
-0.003,0.052,1.0,-0.244,2027005
-0.003,0.052,1.0,-0.122,2027009
-0.004,0.054,0.999,-0.122,2027013
-0.004,0.054,0.999,-0.183,2027017
-0.004,0.051,1.0,-0.183,2027021
-0.004,0.051,1.0,-0.183,2027025
-0.004,0.051,1.0,-0.305,2027029
-0.003,0.052,0.999,-0.244,2027033
-0.003,0.052,0.999,-0.183,2027037
-0.004,0.053,0.997,-0.305,2027041
-0.004,0.053,0.997,-0.305,2027045
-0.004,0.053,0.997,-0.305,2027049
-0.005,0.052,1.0,-0.183,2027053
-0.005,0.052,1.0,-0.061,2027057
-0.003,0.051,0.998,-0.122,2027061
-0.003,0.051,0.998,-0.122,2027065
-0.003,0.051,0.998,-0.183,2027069
-0.005,0.052,0.998,-0.183,2027073
-0.005,0.052,0.998,-0.183,2027077
-0.004,0.052,0.998,-0.183,2027081
-0.004,0.052,0.998,-0.183,2027085
-0.004,0.052,0.998,-0.183,2027089
-0.004,0.053,0.998,-0.122,2027093
-0.004,0.053,0.998,-0.061,2027097
-0.005,0.054,0.998,-0.244,2027101
-0.005,0.054,0.998,-0.122,2027105
-0.005,0.054,0.998,-0.122,2027108
-0.004,0.055,1.0,-0.244,2027112
-0.004,0.055,1.0,-0.244,2027116
-0.004,0.052,1.0,-0.244,2027120
-0.004,0.052,1.0,-0.244,2027124
-0.004,0.052,1.0,0.0,2027128
-0.003,0.053,1.0,-0.122,2027132
-0.003,0.053,1.0,-0.305,2027136
-0.002,0.052,1.0,-0.244,2027140
-0.002,0.052,1.0,-0.244,2027144
-0.002,0.052,1.0,-0.122,2027148
-0.002,0.053,1.0,-0.122,2027152
-0.002,0.053,1.0,-0.183,2027156
-0.002,0.055,1.0,-0.183,2027160
-0.002,0.055,1.0,-0.183,2027164
-0.002,0.055,1.0,-0.061,2027168
-0.003,0.052,0.999,-0.183,2027172
-0.003,0.052,0.999,-0.183,2027176
-0.003,0.053,0.998,-0.183,2027180
-0.003,0.053,0.998,-0.183,2027184
-0.003,0.053,0.998,-0.305,2027188
-0.001,0.053,1.0,-0.122,2027192
-0.001,0.053,1.0,-0.183,2027196
-0.003,0.052,0.999,-0.183,2027200
-0.003,0.052,0.999,-0.183,2027204
-0.003,0.052,0.999,-0.122,2027208
-0.003,0.054,0.998,-0.244,2027212
-0.003,0.054,0.998,-0.305,2027216
-0.003,0.053,0.999,-0.183,2027220
-0.003,0.053,0.999,-0.183,2027224
-0.003,0.053,0.999,-0.183,2027228
-0.002,0.052,1.0,-0.244,2027232
-0.002,0.052,1.0,-0.183,2027235
-0.005,0.053,0.998,-0.244,2027239
-0.005,0.053,0.998,-0.183,2027243
-0.005,0.053,0.998,-0.183,2027247
-0.005,0.053,1.0,-0.244,2027251
-0.005,0.053,1.0,-0.244,2027255
-0.005,0.053,1.0,-0.244,2027259
-0.005,0.053,1.0,-0.305,2027263
-0.005,0.053,1.0,-0.305,2027267
-0.005,0.052,0.998,-0.183,2027271
-0.005,0.052,0.998,-0.244,2027275
-0.005,0.054,0.998,-0.183,2027279
-0.005,0.054,0.998,-0.183,2027283
-0.005,0.054,0.998,-0.183,2027287
-0.004,0.052,0.998,-0.244,2027291
-0.004,0.052,0.998,-0.244,2027295
-0.004,0.052,1.0,-0.183,2027299
-0.004,0.052,1.0,-0.122,2027303
-0.004,0.052,1.0,-0.122,2027307
-0.006,0.054,1.001,-0.183,2027311
-0.006,0.054,1.001,-0.244,2027315
-0.004,0.054,1.0,-0.122,2027319
-0.004,0.054,1.0,-0.183,2027323
-0.004,0.054,1.0,-0.183,2027327
-0.004,0.053,1.0,-0.244,2027331
-0.004,0.053,1.0,-0.183,2027335
-0.004,0.053,1.0,-0.183,2027339
-0.004,0.053,1.0,-0.244,2027343
-0.004,0.053,1.0,-0.244,2027347
-0.004,0.054,0.999,-0.305,2027351
-0.004,0.054,0.999,-0.061,2027355
-0.003,0.052,0.999,-0.183,2027359
-0.003,0.052,0.999,-0.244,2027363
-0.003,0.052,0.999,-0.244,2027367
-0.004,0.053,0.998,-0.183,2027370
-0.004,0.053,0.998,-0.244,2027374
-0.004,0.053,0.999,-0.061,2027378
-0.004,0.053,0.999,-0.061,2027382
-0.004,0.053,0.999,-0.061,2027386
-0.003,0.052,0.999,-0.183,2027390
-0.003,0.052,0.999,-0.244,2027394
-0.002,0.053,0.999,-0.183,2027398
-0.002,0.053,0.999,-0.305,2027402
-0.002,0.053,0.999,-0.305,2027406
-0.004,0.052,0.999,-0.061,2027410
-0.004,0.052,0.999,-0.061,2027414
-0.005,0.053,0.999,-0.183,2027418
-0.005,0.053,0.999,-0.183,2027422
-0.005,0.053,0.999,-0.183,2027426
-0.003,0.054,1.0,-0.122,2027430
-0.003,0.054,1.0,-0.122,2027434
-0.003,0.052,0.997,-0.061,2027438
-0.003,0.052,0.997,-0.122,2027442
-0.003,0.052,0.997,-0.122,2027446
-0.004,0.052,0.998,-0.061,2027450
-0.004,0.052,0.998,-0.244,2027454
-0.006,0.052,0.998,-0.183,2027458
-0.006,0.052,0.998,-0.183,2027462
-0.006,0.052,0.998,-0.183,2027466
-0.005,0.052,1.0,-0.183,2027470
-0.005,0.052,1.0,-0.183,2027474
-0.003,0.053,0.999,-0.183,2027478
-0.003,0.053,0.999,-0.244,2027482
-0.003,0.053,0.999,-0.244,2027486
-0.004,0.052,0.998,-0.305,2027490
-0.004,0.052,0.998,-0.244,2027494
-0.003,0.052,1.001,-0.122,2027497
-0.003,0.052,1.001,-0.183,2027501
-0.003,0.052,1.001,-0.183,2027505
-0.004,0.053,0.999,-0.183,2027509
-0.004,0.053,0.999,-0.183,2027513
-0.004,0.053,0.999,-0.183,2027517
-0.004,0.053,0.999,-0.244,2027521
-0.004,0.053,0.999,-0.244,2027525
-0.004,0.052,0.999,-0.244,2027529
-0.004,0.052,0.999,-0.183,2027533
-0.004,0.053,0.998,0.0,2027537
-0.004,0.053,0.998,-0.061,2027541
-0.004,0.053,0.998,-0.061,2027545
-0.004,0.054,0.998,-0.183,2027549
-0.004,0.054,0.998,-0.122,2027553
-0.004,0.054,1.0,-0.183,2027557
-0.004,0.054,1.0,-0.244,2027561
-0.004,0.054,1.0,-0.244,2027565
-0.004,0.054,0.998,-0.183,2027569
-0.004,0.054,0.998,-0.183,2027573
-0.004,0.053,0.999,-0.244,2027577
-0.004,0.053,0.999,-0.183,2027581
-0.004,0.053,0.999,-0.183,2027585
-0.004,0.053,0.999,-0.183,2027589
-0.004,0.053,0.999,-0.183,2027593
-0.004,0.053,1.001,-0.183,2027597
-0.004,0.053,1.001,-0.244,2027601
-0.004,0.053,1.001,-0.244,2027605
-0.004,0.053,1.0,-0.122,2027609
-0.004,0.053,1.0,-0.244,2027613
-0.006,0.054,0.999,-0.244,2027617
-0.006,0.054,0.999,-0.183,2027621
-0.006,0.054,0.999,-0.183,2027624
-0.004,0.052,1.0,-0.244,2027628
-0.004,0.052,1.0,-0.122,2027632
-0.003,0.053,0.999,-0.122,2027636
-0.003,0.053,0.999,-0.244,2027640
-0.003,0.053,0.999,-0.244,2027644
-0.004,0.053,0.999,-0.061,2027648
-0.004,0.053,0.999,-0.122,2027652
-0.004,0.054,1.0,-0.061,2027656
-0.004,0.054,1.0,-0.183,2027660
-0.004,0.054,1.0,-0.183,2027664
-0.004,0.052,1.0,-0.305,2027668
-0.004,0.052,1.0,-0.305,2027672
-0.005,0.052,0.999,-0.244,2027676
-0.005,0.052,0.999,-0.244,2027680
-0.005,0.052,0.999,-0.244,2027684
-0.004,0.053,0.999,-0.122,2027688
-0.004,0.053,0.999,-0.183,2027692
-0.005,0.053,0.999,-0.183,2027696
-0.005,0.053,0.999,-0.122,2027700
-0.005,0.053,0.999,-0.122,2027704
-0.005,0.053,0.999,-0.366,2027708
-0.005,0.053,0.999,-0.122,2027712
-0.004,0.052,0.999,-0.122,2027716
-0.004,0.052,0.999,-0.244,2027720
-0.004,0.052,0.999,-0.244,2027724
-0.003,0.054,0.999,-0.244,2027728
-0.003,0.054,0.999,-0.305,2027732
-0.001,0.055,1.0,-0.183,2027736
-0.001,0.055,1.0,-0.244,2027740
-0.001,0.055,1.0,-0.244,2027744
-0.002,0.054,1.001,-0.183,2027748
-0.002,0.054,1.001,-0.183,2027751
-0.003,0.054,0.999,-0.183,2027755
-0.003,0.054,0.999,-0.183,2027759
-0.003,0.054,0.999,-0.183,2027763
-0.003,0.054,0.998,-0.122,2027767
-0.003,0.054,0.998,-0.122,2027771
-0.003,0.054,0.999,-0.122,2027775
-0.003,0.054,0.999,-0.122,2027779
-0.003,0.054,0.999,-0.122,2027783
-0.004,0.053,1.001,-0.183,2027787
-0.004,0.053,1.001,-0.183,2027791
-0.003,0.054,1.0,-0.244,2027795
-0.003,0.054,1.0,-0.244,2027799
-0.003,0.054,1.0,-0.244,2027803
-0.003,0.052,0.999,-0.183,2027807
-0.003,0.052,0.999,-0.122,2027811
-0.005,0.053,0.999,-0.244,2027815
-0.005,0.053,0.999,-0.244,2027819
-0.005,0.053,0.999,-0.244,2027823
-0.005,0.053,1.0,-0.305,2027827
-0.005,0.053,1.0,-0.305,2027831
-0.004,0.052,0.999,-0.183,2027835
-0.004,0.052,0.999,-0.122,2027839
-0.004,0.052,0.999,-0.122,2027843
-0.004,0.052,1.0,-0.183,2027847
-0.004,0.052,1.0,-0.305,2027851
-0.002,0.052,1.0,-0.122,2027855
-0.002,0.052,1.0,-0.183,2027859
-0.002,0.052,1.0,-0.183,2027863
-0.002,0.052,1.0,-0.244,2027867
-0.002,0.052,1.0,-0.244,2027871
-0.004,0.054,0.999,-0.244,2027875
-0.004,0.054,0.999,-0.244,2027879
-0.004,0.054,0.999,-0.244,2027883
-0.004,0.053,0.999,-0.305,2027887
-0.004,0.053,0.999,-0.244,2027890
-0.004,0.052,0.997,-0.244,2027894
-0.004,0.052,0.997,-0.305,2027898
-0.004,0.052,0.997,-0.305,2027902
-0.006,0.053,0.999,-0.183,2027906
-0.006,0.053,0.999,-0.244,2027910
-0.005,0.054,0.998,-0.183,2027914
-0.005,0.054,0.998,-0.183,2027918
-0.005,0.054,0.998,-0.183,2027922
-0.005,0.053,0.999,-0.122,2027926
-0.005,0.053,0.999,-0.061,2027930
-0.004,0.053,1.001,-0.122,2027934
-0.004,0.053,1.001,-0.122,2027938
-0.004,0.053,1.001,-0.122,2027942
-0.003,0.052,1.001,-0.244,2027946
-0.003,0.052,1.001,-0.244,2027950
-0.004,0.052,0.999,-0.244,2027954
-0.004,0.052,0.999,-0.061,2027958
-0.004,0.052,0.999,-0.061,2027962
-0.004,0.053,1.0,-0.122,2027966
-0.004,0.053,1.0,-0.122,2027970
-0.004,0.053,0.998,-0.183,2027974
-0.004,0.053,0.998,-0.122,2027978
-0.004,0.053,0.998,-0.122,2027982
-0.005,0.053,0.997,-0.122,2027986
-0.005,0.053,0.997,-0.183,2027990
-0.005,0.053,0.999,-0.305,2027994
-0.005,0.053,0.999,-0.244,2027998
-0.005,0.053,0.999,-0.244,2028002
-0.004,0.053,0.998,-0.122,2028006
-0.004,0.053,0.998,-0.244,2028010
-0.003,0.052,1.001,-0.183,2028014
-0.003,0.052,1.001,-0.244,2028018
-0.003,0.052,1.001,-0.244,2028021
-0.004,0.053,1.0,-0.244,2028025
-0.004,0.053,1.0,-0.183,2028029
-0.004,0.053,1.001,-0.183,2028033
-0.004,0.053,1.001,-0.183,2028037
-0.004,0.053,1.001,-0.183,2028041
-0.003,0.052,1.0,-0.244,2028045
-0.003,0.052,1.0,-0.305,2028049
-0.003,0.053,0.999,-0.122,2028053
-0.003,0.053,0.999,-0.122,2028057
-0.003,0.053,0.999,-0.122,2028061
-0.005,0.052,1.0,-0.183,2028065
-0.005,0.052,1.0,-0.122,2028069
-0.003,0.052,1.001,-0.244,2028073
-0.003,0.052,1.001,-0.427,2028077
-0.003,0.052,1.001,-0.427,2028081
-0.005,0.053,0.999,-0.183,2028085
-0.005,0.053,0.999,-0.244,2028089
-0.004,0.052,1.0,-0.122,2028093
-0.004,0.052,1.0,-0.122,2028097
-0.004,0.052,1.0,-0.122,2028101
-0.003,0.052,0.999,-0.305,2028105
-0.003,0.052,0.999,-0.183,2028109
-0.004,0.054,0.998,-0.183,2028113
-0.004,0.054,0.998,-0.244,2028117
-0.004,0.054,0.998,-0.244,2028121
-0.004,0.054,0.999,-0.183,2028125
-0.004,0.054,0.999,-0.305,2028129
-0.006,0.053,0.999,-0.244,2028133
-0.006,0.053,0.999,-0.244,2028137
-0.006,0.053,0.999,-0.244,2028141
-0.006,0.053,1.0,-0.244,2028144
-0.006,0.053,1.0,-0.122,2028148
-0.003,0.053,0.998,-0.183,2028152
-0.003,0.053,0.998,-0.061,2028156
-0.003,0.053,0.998,-0.061,2028160
-0.004,0.053,0.999,-0.122,2028164
-0.004,0.053,0.999,-0.244,2028168
-0.004,0.054,0.998,-0.122,2028172
-0.004,0.054,0.998,-0.244,2028176
-0.004,0.054,0.998,-0.244,2028180
-0.002,0.052,0.999,-0.305,2028184
-0.002,0.052,0.999,-0.244,2028188
-0.004,0.052,0.999,-0.244,2028192
-0.004,0.052,0.999,-0.183,2028196
-0.004,0.052,0.999,-0.183,2028200
-0.004,0.053,1.001,-0.244,2028204
-0.004,0.053,1.001,-0.244,2028208
-0.004,0.052,0.998,-0.122,2028212
-0.004,0.052,0.998,-0.244,2028216
-0.004,0.052,0.998,-0.244,2028220
-0.004,0.051,0.998,-0.305,2028224
-0.004,0.051,0.998,-0.244,2028228
-0.005,0.052,1.0,-0.122,2028232
-0.005,0.052,1.0,-0.183,2028236
-0.005,0.052,1.0,-0.183,2028240
-0.003,0.052,1.0,-0.183,2028244
-0.003,0.052,1.0,-0.244,2028248
-0.003,0.052,1.0,-0.183,2028252
-0.003,0.052,1.0,-0.244,2028256
-0.003,0.052,1.0,-0.244,2028260
-0.005,0.052,1.0,-0.305,2028264
-0.005,0.052,1.0,-0.244,2028268
-0.004,0.052,0.998,-0.183,2028272
-0.004,0.052,0.998,-0.244,2028275
-0.004,0.052,0.998,-0.244,2028279
-0.002,0.053,0.998,-0.244,2028283
-0.002,0.053,0.998,-0.183,2028287
-0.003,0.053,1.001,-0.122,2028291
-0.003,0.053,1.001,-0.183,2028295
-0.003,0.053,1.001,-0.183,2028299
-0.003,0.054,0.999,-0.183,2028303
-0.003,0.054,0.999,-0.183,2028307
-0.004,0.053,1.0,-0.305,2028311
-0.004,0.053,1.0,-0.244,2028315
-0.004,0.053,1.0,-0.244,2028319
-0.003,0.054,0.999,-0.244,2028323
-0.003,0.054,0.999,-0.122,2028327
-0.002,0.054,1.0,-0.244,2028331
-0.002,0.054,1.0,-0.305,2028335
-0.002,0.054,1.0,-0.305,2028339
-0.003,0.053,0.998,-0.183,2028343
-0.003,0.053,0.998,-0.183,2028347
-0.004,0.053,1.0,-0.244,2028351
-0.004,0.053,1.0,-0.305,2028355
-0.004,0.053,1.0,-0.305,2028359
-0.003,0.052,0.999,-0.244,2028363
-0.003,0.052,0.999,-0.244,2028367
-0.002,0.054,0.998,-0.244,2028371
-0.002,0.054,0.998,-0.244,2028375
-0.002,0.054,0.998,-0.244,2028379
-0.002,0.053,0.999,-0.122,2028383
-0.002,0.053,0.999,-0.244,2028387
-0.003,0.052,1.0,-0.122,2028391
-0.003,0.052,1.0,-0.244,2028395
-0.003,0.052,1.0,-0.244,2028399
-0.005,0.053,0.999,-0.183,2028403
-0.005,0.053,0.999,-0.122,2028407
-0.004,0.052,0.998,-0.305,2028411
-0.004,0.052,0.998,-0.183,2028415
-0.004,0.052,0.998,-0.183,2028418
-0.004,0.052,1.0,-0.061,2028422
-0.004,0.052,1.0,-0.305,2028426
-0.004,0.052,0.998,-0.366,2028430
-0.004,0.052,0.998,-0.305,2028434
-0.004,0.052,0.998,-0.305,2028438
-0.005,0.054,0.999,-0.122,2028442
-0.005,0.054,0.999,-0.061,2028446
-0.003,0.054,0.999,-0.244,2028450
-0.003,0.054,0.999,-0.183,2028454
-0.003,0.054,0.999,-0.183,2028458
-0.005,0.054,0.998,-0.244,2028462
-0.005,0.054,0.998,-0.244,2028466
-0.004,0.054,0.999,-0.244,2028470
-0.004,0.054,0.999,-0.183,2028474
-0.004,0.054,0.999,-0.183,2028478
-0.004,0.054,1.0,-0.122,2028482
-0.004,0.054,1.0,-0.244,2028486
-0.003,0.054,0.998,-0.244,2028490
-0.003,0.054,0.998,-0.244,2028494
-0.003,0.054,0.998,-0.244,2028498
-0.003,0.053,0.999,-0.244,2028502
-0.003,0.053,0.999,-0.183,2028506
-0.002,0.054,0.999,-0.488,2028510
-0.002,0.054,0.999,-0.122,2028514
-0.002,0.054,0.999,-0.122,2028518
-0.003,0.053,1.0,-0.183,2028522
-0.003,0.053,1.0,-0.244,2028526
-0.004,0.052,0.999,-0.244,2028530
-0.004,0.052,0.999,-0.122,2028534
-0.004,0.052,0.999,-0.122,2028538
-0.004,0.052,1.0,-0.122,2028542
-0.004,0.052,1.0,-0.122,2028546
-0.005,0.053,0.999,-0.183,2028550
-0.005,0.053,0.999,-0.244,2028553
-0.005,0.053,0.999,-0.244,2028557
-0.006,0.053,0.999,-0.183,2028561
-0.006,0.053,0.999,-0.244,2028565
-0.003,0.053,1.001,-0.183,2028569
-0.003,0.053,1.001,-0.183,2028573
-0.003,0.053,1.001,-0.183,2028577
-0.005,0.054,1.0,-0.183,2028581
-0.005,0.054,1.0,-0.122,2028585
-0.004,0.052,1.0,-0.244,2028589
-0.004,0.052,1.0,-0.244,2028593
-0.004,0.052,1.0,-0.244,2028597
-0.003,0.052,1.001,-0.122,2028601
-0.003,0.052,1.001,-0.061,2028605
-0.003,0.053,1.001,-0.122,2028609
-0.003,0.053,1.001,-0.366,2028613
-0.003,0.053,1.001,-0.366,2028617
-0.002,0.052,0.997,-0.305,2028621
-0.002,0.052,0.997,-0.244,2028625
-0.001,0.053,1.0,-0.122,2028629
-0.001,0.053,1.0,-0.122,2028633
-0.001,0.053,1.0,-0.122,2028637
-0.005,0.053,1.0,-0.122,2028641
-0.005,0.053,1.0,-0.244,2028645
-0.005,0.054,0.999,-0.122,2028649
-0.005,0.054,0.999,-0.183,2028653
-0.005,0.054,0.999,-0.183,2028657
-0.004,0.052,1.001,-0.183,2028661
-0.004,0.052,1.001,-0.183,2028665
-0.004,0.052,1.0,-0.183,2028669
-0.004,0.052,1.0,-0.061,2028672
-0.004,0.052,1.0,-0.061,2028676
-0.004,0.052,0.999,-0.183,2028680
-0.004,0.052,0.999,-0.305,2028684
-0.003,0.052,0.999,-0.488,2028688
-0.003,0.052,0.999,-0.366,2028692
-0.003,0.052,0.999,-0.366,2028696
-0.005,0.053,1.0,-0.183,2028700
-0.005,0.053,1.0,-0.427,2028704
-0.006,0.052,0.998,-0.305,2028708
-0.006,0.052,0.998,-0.305,2028712
-0.006,0.052,0.998,-0.305,2028716
-0.004,0.052,1.0,-0.183,2028720
-0.004,0.052,1.0,-0.183,2028724
-0.004,0.052,1.0,-0.183,2028728
-0.004,0.052,1.0,-0.122,2028732
-0.004,0.052,1.0,-0.122,2028736
-0.003,0.053,1.0,-0.122,2028740
-0.003,0.053,1.0,-0.122,2028744
-0.004,0.053,0.999,-0.244,2028748
-0.004,0.053,0.999,-0.122,2028752
-0.004,0.053,0.999,-0.122,2028756
-0.004,0.053,0.999,-0.244,2028760
-0.004,0.053,0.999,-0.244,2028764
-0.003,0.053,0.999,-0.061,2028768
-0.003,0.053,0.999,-0.061,2028772
-0.003,0.053,0.999,-0.061,2028776
-0.004,0.053,0.999,-0.244,2028780
-0.004,0.053,0.999,-0.244,2028784
-0.004,0.052,1.0,-0.122,2028788
-0.004,0.052,1.0,-0.366,2028792
-0.004,0.052,1.0,-0.366,2028796
-0.003,0.051,0.999,-0.122,2028800
-0.003,0.051,0.999,-0.061,2028803
-0.003,0.053,0.999,-0.305,2028807
-0.003,0.053,0.999,-0.122,2028811
-0.003,0.053,0.999,-0.122,2028815
-0.004,0.052,0.998,-0.122,2028819
-0.004,0.052,0.998,-0.244,2028823
-0.005,0.053,0.999,-0.244,2028827
-0.005,0.053,0.999,-0.122,2028831
-0.005,0.053,0.999,-0.122,2028835
-0.006,0.052,0.999,-0.305,2028839
-0.006,0.052,0.999,-0.305,2028843
-0.004,0.052,1.0,-0.183,2028847
-0.004,0.052,1.0,-0.122,2028851
-0.004,0.052,1.0,-0.122,2028855
-0.004,0.052,1.0,-0.244,2028859
-0.004,0.052,1.0,-0.305,2028863
-0.005,0.053,0.999,-0.244,2028867
-0.005,0.053,0.999,-0.244,2028871
-0.005,0.053,0.999,-0.244,2028875
-0.005,0.053,0.998,-0.305,2028879
-0.005,0.053,0.998,-0.122,2028883
-0.003,0.052,0.999,-0.183,2028887
-0.003,0.052,0.999,-0.244,2028891
-0.003,0.052,0.999,-0.244,2028895
-0.003,0.052,0.999,-0.305,2028899
-0.003,0.052,0.999,-0.183,2028903
-0.004,0.052,1.001,-0.183,2028907
-0.004,0.052,1.001,-0.122,2028911
-0.004,0.052,1.001,-0.122,2028915
-0.004,0.053,0.999,-0.122,2028919
-0.004,0.053,0.999,-0.244,2028923
-0.002,0.052,1.0,-0.183,2028927
-0.002,0.052,1.0,-0.122,2028931
-0.002,0.052,1.0,-0.122,2028935
-0.004,0.053,0.999,-0.061,2028938
-0.004,0.053,0.999,-0.244,2028942
-0.003,0.053,1.0,-0.427,2028946
-0.003,0.053,1.0,-0.244,2028950
-0.003,0.053,1.0,-0.244,2028954
-0.004,0.052,1.0,-0.122,2028958
-0.004,0.052,1.0,-0.183,2028962
-0.005,0.052,0.997,-0.183,2028966
-0.005,0.052,0.997,-0.183,2028970
-0.005,0.052,0.997,-0.183,2028974
-0.004,0.053,0.999,-0.305,2028978
-0.004,0.053,0.999,-0.244,2028982
-0.002,0.053,0.999,-0.244,2028986
-0.002,0.053,0.999,-0.244,2028990
-0.002,0.053,0.999,-0.244,2028994
-0.004,0.053,0.998,-0.183,2028998
-0.004,0.053,0.998,-0.244,2029002
-0.005,0.052,1.0,-0.244,2029006
-0.005,0.052,1.0,-0.183,2029010
-0.005,0.052,1.0,-0.183,2029014
-0.004,0.052,0.998,-0.244,2029018
-0.004,0.052,0.998,-0.244,2029022
-0.004,0.052,0.998,-0.305,2029026
-0.004,0.052,0.998,-0.122,2029030
-0.004,0.052,0.998,-0.122,2029034
-0.005,0.053,1.0,-0.244,2029038
-0.005,0.053,1.0,-0.244,2029042
-0.005,0.053,0.998,-0.122,2029046
-0.005,0.053,0.998,-0.122,2029050
-0.005,0.053,0.998,-0.122,2029054
-0.004,0.052,1.0,-0.244,2029058
-0.004,0.052,1.0,-0.122,2029062
-0.005,0.053,1.0,-0.183,2029066
-0.005,0.053,1.0,-0.122,2029070
-0.005,0.053,1.0,-0.122,2029074
-0.005,0.053,1.0,-0.183,2029077
-0.005,0.053,1.0,-0.305,2029081
-0.004,0.053,0.999,-0.122,2029085
-0.004,0.053,0.999,-0.183,2029089
-0.004,0.053,0.999,-0.183,2029093
-0.004,0.052,1.0,-0.183,2029097
-0.004,0.052,1.0,-0.183,2029101
-0.005,0.053,0.998,-0.244,2029105
-0.005,0.053,0.998,-0.183,2029109
-0.005,0.053,0.998,-0.183,2029113
-0.003,0.052,1.0,-0.183,2029117
-0.003,0.052,1.0,-0.305,2029121
-0.004,0.052,1.0,-0.183,2029125
-0.004,0.052,1.0,-0.061,2029129
-0.004,0.052,1.0,-0.061,2029133
-0.005,0.054,0.998,-0.183,2029137
-0.005,0.054,0.998,-0.305,2029141
-0.005,0.052,1.001,-0.183,2029145
-0.005,0.052,1.001,-0.122,2029149
-0.005,0.052,1.001,-0.122,2029153
-0.003,0.053,0.999,-0.244,2029157
-0.003,0.053,0.999,-0.244,2029161
-0.004,0.053,0.998,-0.183,2029165
-0.004,0.053,0.998,-0.061,2029169
-0.004,0.053,0.998,-0.061,2029173
-0.003,0.054,0.999,-0.244,2029177
-0.003,0.054,0.999,-0.183,2029181
-0.005,0.052,0.998,-0.122,2029185
-0.005,0.052,0.998,-0.244,2029189
-0.005,0.052,0.998,-0.244,2029193
-0.004,0.053,1.0,-0.183,2029197
-0.004,0.053,1.0,-0.061,2029200
-0.003,0.053,0.999,-0.183,2029204
-0.003,0.053,0.999,-0.244,2029208
-0.003,0.053,0.999,-0.244,2029212
-0.004,0.053,0.998,-0.122,2029216
-0.004,0.053,0.998,-0.061,2029220
-0.003,0.053,0.999,-0.183,2029224
-0.003,0.053,0.999,-0.183,2029228
-0.003,0.053,0.999,-0.183,2029232
-0.004,0.053,1.0,-0.122,2029236
-0.004,0.053,1.0,-0.244,2029240
-0.004,0.053,0.999,-0.061,2029244
-0.004,0.053,0.999,-0.244,2029248
-0.004,0.053,0.999,-0.244,2029252
-0.003,0.054,0.999,-0.244,2029256
-0.003,0.054,0.999,-0.122,2029260
-0.004,0.053,0.998,-0.183,2029264
-0.004,0.053,0.998,-0.122,2029268
-0.004,0.053,0.998,-0.122,2029272
-0.003,0.053,0.999,-0.183,2029276
-0.003,0.053,0.999,-0.244,2029280
-0.004,0.053,0.997,-0.244,2029284
-0.004,0.053,0.997,-0.305,2029288
-0.004,0.053,0.997,-0.305,2029292
-0.004,0.054,1.0,-0.183,2029296
-0.004,0.054,1.0,-0.183,2029300
-0.004,0.052,1.0,-0.244,2029304
-0.004,0.052,1.0,-0.183,2029308
-0.004,0.052,1.0,-0.183,2029312
-0.005,0.053,1.0,-0.244,2029316
-0.005,0.053,1.0,-0.061,2029320
-0.003,0.054,1.0,-0.061,2029323
-0.003,0.054,1.0,-0.122,2029327
-0.003,0.054,1.0,-0.122,2029331
-0.004,0.053,0.997,-0.061,2029335
-0.004,0.053,0.997,-0.183,2029339
-0.005,0.053,0.997,-0.183,2029343
-0.005,0.053,0.997,-0.061,2029347
-0.005,0.053,0.997,-0.061,2029351
-0.005,0.053,0.999,-0.183,2029355
-0.005,0.053,0.999,-0.244,2029359
-0.004,0.053,1.0,-0.244,2029363
-0.004,0.053,1.0,-0.244,2029367
-0.004,0.053,1.0,-0.244,2029371
-0.002,0.053,1.0,-0.305,2029375
-0.002,0.053,1.0,-0.183,2029379
-0.003,0.053,1.0,-0.122,2029383
-0.003,0.053,1.0,-0.061,2029387
-0.003,0.053,1.0,-0.061,2029391
-0.005,0.054,0.999,-0.183,2029395
-0.005,0.054,0.999,-0.122,2029399
-0.004,0.053,0.999,-0.183,2029403
-0.004,0.053,0.999,-0.244,2029407
-0.004,0.053,0.999,-0.244,2029411
-0.004,0.053,0.999,-0.305,2029415
-0.004,0.053,0.999,-0.183,2029419
-0.003,0.053,1.0,-0.244,2029423
-0.003,0.053,1.0,-0.122,2029427
-0.003,0.053,1.0,-0.122,2029431
-0.003,0.053,1.0,-0.061,2029435
-0.003,0.053,1.0,-0.122,2029439
-0.003,0.053,1.0,-0.305,2029443
-0.003,0.053,1.0,-0.305,2029447
-0.003,0.053,1.0,-0.122,2029451
-0.003,0.053,1.0,-0.122,2029455
-0.003,0.053,1.0,-0.122,2029459
-0.003,0.052,1.001,-0.183,2029463
-0.003,0.052,1.001,-0.183,2029467
-0.004,0.053,1.0,-0.183,2029471
-0.004,0.053,1.0,-0.183,2029474
-0.004,0.053,1.0,-0.183,2029478
-0.005,0.053,0.999,-0.183,2029482
-0.005,0.053,0.999,-0.061,2029486
-0.003,0.053,0.999,-0.061,2029490
-0.003,0.053,0.999,-0.061,2029494
-0.003,0.053,0.999,-0.244,2029498
-0.003,0.053,0.998,-0.244,2029502
-0.003,0.053,0.998,0.0,2029506
-0.004,0.051,0.998,-0.122,2029510
-0.004,0.051,0.998,-0.122,2029514
-0.004,0.051,0.998,-0.183,2029518
-0.004,0.052,0.999,-0.305,2029522
-0.004,0.052,0.999,-0.244,2029526
-0.002,0.053,0.998,-0.244,2029530
-0.002,0.053,0.998,-0.244,2029534
-0.002,0.053,0.998,-0.061,2029538
-0.004,0.053,0.999,-0.183,2029542
-0.004,0.053,0.999,-0.366,2029546
-0.004,0.054,1.0,-0.183,2029550
-0.004,0.054,1.0,-0.183,2029554
-0.004,0.054,1.0,-0.244,2029558
-0.004,0.053,1.0,-0.183,2029562
-0.004,0.053,1.0,-0.183,2029566
-0.003,0.052,1.0,-0.244,2029570
-0.003,0.052,1.0,-0.244,2029574
-0.003,0.052,1.0,-0.244,2029578
-0.003,0.054,0.998,-0.244,2029582
-0.003,0.054,0.998,-0.122,2029586
-0.003,0.053,0.998,-0.183,2029590
-0.003,0.053,0.998,-0.183,2029594
-0.003,0.053,0.998,-0.183,2029598
-0.003,0.052,1.0,-0.183,2029602
-0.003,0.052,1.0,-0.183,2029606
-0.004,0.053,0.999,-0.244,2029609
-0.004,0.053,0.999,-0.244,2029613
-0.004,0.053,0.999,-0.183,2029617
-0.003,0.054,0.998,-0.305,2029621
-0.003,0.054,0.998,-0.305,2029625
-0.003,0.054,1.0,0.0,2029629
-0.003,0.054,1.0,0.0,2029633
-0.003,0.054,1.0,0.122,2029637
-0.003,0.054,0.999,-0.183,2029641
-0.003,0.054,0.999,-0.183,2029645
-0.003,0.053,1.0,-0.244,2029649
-0.003,0.053,1.0,-0.244,2029653
-0.003,0.053,1.0,-0.305,2029657
-0.002,0.054,1.0,-0.305,2029661
-0.002,0.054,1.0,-0.366,2029665
-0.003,0.052,0.999,-0.244,2029669
-0.003,0.052,0.999,-0.244,2029673
-0.003,0.052,0.999,-0.244,2029677
-0.005,0.054,1.0,-0.244,2029681
-0.005,0.054,1.0,-0.244,2029685
-0.003,0.054,1.0,-0.244,2029689
-0.003,0.054,1.0,-0.244,2029693
-0.003,0.054,1.0,-0.183,2029697
-0.005,0.052,1.0,-0.305,2029701
-0.005,0.052,1.0,-0.183,2029705
-0.004,0.053,0.999,-0.122,2029709
-0.004,0.053,0.999,-0.122,2029713
-0.004,0.053,0.999,-0.122,2029717
-0.003,0.054,0.998,-0.122,2029721
-0.003,0.054,0.998,-0.305,2029724
-0.004,0.053,0.998,-0.305,2029728
-0.004,0.053,0.998,-0.305,2029732
-0.004,0.053,0.998,-0.122,2029736
-0.003,0.053,0.998,-0.244,2029740
-0.003,0.053,0.998,-0.183,2029744
-0.005,0.054,0.998,-0.183,2029748
-0.005,0.054,0.998,-0.183,2029752
-0.005,0.054,0.998,-0.305,2029756
-0.005,0.052,0.999,-0.244,2029760
-0.005,0.052,0.999,-0.244,2029764
-0.004,0.052,0.998,-0.122,2029768
-0.004,0.052,0.998,-0.122,2029772
-0.004,0.052,0.998,-0.183,2029776
-0.004,0.053,0.999,-0.244,2029780
-0.004,0.053,0.999,-0.244,2029784
-0.004,0.052,0.998,-0.244,2029788
-0.004,0.052,0.998,-0.244,2029792
-0.004,0.052,0.998,-0.183,2029796
-0.005,0.053,0.999,-0.244,2029800
-0.005,0.053,0.999,-0.122,2029804
-0.005,0.053,1.0,-0.244,2029808
-0.005,0.053,1.0,-0.244,2029812
-0.005,0.053,1.0,-0.366,2029816
-0.004,0.052,0.998,-0.244,2029820
-0.004,0.052,0.998,-0.305,2029824
-0.005,0.052,0.998,-0.183,2029828
-0.005,0.052,0.998,-0.183,2029832
-0.005,0.052,0.998,-0.122,2029836
-0.005,0.054,0.999,-0.305,2029840
-0.005,0.054,0.999,-0.366,2029844
-0.004,0.053,0.999,-0.183,2029848
-0.004,0.053,0.999,-0.183,2029852
-0.004,0.053,0.999,-0.183,2029855
-0.003,0.051,0.999,-0.244,2029859
-0.003,0.051,0.999,-0.244,2029863
-0.006,0.053,0.999,-0.244,2029867
-0.006,0.053,0.999,-0.244,2029871
-0.006,0.053,0.999,-0.244,2029875
-0.005,0.054,1.0,-0.183,2029879
-0.005,0.054,1.0,-0.183,2029883
-0.005,0.051,0.999,-0.122,2029887
-0.005,0.051,0.999,-0.122,2029891
-0.005,0.051,0.999,-0.183,2029895
-0.005,0.053,1.0,-0.305,2029899
-0.005,0.053,1.0,-0.244,2029903
-0.004,0.054,1.0,-0.244,2029907
-0.004,0.054,1.0,-0.244,2029911
-0.004,0.054,1.0,-0.244,2029915
-0.005,0.052,0.999,-0.122,2029919
-0.005,0.052,0.999,-0.061,2029923
-0.003,0.052,0.999,-0.305,2029927
-0.003,0.052,0.999,-0.305,2029931
-0.003,0.052,0.999,-0.183,2029935
-0.004,0.053,1.0,-0.183,2029939
-0.004,0.053,1.0,-0.244,2029943
-0.004,0.052,1.0,-0.183,2029947
-0.004,0.052,1.0,-0.183,2029951
-0.004,0.052,1.0,-0.244,2029955
-0.003,0.053,0.999,-0.183,2029959
-0.003,0.053,0.999,-0.183,2029963
-0.005,0.053,1.0,-0.244,2029967
-0.005,0.053,1.0,-0.244,2029971
-0.005,0.053,1.0,-0.244,2029975
-0.006,0.053,1.0,-0.244,2029979
-0.006,0.053,1.0,-0.122,2029982
-0.004,0.053,1.0,-0.244,2029986
-0.004,0.053,1.0,-0.244,2029990
-0.004,0.053,1.0,-0.244,2029994
-0.004,0.053,1.0,-0.244,2029998
-0.004,0.053,1.0,-0.244,2030002
-0.004,0.056,1.001,-0.183,2030006
-0.004,0.056,1.001,-0.183,2030010
-0.004,0.056,1.001,-0.183,2030014
-0.002,0.053,0.999,-0.183,2030018
-0.002,0.053,0.999,-0.244,2030022
-0.004,0.054,1.0,-0.122,2030026
-0.004,0.054,1.0,-0.122,2030030
-0.004,0.054,1.0,-0.244,2030034
-0.004,0.053,0.999,-0.183,2030038
-0.004,0.053,0.999,-0.183,2030042
-0.002,0.053,0.999,-0.183,2030046
-0.002,0.053,0.999,-0.183,2030050
-0.002,0.053,0.999,-0.244,2030054
-0.002,0.052,1.001,-0.183,2030058
-0.002,0.052,1.001,-0.061,2030062
-0.003,0.053,0.998,-0.183,2030066
-0.003,0.053,0.998,-0.183,2030070
-0.003,0.053,0.998,-0.183,2030074
-0.003,0.052,0.999,-0.122,2030078
-0.003,0.052,0.999,-0.183,2030082
-0.005,0.052,0.999,-0.061,2030086
-0.005,0.052,0.999,-0.061,2030090
-0.005,0.052,0.999,-0.183,2030094
-0.005,0.056,0.998,-0.183,2030098
-0.005,0.056,0.998,-0.183,2030102
-0.004,0.054,1.0,-0.244,2030106
-0.004,0.054,1.0,-0.244,2030110
-0.004,0.054,1.0,-0.183,2030114
-0.003,0.052,1.001,-0.183,2030117
-0.003,0.052,1.001,-0.122,2030121
-0.004,0.053,0.999,-0.183,2030125
-0.004,0.053,0.999,-0.183,2030129
-0.004,0.053,0.999,-0.183,2030133
-0.005,0.052,0.999,-0.122,2030137
-0.005,0.052,0.999,-0.183,2030141
-0.004,0.052,0.999,-0.244,2030145
-0.004,0.052,0.999,-0.244,2030149
-0.004,0.052,0.999,-0.122,2030153
-0.002,0.052,1.0,-0.244,2030157
-0.002,0.052,1.0,-0.427,2030161
-0.004,0.053,0.999,-0.183,2030165
-0.004,0.053,0.999,-0.183,2030169
-0.004,0.053,0.999,-0.061,2030173
-0.006,0.054,0.997,-0.244,2030177
-0.006,0.054,0.997,-0.244,2030181
-0.005,0.054,0.999,-0.183,2030185
-0.005,0.054,0.999,-0.183,2030189
-0.005,0.054,0.999,-0.061,2030193
-0.003,0.054,0.999,-0.183,2030197
-0.003,0.054,0.999,-0.122,2030201
-0.003,0.054,0.999,-0.244,2030205
-0.003,0.054,0.999,-0.244,2030209
-0.003,0.054,0.999,-0.244,2030213
-0.004,0.053,0.999,-0.183,2030217
-0.004,0.053,0.999,-0.305,2030221
-0.003,0.052,0.998,-0.305,2030225
-0.003,0.052,0.998,-0.305,2030229
-0.003,0.052,0.998,-0.183,2030233
-0.004,0.052,1.0,-0.183,2030237
-0.004,0.052,1.0,-0.122,2030241
-0.003,0.053,1.001,-0.244,2030244
-0.003,0.053,1.001,-0.244,2030248
-0.003,0.053,1.001,-0.183,2030252
-0.003,0.052,0.997,-0.122,2030256
-0.003,0.052,0.997,-0.244,2030260
-0.003,0.052,0.998,-0.122,2030264
-0.003,0.052,0.998,-0.122,2030268
-0.003,0.052,0.998,-0.061,2030272
-0.004,0.053,1.0,-0.061,2030276
-0.004,0.053,1.0,-0.244,2030280
-0.005,0.052,0.999,-0.366,2030284
-0.005,0.052,0.999,-0.366,2030288
-0.005,0.052,0.999,-0.183,2030292
-0.004,0.053,1.001,-0.244,2030296
-0.004,0.053,1.001,-0.183,2030300
-0.006,0.053,1.0,-0.122,2030304
-0.006,0.053,1.0,-0.122,2030308
-0.006,0.053,1.0,-0.183,2030312
-0.004,0.053,0.999,-0.244,2030316
-0.004,0.053,0.999,-0.244,2030320
-0.003,0.052,1.0,-0.305,2030324
-0.003,0.052,1.0,-0.305,2030328
-0.003,0.052,1.0,-0.122,2030332
-0.004,0.053,1.0,-0.183,2030336
-0.004,0.053,1.0,-0.122,2030340
-0.005,0.052,1.0,-0.183,2030344
-0.005,0.052,1.0,-0.183,2030348
-0.005,0.052,1.0,-0.244,2030352
-0.004,0.053,1.0,-0.305,2030356
-0.004,0.053,1.0,-0.244,2030360
-0.005,0.053,0.999,-0.061,2030364
-0.005,0.053,0.999,-0.061,2030368
-0.005,0.053,0.999,-0.183,2030372
-0.005,0.054,0.998,-0.183,2030376
-0.005,0.054,0.998,-0.183,2030379
-0.003,0.054,0.999,-0.183,2030383
-0.003,0.054,0.999,-0.183,2030387
-0.003,0.054,0.999,-0.305,2030391
-0.004,0.055,0.999,-0.244,2030395
-0.004,0.055,0.999,-0.183,2030399
-0.004,0.053,0.997,-0.183,2030403
-0.004,0.053,0.997,-0.183,2030407
-0.004,0.053,0.997,-0.183,2030411
-0.003,0.054,0.998,-0.122,2030415
-0.003,0.054,0.998,0.0,2030419
-0.006,0.053,0.999,-0.061,2030423
-0.006,0.053,0.999,-0.061,2030427
-0.006,0.053,0.999,-0.244,2030431
-0.004,0.053,0.999,-0.244,2030435
-0.004,0.053,0.999,-0.061,2030439
-0.003,0.052,0.998,-0.183,2030443
-0.003,0.052,0.998,-0.183,2030447
-0.003,0.052,0.998,-0.244,2030451
-0.003,0.053,1.0,-0.183,2030455
-0.003,0.053,1.0,-0.122,2030459
-0.005,0.053,1.0,-0.183,2030463
-0.005,0.053,1.0,-0.183,2030467
-0.005,0.053,1.0,-0.183,2030471
-0.005,0.052,0.999,-0.122,2030475
-0.005,0.052,0.999,-0.061,2030479
-0.003,0.052,1.001,-0.122,2030483
-0.003,0.052,1.001,-0.122,2030487
-0.003,0.052,1.001,-0.366,2030490
-0.004,0.053,0.999,-0.244,2030494
-0.004,0.053,0.999,-0.305,2030498
-0.003,0.052,1.001,-0.305,2030502
-0.003,0.052,1.001,-0.305,2030506
-0.003,0.052,1.001,-0.183,2030510
-0.005,0.052,1.0,-0.183,2030514
-0.005,0.052,1.0,-0.244,2030518
-0.004,0.051,0.999,-0.244,2030522
-0.004,0.051,0.999,-0.244,2030526
-0.004,0.051,0.999,-0.061,2030530
-0.005,0.052,1.0,-0.183,2030534
-0.005,0.052,1.0,-0.244,2030538
-0.003,0.053,0.997,-0.183,2030542
-0.003,0.053,0.997,-0.183,2030546
-0.003,0.053,0.997,-0.061,2030550
-0.002,0.054,0.998,-0.244,2030554
-0.002,0.054,0.998,-0.244,2030558
-0.005,0.053,1.001,-0.122,2030562
-0.005,0.053,1.001,-0.122,2030566
-0.005,0.053,1.001,-0.183,2030570
-0.004,0.052,0.999,-0.183,2030574
-0.004,0.052,0.999,-0.183,2030578
-0.003,0.053,0.998,-0.183,2030582
-0.003,0.053,0.998,-0.183,2030586
-0.003,0.053,0.998,-0.305,2030590
-0.003,0.053,0.998,-0.305,2030594
-0.003,0.053,0.998,-0.183,2030598
-0.003,0.053,0.998,-0.122,2030602
-0.003,0.053,0.998,-0.122,2030606
-0.003,0.053,0.998,-0.305,2030610
-0.004,0.053,0.999,-0.366,2030614
-0.004,0.053,0.999,-0.183,2030618
-0.003,0.053,0.999,-0.122,2030622
-0.003,0.053,0.999,-0.122,2030626
-0.003,0.053,0.999,-0.244,2030630
-0.005,0.053,1.0,-0.183,2030634
-0.005,0.053,1.0,-0.122,2030637
-0.003,0.053,0.998,-0.183,2030641
-0.003,0.053,0.998,-0.183,2030645
-0.003,0.053,0.998,-0.183,2030649
-0.003,0.053,1.0,-0.366,2030653
-0.003,0.053,1.0,-0.183,2030657
-0.003,0.053,1.0,-0.061,2030661
-0.003,0.053,1.0,-0.061,2030665
-0.003,0.053,1.0,0.0,2030669
-0.005,0.053,0.999,-0.183,2030673
-0.005,0.053,0.999,-0.183,2030677
-0.003,0.053,1.0,-0.122,2030681
-0.003,0.053,1.0,-0.122,2030685
-0.003,0.053,1.0,-0.122,2030689
-0.004,0.053,0.998,-0.122,2030693
-0.004,0.053,0.998,-0.122,2030697
-0.006,0.054,1.0,-0.305,2030701
-0.006,0.054,1.0,-0.305,2030705
-0.006,0.054,1.0,-0.122,2030709
-0.006,0.052,1.001,-0.183,2030713
-0.006,0.052,1.001,-0.244,2030717
-0.004,0.054,1.001,-0.122,2030721
-0.004,0.054,1.001,-0.122,2030725
-0.004,0.054,1.001,-0.061,2030729
-0.004,0.053,0.999,-0.244,2030733
-0.004,0.053,0.999,-0.183,2030737
-0.003,0.054,1.0,-0.244,2030741
-0.003,0.054,1.0,-0.244,2030745
-0.003,0.054,1.0,-0.305,2030749
-0.004,0.054,0.999,-0.122,2030753
-0.004,0.054,0.999,-0.061,2030756
-0.003,0.053,0.999,-0.061,2030760
-0.003,0.053,0.999,-0.061,2030764
-0.003,0.053,0.999,-0.183,2030768
-0.002,0.054,1.0,-0.305,2030772
-0.002,0.054,1.0,-0.244,2030776
-0.004,0.053,0.999,-0.061,2030780
-0.004,0.053,0.999,-0.061,2030784
-0.004,0.053,0.999,-0.183,2030788
-0.003,0.054,1.0,-0.244,2030792
-0.003,0.054,1.0,-0.122,2030796
-0.003,0.053,0.999,-0.122,2030800
-0.003,0.053,0.999,-0.122,2030804
-0.003,0.053,0.999,-0.244,2030808
-0.004,0.053,0.999,-0.305,2030812
-0.004,0.053,0.999,-0.122,2030816
-0.005,0.053,0.997,-0.244,2030820
-0.005,0.053,0.997,-0.244,2030824
-0.005,0.053,0.997,-0.244,2030828
-0.005,0.052,0.999,-0.244,2030832
-0.005,0.052,0.999,-0.122,2030836
-0.006,0.053,0.998,-0.122,2030840
-0.006,0.053,0.998,-0.122,2030844
-0.006,0.053,0.998,-0.183,2030848
-0.003,0.053,0.999,-0.122,2030852
-0.003,0.053,0.999,-0.305,2030856
-0.006,0.052,1.0,-0.305,2030860
-0.006,0.052,1.0,-0.305,2030864
-0.006,0.052,1.0,-0.183,2030868
-0.005,0.052,0.998,-0.183,2030872
-0.005,0.052,0.998,-0.183,2030876
-0.004,0.052,0.999,-0.244,2030880
-0.004,0.052,0.999,-0.244,2030884
-0.004,0.052,0.999,-0.122,2030888
-0.004,0.053,1.0,-0.183,2030892
-0.004,0.053,1.0,-0.305,2030896
-0.004,0.053,1.001,-0.183,2030899
-0.004,0.053,1.001,-0.183,2030903
-0.004,0.053,1.001,-0.183,2030907
-0.002,0.053,0.999,-0.122,2030911
-0.002,0.053,0.999,-0.183,2030915
-0.002,0.053,0.997,-0.183,2030919
-0.002,0.053,0.997,-0.183,2030923
-0.002,0.053,0.997,-0.061,2030927
-0.003,0.054,0.998,-0.122,2030931
-0.003,0.054,0.998,-0.183,2030935
-0.003,0.053,0.998,-0.244,2030939
-0.003,0.053,0.998,-0.244,2030943
-0.003,0.053,0.998,-0.244,2030947
-0.004,0.052,0.997,-0.244,2030951
-0.004,0.052,0.997,-0.305,2030955
-0.003,0.053,0.998,-0.183,2030959
-0.003,0.053,0.998,-0.183,2030963
-0.003,0.053,0.998,-0.183,2030967
-0.003,0.054,1.0,-0.244,2030971
-0.003,0.054,1.0,-0.183,2030975
-0.004,0.053,0.999,-0.183,2030979
-0.004,0.053,0.999,-0.183,2030983
-0.004,0.053,0.999,-0.305,2030987
-0.002,0.053,0.999,-0.244,2030991
-0.002,0.053,0.999,-0.183,2030995
-0.004,0.054,1.0,-0.122,2030999
-0.004,0.054,1.0,-0.122,2031003
-0.004,0.054,1.0,-0.183,2031007
-0.005,0.054,0.999,-0.305,2031011
-0.005,0.054,0.999,-0.183,2031015
-0.003,0.053,0.998,-0.183,2031019
-0.003,0.053,0.998,-0.183,2031023
-0.003,0.053,0.998,-0.122,2031027
-0.004,0.053,0.998,-0.244,2031031
-0.004,0.053,0.998,-0.061,2031035
-0.005,0.052,0.998,-0.183,2031038
-0.005,0.052,0.998,-0.183,2031042
-0.005,0.052,0.998,-0.122,2031046
-0.005,0.052,1.0,-0.183,2031050
-0.005,0.052,1.0,-0.183,2031054
-0.003,0.053,1.0,-0.183,2031058
-0.003,0.053,1.0,-0.183,2031062
-0.003,0.053,1.0,-0.244,2031066
-0.005,0.054,0.999,-0.305,2031070
-0.005,0.054,0.999,-0.244,2031074
-0.005,0.052,1.0,-0.244,2031078
-0.005,0.052,1.0,-0.244,2031082
-0.005,0.052,1.0,-0.244,2031086
-0.004,0.053,1.0,-0.122,2031090
-0.004,0.053,1.0,-0.244,2031094
-0.004,0.053,0.999,-0.244,2031098
-0.004,0.053,0.999,-0.244,2031102
-0.004,0.053,0.999,-0.122,2031106
-0.006,0.053,0.998,-0.122,2031110
-0.006,0.053,0.998,-0.122,2031114
-0.005,0.053,1.0,-0.183,2031118
-0.005,0.053,1.0,-0.183,2031122
-0.005,0.053,1.0,-0.305,2031126
-0.003,0.052,1.0,-0.122,2031130
-0.003,0.052,1.0,-0.183,2031134
-0.003,0.053,1.0,-0.183,2031138
-0.003,0.053,1.0,-0.183,2031142
-0.003,0.053,1.0,-0.183,2031146
-0.002,0.054,0.998,-0.244,2031150
-0.002,0.054,0.998,-0.183,2031154
-0.003,0.052,0.998,-0.183,2031158
-0.003,0.052,0.998,-0.183,2031162
-0.003,0.052,0.998,-0.244,2031166
-0.004,0.052,0.998,-0.244,2031170
-0.004,0.052,0.998,-0.122,2031174
-0.002,0.053,0.999,-0.061,2031178
-0.002,0.053,0.999,-0.061,2031181
-0.002,0.053,0.999,-0.122,2031185
-0.003,0.053,0.998,-0.122,2031189
-0.003,0.053,0.998,-0.244,2031193
-0.004,0.052,0.999,-0.244,2031197
-0.004,0.052,0.999,-0.244,2031201
-0.004,0.052,0.999,-0.122,2031205
-0.005,0.053,0.999,-0.305,2031209
-0.005,0.053,0.999,-0.122,2031213
-0.005,0.052,0.999,-0.183,2031217
-0.005,0.052,0.999,-0.183,2031221
-0.005,0.052,0.999,-0.427,2031225
-0.003,0.052,1.0,-0.183,2031229
-0.003,0.052,1.0,-0.244,2031233
-0.004,0.053,0.999,-0.244,2031237
-0.004,0.053,0.999,-0.244,2031241
-0.004,0.053,0.999,-0.183,2031245
-0.005,0.052,0.999,-0.061,2031249
-0.005,0.052,0.999,-0.122,2031253
-0.005,0.054,0.999,-0.183,2031257
-0.005,0.054,0.999,-0.183,2031261
-0.005,0.054,0.999,-0.122,2031265
-0.004,0.053,0.998,0.0,2031269
-0.004,0.053,0.998,-0.061,2031273
-0.004,0.053,0.998,-0.244,2031277
-0.004,0.053,0.998,-0.244,2031281
-0.004,0.053,0.998,-0.183,2031285
-0.004,0.052,0.998,-0.183,2031289
-0.004,0.052,0.998,-0.183,2031293
-0.003,0.053,1.0,-0.061,2031297
-0.003,0.053,1.0,-0.061,2031301
-0.003,0.053,1.0,-0.244,2031305
-0.003,0.053,0.998,-0.183,2031308
-0.003,0.053,0.998,-0.122,2031312
-0.005,0.052,0.998,-0.183,2031316
-0.005,0.052,0.998,-0.183,2031320
-0.005,0.052,0.998,-0.183,2031324
-0.004,0.053,0.999,-0.122,2031328
-0.004,0.053,0.999,-0.183,2031332
-0.003,0.053,0.998,-0.122,2031336
-0.003,0.053,0.998,-0.122,2031340
-0.003,0.053,0.998,-0.061,2031344
-0.005,0.053,0.998,-0.183,2031348
-0.005,0.053,0.998,-0.183,2031352
-0.001,0.052,0.999,-0.305,2031356
-0.001,0.052,0.999,-0.305,2031360
-0.001,0.052,0.999,-0.183,2031364
-0.002,0.052,0.998,-0.122,2031368
-0.002,0.052,0.998,-0.244,2031372
-0.003,0.053,1.0,-0.244,2031376
-0.003,0.053,1.0,-0.244,2031380
-0.003,0.053,1.0,-0.061,2031384
-0.004,0.052,0.997,-0.122,2031388
-0.004,0.052,0.997,-0.244,2031392
-0.005,0.053,0.996,-0.183,2031396
-0.005,0.053,0.996,-0.183,2031400
-0.005,0.053,0.996,-0.122,2031404
-0.004,0.052,1.0,-0.183,2031408
-0.004,0.052,1.0,-0.061,2031412
-0.003,0.054,0.999,-0.183,2031416
-0.003,0.054,0.999,-0.183,2031420
-0.003,0.054,0.999,-0.244,2031424
-0.005,0.053,1.001,-0.061,2031428
-0.005,0.053,1.001,-0.122,2031432
-0.006,0.053,0.999,-0.183,2031435
-0.006,0.053,0.999,-0.183,2031439
-0.006,0.053,0.999,-0.122,2031443
-0.005,0.054,0.999,-0.183,2031447
-0.005,0.054,0.999,-0.244,2031451
-0.006,0.052,0.998,-0.183,2031455
-0.006,0.052,0.998,-0.183,2031459
-0.006,0.052,0.998,-0.244,2031463
-0.004,0.052,1.0,-0.244,2031467
-0.004,0.052,1.0,-0.061,2031471
-0.002,0.053,0.999,-0.061,2031475
-0.002,0.053,0.999,-0.061,2031479
-0.002,0.053,0.999,-0.061,2031483
-0.002,0.052,0.999,-0.244,2031487
-0.002,0.052,0.999,-0.183,2031491
-0.005,0.052,1.0,-0.183,2031495
-0.005,0.052,1.0,-0.183,2031499
-0.005,0.052,1.0,-0.061,2031503
-0.002,0.053,1.0,-0.244,2031507
-0.002,0.053,1.0,-0.183,2031511
-0.005,0.052,1.0,-0.244,2031515
-0.005,0.052,1.0,-0.244,2031519
-0.005,0.052,1.0,-0.183,2031523
-0.005,0.053,0.999,-0.244,2031527
-0.005,0.053,0.999,-0.122,2031531
-0.004,0.053,0.998,-0.366,2031535
-0.004,0.053,0.998,-0.366,2031539
-0.004,0.053,0.998,-0.244,2031543
-0.003,0.053,0.999,-0.305,2031547
-0.003,0.053,0.999,-0.122,2031551
-0.003,0.055,1.0,-0.122,2031555
-0.003,0.055,1.0,-0.122,2031559
-0.003,0.055,1.0,-0.305,2031563
-0.002,0.054,0.998,-0.244,2031566
-0.002,0.054,0.998,-0.244,2031570
-0.003,0.052,1.0,-0.183,2031574
-0.003,0.052,1.0,-0.183,2031578
-0.003,0.052,1.0,-0.183,2031582
-0.004,0.051,1.0,-0.183,2031586
-0.004,0.051,1.0,-0.183,2031590
-0.004,0.052,0.999,-0.244,2031594
-0.004,0.052,0.999,-0.244,2031598
-0.004,0.052,0.999,-0.244,2031602
-0.004,0.052,1.0,-0.183,2031606
-0.004,0.052,1.0,-0.122,2031610
-0.003,0.051,1.0,-0.122,2031614
-0.003,0.051,1.0,-0.244,2031618
-0.003,0.051,1.0,-0.244,2031622
-0.005,0.053,0.999,-0.305,2031626
-0.005,0.053,0.999,-0.122,2031630
-0.004,0.053,0.999,-0.122,2031634
-0.004,0.053,0.999,-0.122,2031638
-0.004,0.053,0.999,-0.183,2031642
-0.005,0.053,0.999,-0.061,2031646
-0.005,0.053,0.999,-0.183,2031650
-0.006,0.054,0.999,-0.122,2031654
-0.006,0.054,0.999,-0.061,2031658
-0.006,0.054,0.999,-0.061,2031662
-0.005,0.052,1.0,-0.183,2031666
-0.005,0.052,1.0,-0.061,2031670
-0.003,0.053,1.0,-0.244,2031674
-0.003,0.053,1.0,-0.244,2031678
-0.003,0.053,1.0,-0.244,2031682
-0.004,0.053,0.998,-0.183,2031686
-0.004,0.053,0.998,-0.244,2031690
-0.005,0.053,0.999,-0.244,2031694
-0.005,0.053,0.999,-0.244,2031697
-0.005,0.053,0.999,-0.244,2031701
-0.004,0.053,1.0,-0.244,2031705
-0.004,0.053,1.0,-0.244,2031709
-0.005,0.054,0.999,-0.183,2031713
-0.005,0.054,0.999,-0.305,2031717
-0.005,0.054,0.999,-0.305,2031721
-0.003,0.054,0.999,-0.244,2031725
-0.003,0.054,0.999,-0.183,2031729
-0.003,0.053,0.999,-0.122,2031733
-0.003,0.053,0.999,-0.244,2031737
-0.003,0.053,0.999,-0.244,2031741
-0.003,0.054,0.999,-0.183,2031745
-0.003,0.054,0.999,-0.183,2031749
-0.003,0.054,0.999,-0.244,2031753
-0.003,0.054,0.999,-0.366,2031757
-0.003,0.054,0.999,-0.366,2031761
-0.004,0.053,0.998,-0.244,2031765
-0.004,0.053,0.998,-0.244,2031769
-0.005,0.054,1.0,-0.122,2031773
-0.005,0.054,1.0,-0.305,2031777
-0.005,0.054,1.0,-0.305,2031781
-0.004,0.052,0.999,-0.244,2031785
-0.004,0.052,0.999,-0.183,2031789
-0.002,0.052,0.999,-0.244,2031793
-0.002,0.052,0.999,-0.122,2031797
-0.002,0.052,0.999,-0.122,2031801
-0.004,0.052,1.0,-0.244,2031805
-0.004,0.052,1.0,-0.305,2031809
-0.004,0.053,0.999,-0.244,2031813
-0.004,0.053,0.999,0.0,2031817
-0.004,0.053,0.999,0.0,2031820
-0.005,0.052,0.999,-0.244,2031824
-0.005,0.052,0.999,-0.183,2031828
-0.004,0.052,1.0,-0.183,2031832
-0.004,0.052,1.0,-0.244,2031836
-0.004,0.052,1.0,-0.244,2031840
-0.005,0.052,0.999,-0.244,2031844
-0.005,0.052,0.999,-0.244,2031848
-0.006,0.054,1.0,-0.244,2031852
-0.006,0.054,1.0,-0.183,2031856
-0.006,0.054,1.0,-0.183,2031860
-0.004,0.054,0.998,-0.183,2031864
-0.004,0.054,0.998,-0.122,2031868
-0.005,0.053,0.998,-0.122,2031872
-0.005,0.053,0.998,-0.183,2031876
-0.005,0.053,0.998,-0.183,2031880
-0.003,0.053,0.999,-0.244,2031884
-0.003,0.053,0.999,-0.122,2031888
-0.003,0.054,1.0,-0.244,2031892
-0.003,0.054,1.0,-0.183,2031896
-0.003,0.054,1.0,-0.183,2031900
-0.004,0.054,0.998,-0.244,2031904
-0.004,0.054,0.998,-0.244,2031908
-0.004,0.054,0.998,-0.244,2031912
-0.004,0.054,0.998,-0.305,2031916
-0.004,0.054,0.998,-0.305,2031920
-0.002,0.053,1.0,-0.366,2031924
-0.002,0.053,1.0,-0.122,2031928
-0.003,0.053,0.999,-0.244,2031932
-0.003,0.053,0.999,-0.183,2031936
-0.003,0.053,0.999,-0.183,2031940
-0.004,0.053,0.999,-0.183,2031943
-0.004,0.053,0.999,-0.183,2031947
-0.006,0.053,0.998,-0.244,2031951
-0.006,0.053,0.998,-0.122,2031955
-0.006,0.053,0.998,-0.122,2031959
-0.005,0.055,1.0,-0.122,2031963
-0.005,0.055,1.0,-0.183,2031967
-0.004,0.053,0.999,-0.244,2031971
-0.004,0.053,0.999,-0.244,2031975
-0.004,0.053,0.999,-0.244,2031979
-0.003,0.054,0.997,-0.244,2031983
-0.003,0.054,0.997,-0.244,2031987
-0.004,0.053,0.999,-0.366,2031991
-0.004,0.053,0.999,-0.183,2031995
-0.004,0.053,0.999,-0.183,2031999
-0.003,0.052,0.999,-0.183,2032003
-0.003,0.052,0.999,-0.305,2032007
-0.005,0.054,0.999,-0.366,2032011
-0.005,0.054,0.999,-0.305,2032015
-0.005,0.054,0.999,-0.305,2032019
-0.006,0.054,0.999,-0.122,2032023
-0.006,0.054,0.999,-0.122,2032027
-0.004,0.053,1.0,-0.183,2032031
-0.004,0.053,1.0,-0.122,2032035
-0.004,0.053,1.0,-0.122,2032039
-0.004,0.053,0.999,-0.122,2032043
-0.004,0.053,0.999,-0.183,2032047
-0.004,0.053,0.998,-0.305,2032051
-0.004,0.053,0.998,-0.122,2032055
-0.004,0.053,0.998,-0.122,2032059
-0.004,0.053,0.999,-0.183,2032063
-0.004,0.053,0.999,-0.244,2032066
-0.003,0.054,0.998,-0.305,2032070
-0.003,0.054,0.998,-0.244,2032074
-0.003,0.054,0.998,-0.244,2032078
-0.004,0.053,0.999,-0.305,2032082
-0.004,0.053,0.999,-0.305,2032086
-0.004,0.053,0.999,-0.244,2032090
-0.004,0.053,0.999,-0.183,2032094
-0.004,0.053,0.999,-0.183,2032098
-0.004,0.054,1.0,-0.305,2032102
-0.004,0.054,1.0,-0.244,2032106
-0.004,0.053,0.999,-0.244,2032110
-0.004,0.053,0.999,-0.244,2032114
-0.004,0.053,0.999,-0.244,2032118
-0.004,0.053,0.998,-0.305,2032122
-0.004,0.053,0.998,-0.122,2032126
-0.005,0.053,0.999,-0.122,2032130
-0.005,0.053,0.999,-0.183,2032134
-0.005,0.053,0.999,-0.183,2032138
-0.005,0.052,0.999,-0.244,2032142
-0.005,0.052,0.999,-0.183,2032146
-0.006,0.052,0.999,-0.244,2032150
-0.006,0.052,0.999,-0.244,2032154
-0.006,0.052,0.999,-0.244,2032158
-0.005,0.052,0.999,-0.122,2032162
-0.005,0.052,0.999,-0.366,2032166
-0.006,0.052,0.999,-0.427,2032170
-0.006,0.052,0.999,-0.244,2032174
-0.006,0.052,0.999,-0.244,2032178
-0.003,0.053,1.0,-0.183,2032182
-0.003,0.053,1.0,-0.244,2032186
-0.005,0.053,0.998,-0.122,2032190
-0.005,0.053,0.998,-0.061,2032194
-0.005,0.053,0.998,-0.061,2032198
-0.005,0.053,0.998,-0.122,2032202
-0.005,0.053,0.998,-0.183,2032205
-0.006,0.053,1.002,-0.183,2032209
-0.006,0.053,1.002,-0.305,2032213
-0.006,0.053,1.002,-0.305,2032217
-0.005,0.054,1.001,-0.244,2032221
-0.005,0.054,1.001,-0.183,2032225
-0.005,0.053,0.998,-0.183,2032229
-0.005,0.053,0.998,-0.183,2032233
-0.005,0.053,0.998,-0.183,2032237
-0.004,0.053,0.998,-0.183,2032241
-0.004,0.053,0.998,-0.122,2032245
-0.003,0.054,1.0,-0.061,2032249
-0.003,0.054,1.0,-0.183,2032253
-0.003,0.054,1.0,-0.183,2032257
-0.003,0.054,0.999,-0.366,2032261
-0.003,0.054,0.999,-0.305,2032265
-0.004,0.054,1.0,0.0,2032269
-0.004,0.054,1.0,-0.183,2032273
-0.004,0.054,1.0,-0.183,2032277
-0.004,0.053,0.999,-0.305,2032281
-0.004,0.053,0.999,-0.183,2032285
-0.004,0.052,0.998,-0.305,2032289
-0.004,0.052,0.998,-0.061,2032293
-0.004,0.052,0.998,-0.061,2032297
-0.005,0.052,1.0,-0.244,2032301
-0.005,0.052,1.0,-0.122,2032305
-0.004,0.053,1.001,-0.122,2032309
-0.004,0.053,1.001,-0.183,2032313
-0.004,0.053,1.001,-0.183,2032316
-0.005,0.053,0.998,-0.183,2032320
-0.005,0.053,0.998,-0.122,2032324
-0.004,0.052,1.0,-0.183,2032328
-0.004,0.052,1.0,-0.244,2032332
-0.004,0.052,1.0,-0.244,2032336
-0.005,0.053,0.999,-0.183,2032340
-0.005,0.053,0.999,-0.244,2032344
-0.004,0.052,1.0,-0.183,2032348
-0.004,0.052,1.0,-0.122,2032352
-0.004,0.052,1.0,-0.122,2032356
-0.004,0.052,0.999,-0.183,2032360
-0.004,0.052,0.999,-0.122,2032364
-0.003,0.053,0.997,-0.122,2032368
-0.003,0.053,0.997,-0.244,2032372
-0.003,0.053,0.997,-0.244,2032376
-0.004,0.052,1.0,-0.122,2032380
-0.004,0.052,1.0,-0.122,2032384
-0.005,0.053,1.0,-0.122,2032388
-0.005,0.053,1.0,-0.061,2032392
-0.005,0.053,1.0,-0.061,2032396
-0.005,0.054,0.999,-0.183,2032400
-0.005,0.054,0.999,-0.244,2032404
-0.004,0.054,1.001,-0.244,2032408
-0.004,0.054,1.001,-0.244,2032412
-0.004,0.054,1.001,-0.244,2032416
-0.004,0.053,0.999,-0.305,2032420
-0.004,0.053,0.999,-0.122,2032424
-0.004,0.055,0.998,-0.122,2032428
-0.004,0.055,0.998,-0.305,2032432
-0.004,0.055,0.998,-0.305,2032436
-0.003,0.053,0.998,-0.183,2032440
-0.003,0.053,0.998,-0.183,2032444
-0.004,0.053,0.999,-0.305,2032448
-0.004,0.053,0.999,-0.183,2032452
-0.004,0.053,0.999,-0.183,2032456
-0.005,0.054,1.0,-0.183,2032460
-0.005,0.054,1.0,-0.183,2032463
-0.004,0.053,0.998,-0.244,2032467
-0.004,0.053,0.998,-0.244,2032471
-0.004,0.053,0.998,-0.244,2032475
-0.004,0.054,0.999,-0.244,2032479
-0.004,0.054,0.999,-0.244,2032483
-0.005,0.053,1.0,-0.183,2032487
-0.005,0.053,1.0,-0.061,2032491
-0.005,0.053,1.0,-0.061,2032495
-0.004,0.053,1.0,-0.183,2032499
-0.004,0.053,1.0,-0.305,2032503
-0.003,0.053,0.999,-0.122,2032507
-0.003,0.053,0.999,-0.122,2032511
-0.003,0.053,0.999,-0.122,2032515
-0.003,0.052,0.999,-0.183,2032519
-0.003,0.052,0.999,-0.183,2032523
-0.004,0.051,1.0,-0.183,2032527
-0.004,0.051,1.0,-0.244,2032531
-0.004,0.051,1.0,-0.244,2032535
-0.004,0.052,0.999,-0.244,2032539
-0.004,0.052,0.999,-0.305,2032543
-0.005,0.053,0.999,-0.244,2032547
-0.005,0.053,0.999,-0.244,2032551
-0.005,0.053,0.999,-0.244,2032555
-0.003,0.052,0.999,-0.183,2032559
-0.003,0.052,0.999,-0.183,2032563
-0.005,0.051,0.998,-0.183,2032567
-0.005,0.051,0.998,-0.244,2032571
-0.005,0.051,0.998,-0.244,2032575
-0.004,0.053,0.999,-0.244,2032579
-0.004,0.053,0.999,-0.244,2032583
-0.004,0.052,1.001,-0.244,2032587
-0.004,0.052,1.001,-0.183,2032591
-0.004,0.052,1.001,-0.183,2032595
-0.003,0.054,0.998,-0.244,2032598
-0.003,0.054,0.998,-0.244,2032602
-0.003,0.054,0.998,-0.366,2032606
-0.003,0.054,0.998,-0.122,2032610
-0.003,0.054,0.998,-0.122,2032614
-0.004,0.053,0.998,-0.122,2032618
-0.004,0.053,0.998,-0.305,2032622
-0.002,0.054,0.997,-0.366,2032626
-0.002,0.054,0.997,-0.366,2032630
-0.002,0.054,0.997,-0.366,2032634
-0.004,0.053,0.998,-0.122,2032638
-0.004,0.053,0.998,-0.183,2032642
-0.004,0.054,1.0,-0.244,2032646
-0.004,0.054,1.0,-0.183,2032650
-0.004,0.054,1.0,-0.183,2032654
-0.005,0.055,0.999,-0.244,2032658
-0.005,0.055,0.999,-0.183,2032662
-0.004,0.054,0.998,-0.244,2032666
-0.004,0.054,0.998,-0.183,2032670
-0.004,0.054,0.998,-0.183,2032674
-0.005,0.052,1.0,-0.122,2032678
-0.005,0.052,1.0,-0.244,2032682
-0.004,0.052,1.0,-0.244,2032686
-0.004,0.052,1.0,-0.183,2032690
-0.004,0.052,1.0,-0.183,2032694
-0.005,0.053,1.0,-0.305,2032698
-0.005,0.053,1.0,-0.183,2032702
-0.003,0.052,1.0,-0.122,2032706
-0.003,0.052,1.0,-0.122,2032710
-0.003,0.052,1.0,-0.122,2032714
-0.002,0.052,0.999,-0.183,2032718
-0.002,0.052,0.999,-0.244,2032722
-0.004,0.052,1.0,-0.183,2032726
-0.004,0.052,1.0,-0.305,2032730
-0.004,0.052,1.0,-0.305,2032734
-0.003,0.053,0.998,-0.305,2032737
-0.003,0.053,0.998,-0.244,2032741
-0.002,0.054,1.0,-0.244,2032745
-0.002,0.054,1.0,-0.244,2032749
-0.002,0.054,1.0,-0.244,2032753
-0.003,0.052,1.0,-0.244,2032757
-0.003,0.052,1.0,-0.183,2032761
-0.003,0.052,0.998,-0.122,2032765
-0.003,0.052,0.998,-0.244,2032769
-0.003,0.052,0.998,-0.244,2032773
-0.003,0.053,1.0,-0.183,2032777
-0.003,0.053,1.0,-0.122,2032781
-0.004,0.053,0.999,-0.244,2032785
-0.004,0.053,0.999,-0.244,2032789
-0.004,0.053,0.999,-0.244,2032793
-0.003,0.053,1.0,-0.122,2032797
-0.003,0.053,1.0,-0.183,2032801
-0.005,0.053,1.0,-0.183,2032805
-0.005,0.053,1.0,-0.183,2032809
-0.005,0.053,1.0,-0.183,2032813
-0.003,0.052,0.999,-0.183,2032817
-0.003,0.052,0.999,-0.183,2032821
-0.003,0.054,1.0,-0.122,2032825
-0.003,0.054,1.0,-0.244,2032829
-0.003,0.054,1.0,-0.244,2032833
-0.006,0.055,0.999,-0.305,2032837
-0.006,0.055,0.999,-0.244,2032841
-0.005,0.054,0.999,-0.244,2032845
-0.005,0.054,0.999,-0.305,2032849
-0.005,0.054,0.999,-0.305,2032853
-0.005,0.053,1.0,-0.183,2032857
-0.005,0.053,1.0,-0.122,2032861
-0.002,0.053,1.0,-0.122,2032865
-0.002,0.053,1.0,-0.183,2032869
-0.002,0.053,1.0,-0.183,2032873
-0.005,0.052,0.999,-0.183,2032876
-0.005,0.052,0.999,-0.244,2032880
-0.006,0.054,0.999,-0.122,2032884
-0.006,0.054,0.999,-0.244,2032888
-0.006,0.054,0.999,-0.244,2032892
-0.007,0.055,0.998,-0.183,2032896
-0.007,0.055,0.998,-0.061,2032900
-0.005,0.052,0.998,-0.183,2032904
-0.005,0.052,0.998,-0.244,2032908
-0.005,0.052,0.998,-0.244,2032912
-0.003,0.052,0.998,-0.244,2032916
-0.003,0.052,0.998,-0.244,2032920
-0.005,0.054,0.999,-0.244,2032924
-0.005,0.054,0.999,-0.244,2032928
-0.005,0.054,0.999,-0.244,2032932
-0.006,0.054,1.0,-0.183,2032936
-0.006,0.054,1.0,-0.122,2032940
-0.004,0.053,1.0,-0.183,2032944
-0.004,0.053,1.0,-0.183,2032948
-0.004,0.053,1.0,-0.183,2032952
-0.003,0.054,1.0,-0.183,2032956
-0.003,0.054,1.0,-0.244,2032960
-0.004,0.052,0.999,-0.305,2032964
-0.004,0.052,0.999,-0.366,2032968
-0.004,0.052,0.999,-0.366,2032972
-0.003,0.054,0.999,-0.244,2032976
-0.003,0.054,0.999,-0.305,2032980
-0.004,0.055,1.002,-0.122,2032984
-0.004,0.055,1.002,-0.244,2032988
-0.004,0.055,1.002,-0.244,2032992
-0.004,0.053,1.003,-0.366,2032996
-0.004,0.053,1.003,-0.183,2033000
-0.002,0.053,1.0,-0.122,2033003
-0.002,0.053,1.0,-0.244,2033007
-0.002,0.053,1.0,-0.244,2033011
-0.002,0.054,1.0,-0.183,2033015
-0.002,0.054,1.0,-0.183,2033019
-0.003,0.052,0.999,-0.366,2033023
-0.003,0.052,0.999,-0.366,2033027
-0.003,0.052,0.999,-0.366,2033031
-0.003,0.052,0.997,-0.183,2033035
-0.003,0.052,0.997,-0.183,2033039
-0.003,0.052,0.998,-0.061,2033043
-0.003,0.052,0.998,-0.122,2033047
-0.003,0.052,0.998,-0.122,2033051
-0.005,0.054,1.0,-0.122,2033055
-0.005,0.054,1.0,-0.061,2033059
-0.004,0.053,0.999,-0.244,2033063
-0.004,0.053,0.999,-0.305,2033067
-0.004,0.053,0.999,-0.305,2033071
-0.004,0.054,1.001,-0.183,2033075
-0.004,0.054,1.001,-0.122,2033079
-0.005,0.052,0.999,-0.244,2033083
-0.005,0.052,0.999,-0.183,2033087
-0.005,0.052,0.999,-0.183,2033091
-0.005,0.053,0.999,-0.244,2033095
-0.005,0.053,0.999,-0.122,2033099
-0.005,0.052,1.0,-0.183,2033103
-0.005,0.052,1.0,-0.305,2033107
-0.005,0.052,1.0,-0.305,2033111
-0.005,0.053,0.998,-0.244,2033115
-0.005,0.053,0.998,-0.244,2033119
-0.004,0.053,0.999,-0.244,2033123
-0.004,0.053,0.999,-0.183,2033126
-0.004,0.053,0.999,-0.183,2033130
-0.004,0.053,0.998,-0.061,2033134
-0.004,0.053,0.998,-0.061,2033138
-0.005,0.053,0.998,0.0,2033142
-0.005,0.053,0.998,-0.122,2033146
-0.005,0.053,0.998,-0.122,2033150
-0.004,0.054,1.0,-0.061,2033154
-0.004,0.054,1.0,-0.244,2033158
-0.005,0.054,0.999,-0.244,2033162
-0.005,0.054,0.999,-0.183,2033166
-0.005,0.054,0.999,-0.183,2033170
-0.004,0.054,0.998,-0.244,2033174
-0.004,0.054,0.998,-0.122,2033178
-0.003,0.055,0.997,-0.183,2033182
-0.003,0.055,0.997,-0.244,2033186
-0.003,0.055,0.997,-0.244,2033190
-0.005,0.053,0.997,-0.183,2033194
-0.005,0.053,0.997,-0.183,2033198
-0.004,0.052,0.999,-0.183,2033202
-0.004,0.052,0.999,-0.183,2033206
-0.004,0.052,0.999,-0.183,2033210
-0.004,0.053,1.0,-0.183,2033214
-0.004,0.053,1.0,-0.183,2033218
-0.005,0.053,1.0,-0.244,2033222
-0.005,0.053,1.0,-0.183,2033226
-0.005,0.053,1.0,-0.183,2033230
-0.002,0.052,0.999,-0.122,2033234
-0.002,0.052,0.999,-0.122,2033238
-0.004,0.05,0.998,0.0,2033241
-0.004,0.05,0.998,-0.183,2033245
-0.004,0.05,0.998,-0.183,2033249
-0.003,0.052,0.999,-0.061,2033253
-0.003,0.052,0.999,-0.061,2033257
-0.006,0.052,0.998,-0.122,2033261
-0.006,0.052,0.998,-0.183,2033265
-0.006,0.052,0.998,-0.183,2033269
-0.005,0.052,1.0,-0.183,2033273
-0.005,0.052,1.0,-0.122,2033277
-0.005,0.052,1.0,-0.122,2033281
-0.005,0.052,1.0,-0.366,2033285
-0.005,0.052,1.0,-0.366,2033289
-0.005,0.053,1.0,-0.244,2033293
-0.005,0.053,1.0,-0.244,2033297
-0.002,0.053,0.999,-0.183,2033301
-0.002,0.053,0.999,-0.061,2033305
-0.002,0.053,0.999,-0.061,2033309
-0.004,0.053,0.999,-0.244,2033313
-0.004,0.053,0.999,-0.183,2033317
-0.005,0.053,0.998,-0.183,2033321
-0.005,0.053,0.998,-0.183,2033325
-0.005,0.053,0.998,-0.183,2033329
-0.005,0.052,0.999,-0.305,2033333
-0.005,0.052,0.999,-0.366,2033337
-0.004,0.053,0.998,-0.305,2033341
-0.004,0.053,0.998,-0.244,2033345
-0.004,0.053,0.998,-0.244,2033349
-0.005,0.051,0.999,-0.183,2033353
-0.005,0.051,0.999,-0.244,2033357
-0.005,0.053,1.0,-0.122,2033361
-0.005,0.053,1.0,-0.183,2033365
-0.005,0.053,1.0,-0.183,2033369
-0.005,0.054,0.999,-0.244,2033373
-0.005,0.054,0.999,-0.183,2033376
-0.004,0.054,0.999,-0.244,2033380
-0.004,0.054,0.999,-0.366,2033384
-0.004,0.054,0.999,-0.366,2033388
-0.005,0.053,0.999,-0.305,2033392
-0.005,0.053,0.999,-0.244,2033396
-0.004,0.053,0.999,-0.061,2033400
-0.004,0.053,0.999,-0.183,2033404
-0.004,0.053,0.999,-0.183,2033408
-0.003,0.053,1.0,-0.244,2033412
-0.003,0.053,1.0,-0.305,2033416
-0.004,0.052,1.001,-0.183,2033420
-0.004,0.052,1.001,-0.305,2033424
-0.004,0.052,1.001,-0.305,2033428
-0.005,0.052,0.998,-0.122,2033432
-0.005,0.052,0.998,-0.122,2033436
-0.004,0.052,0.999,-0.244,2033440
-0.004,0.052,0.999,-0.122,2033444
-0.004,0.052,0.999,-0.122,2033448
-0.004,0.052,1.002,-0.122,2033452
-0.004,0.052,1.002,-0.183,2033456
-0.004,0.053,1.0,-0.061,2033460
-0.004,0.053,1.0,-0.061,2033464
-0.004,0.053,1.0,-0.061,2033468
-0.003,0.052,1.0,-0.183,2033472
-0.003,0.052,1.0,-0.183,2033476
-0.005,0.053,1.0,-0.183,2033480
-0.005,0.053,1.0,-0.244,2033484
-0.005,0.053,1.0,-0.244,2033488
-0.004,0.053,1.0,-0.183,2033492
-0.004,0.053,1.0,-0.183,2033496
-0.003,0.053,1.002,-0.122,2033500
-0.003,0.053,1.002,-0.183,2033504
-0.003,0.053,1.002,-0.183,2033508
-0.003,0.053,1.0,-0.183,2033512
-0.003,0.053,1.0,-0.305,2033515
-0.002,0.053,0.998,-0.122,2033519
-0.002,0.053,0.998,-0.122,2033523
-0.002,0.053,0.998,-0.122,2033527
-0.002,0.053,1.0,-0.183,2033531
-0.002,0.053,1.0,-0.183,2033535
-0.003,0.053,0.998,-0.244,2033539
-0.003,0.053,0.998,-0.122,2033543
-0.003,0.053,0.998,-0.122,2033547
-0.003,0.054,0.998,-0.061,2033551
-0.003,0.054,0.998,-0.244,2033555
-0.003,0.053,0.998,-0.122,2033559
-0.003,0.053,0.998,-0.122,2033563
-0.003,0.053,0.998,-0.122,2033567
-0.002,0.052,0.999,-0.244,2033571
-0.002,0.052,0.999,-0.366,2033575
-0.003,0.053,1.0,-0.244,2033579
-0.003,0.053,1.0,-0.183,2033583
-0.003,0.053,1.0,-0.183,2033587
-0.004,0.054,1.0,-0.244,2033591
-0.004,0.054,1.0,-0.305,2033595
-0.005,0.054,0.998,-0.122,2033599
-0.005,0.054,0.998,-0.122,2033603
-0.005,0.054,0.998,-0.122,2033607
-0.005,0.053,0.999,-0.244,2033611
-0.005,0.053,0.999,-0.183,2033615
-0.004,0.053,0.999,-0.183,2033619
-0.004,0.053,0.999,-0.244,2033623
-0.004,0.053,0.999,-0.244,2033627
-0.005,0.053,1.0,-0.244,2033631
-0.005,0.053,1.0,-0.183,2033635
-0.004,0.053,0.999,-0.061,2033639
-0.004,0.053,0.999,-0.122,2033643
-0.004,0.053,0.999,-0.122,2033646
-0.003,0.052,0.998,-0.305,2033650
-0.003,0.052,0.998,-0.244,2033654
-0.004,0.054,0.999,-0.244,2033658
-0.004,0.054,0.999,-0.061,2033662
-0.004,0.054,0.999,-0.061,2033666
-0.003,0.054,0.998,-0.122,2033670
-0.003,0.054,0.998,-0.305,2033674
-0.002,0.052,1.0,-0.183,2033678
-0.002,0.052,1.0,-0.183,2033682
-0.002,0.052,1.0,-0.183,2033686
-0.005,0.054,1.0,-0.122,2033690
-0.005,0.054,1.0,-0.244,2033694
-0.005,0.053,1.0,-0.183,2033698
-0.005,0.053,1.0,-0.244,2033702
-0.005,0.053,1.0,-0.244,2033706
-0.004,0.053,0.999,-0.244,2033710
-0.004,0.053,0.999,-0.244,2033714
-0.002,0.054,1.001,-0.183,2033718
-0.002,0.054,1.001,-0.122,2033722
-0.002,0.054,1.001,-0.122,2033726
-0.002,0.053,1.0,-0.183,2033730
-0.002,0.053,1.0,-0.122,2033734
-0.003,0.054,1.0,0.061,2033738
-0.003,0.054,1.0,-0.122,2033742
-0.003,0.054,1.0,-0.122,2033746
-0.002,0.053,0.999,-0.366,2033750
-0.002,0.053,0.999,-0.305,2033754
-0.005,0.053,0.998,-0.305,2033758
-0.005,0.053,0.998,-0.244,2033762
-0.005,0.053,0.998,-0.244,2033766
-0.005,0.053,1.0,-0.183,2033770
-0.005,0.053,1.0,-0.305,2033774
-0.005,0.053,0.999,-0.244,2033778
-0.005,0.053,0.999,-0.122,2033781
-0.005,0.053,0.999,-0.122,2033785
-0.004,0.052,1.0,-0.061,2033789
-0.004,0.052,1.0,-0.122,2033793
-0.006,0.051,1.0,-0.183,2033797
-0.006,0.051,1.0,-0.305,2033801
-0.006,0.051,1.0,-0.305,2033805
-0.004,0.051,1.0,-0.244,2033809
-0.004,0.051,1.0,-0.183,2033813
-0.005,0.052,1.0,-0.183,2033817
-0.005,0.052,1.0,-0.305,2033821
-0.005,0.052,1.0,-0.305,2033825
-0.005,0.054,0.999,-0.244,2033829
-0.005,0.054,0.999,-0.244,2033833
-0.004,0.053,1.001,-0.305,2033837
-0.004,0.053,1.001,-0.305,2033841
-0.004,0.053,1.001,-0.305,2033845
-0.005,0.053,0.998,-0.244,2033849
-0.005,0.053,0.998,-0.183,2033853
-0.004,0.054,0.997,-0.244,2033857
-0.004,0.054,0.997,-0.244,2033861
-0.004,0.054,0.997,-0.244,2033865
-0.004,0.054,1.001,-0.183,2033869
-0.004,0.054,1.001,-0.122,2033873
-0.005,0.054,1.0,-0.183,2033877
-0.005,0.054,1.0,-0.183,2033881
-0.005,0.054,1.0,-0.183,2033885
-0.005,0.054,0.999,-0.244,2033889
-0.005,0.054,0.999,-0.183,2033893
-0.005,0.052,0.999,-0.183,2033897
-0.005,0.052,0.999,-0.244,2033901
-0.005,0.052,0.999,-0.244,2033905
-0.004,0.054,1.0,-0.183,2033908
-0.004,0.054,1.0,-0.183,2033912
-0.005,0.053,0.999,-0.183,2033916
-0.005,0.053,0.999,-0.183,2033920
-0.005,0.053,0.999,-0.183,2033924
-0.005,0.053,0.999,-0.122,2033928
-0.005,0.053,0.999,-0.183,2033932
-0.006,0.054,0.999,-0.244,2033936
-0.006,0.054,0.999,-0.305,2033940
-0.006,0.054,0.999,-0.305,2033944
-0.002,0.054,0.999,-0.183,2033948
-0.002,0.054,0.999,-0.305,2033952
-0.003,0.052,1.0,-0.244,2033956
-0.003,0.052,1.0,-0.122,2033960
-0.003,0.052,1.0,-0.122,2033964
-0.004,0.052,0.999,-0.122,2033968
-0.004,0.052,0.999,-0.122,2033972
-0.006,0.053,0.999,-0.244,2033976
-0.006,0.053,0.999,-0.183,2033980
-0.006,0.053,0.999,-0.183,2033984
-0.005,0.053,0.998,-0.305,2033988
-0.005,0.053,0.998,-0.183,2033992
-0.004,0.053,1.001,-0.183,2033996
-0.004,0.053,1.001,-0.183,2034000
-0.004,0.053,1.001,-0.183,2034004
-0.004,0.053,1.001,-0.305,2034008
-0.004,0.053,1.001,-0.244,2034012
-0.006,0.053,0.999,-0.305,2034016
-0.006,0.053,0.999,-0.305,2034020
-0.006,0.053,0.999,-0.305,2034024
-0.004,0.054,0.999,-0.244,2034028
-0.004,0.054,0.999,-0.122,2034031
-0.004,0.054,0.998,-0.122,2034035
-0.004,0.054,0.998,-0.305,2034039
-0.004,0.054,0.998,-0.305,2034043
-0.003,0.052,1.0,-0.244,2034047
-0.003,0.052,1.0,-0.122,2034051
-0.004,0.053,0.999,-0.183,2034055
-0.004,0.053,0.999,-0.183,2034059
-0.004,0.053,0.999,-0.183,2034063
-0.003,0.054,1.0,-0.183,2034067
-0.003,0.054,1.0,-0.122,2034071
-0.003,0.053,0.999,-0.244,2034075
-0.003,0.053,0.999,-0.305,2034079
-0.003,0.053,0.999,-0.305,2034083
-0.003,0.053,0.997,-0.244,2034087
-0.003,0.053,0.997,-0.244,2034091
-0.003,0.054,0.998,-0.244,2034095
-0.003,0.054,0.998,-0.305,2034099
-0.003,0.054,0.998,-0.305,2034103
-0.004,0.054,1.0,-0.061,2034107
-0.004,0.054,1.0,-0.061,2034111
-0.005,0.052,1.0,-0.122,2034115
-0.005,0.052,1.0,-0.244,2034119
-0.005,0.052,1.0,-0.244,2034123
-0.004,0.053,0.999,-0.244,2034127
-0.004,0.053,0.999,-0.305,2034131
-0.003,0.053,0.999,-0.305,2034135
-0.003,0.053,0.999,-0.244,2034139
-0.003,0.053,0.999,-0.244,2034143
-0.006,0.052,0.999,-0.305,2034147
-0.006,0.052,0.999,-0.183,2034151
-0.005,0.053,1.0,-0.061,2034155
-0.005,0.053,1.0,-0.183,2034159
-0.005,0.053,1.0,-0.183,2034162
-0.006,0.054,0.999,-0.366,2034166
-0.006,0.054,0.999,-0.305,2034170
-0.005,0.053,0.999,-0.122,2034174
-0.005,0.053,0.999,-0.183,2034178
-0.005,0.053,0.999,-0.183,2034182
-0.005,0.054,0.998,-0.183,2034186
-0.005,0.054,0.998,-0.183,2034190
-0.003,0.053,0.998,-0.183,2034194
-0.003,0.053,0.998,-0.122,2034198
-0.003,0.053,0.998,-0.122,2034202
-0.004,0.054,1.001,-0.183,2034206
-0.004,0.054,1.001,-0.305,2034210
-0.004,0.053,1.0,-0.244,2034214
-0.004,0.053,1.0,-0.122,2034218
-0.004,0.053,1.0,-0.122,2034222
-0.004,0.053,1.001,-0.122,2034226
-0.004,0.053,1.001,-0.183,2034230
-0.004,0.052,0.999,-0.244,2034234
-0.004,0.052,0.999,-0.183,2034238
-0.004,0.052,0.999,-0.183,2034242
-0.003,0.052,0.999,-0.122,2034246
-0.003,0.052,0.999,-0.183,2034250
-0.001,0.054,0.997,-0.122,2034254
-0.001,0.054,0.997,-0.122,2034258
-0.001,0.054,0.997,-0.122,2034262
-0.003,0.054,0.998,-0.183,2034266
-0.003,0.054,0.998,-0.244,2034270
-0.005,0.053,1.001,-0.183,2034274
-0.005,0.053,1.001,-0.244,2034278
-0.005,0.053,1.001,-0.244,2034282
-0.004,0.053,1.0,-0.244,2034286
-0.004,0.053,1.0,-0.183,2034289
-0.004,0.054,1.0,-0.183,2034293
-0.004,0.054,1.0,-0.305,2034297
-0.004,0.054,1.0,-0.305,2034301
-0.003,0.054,1.0,-0.183,2034305
-0.003,0.054,1.0,-0.244,2034309
-0.003,0.052,1.0,-0.244,2034313
-0.003,0.052,1.0,-0.244,2034317
-0.003,0.052,1.0,-0.244,2034321
-0.004,0.053,0.999,-0.183,2034325
-0.004,0.053,0.999,-0.183,2034329
-0.005,0.054,0.998,-0.122,2034333
-0.005,0.054,0.998,-0.061,2034337
-0.005,0.054,0.998,-0.061,2034341
-0.005,0.052,0.999,-0.183,2034345
-0.005,0.052,0.999,-0.183,2034349
-0.003,0.054,1.0,-0.244,2034353
-0.003,0.054,1.0,-0.183,2034357
-0.003,0.054,1.0,-0.183,2034361
-0.006,0.053,0.997,-0.061,2034365
-0.006,0.053,0.997,-0.305,2034369
-0.006,0.052,0.997,-0.183,2034373
-0.006,0.052,0.997,-0.122,2034377
-0.006,0.052,0.997,-0.122,2034381
-0.004,0.053,0.999,-0.183,2034385
-0.004,0.053,0.999,-0.305,2034389
-0.006,0.055,0.999,-0.244,2034393
-0.006,0.055,0.999,-0.122,2034397
-0.006,0.055,0.999,-0.122,2034401
-0.003,0.053,0.999,-0.244,2034405
-0.003,0.053,0.999,-0.244,2034409
-0.003,0.052,0.998,-0.244,2034413
-0.003,0.052,0.998,-0.244,2034416
-0.003,0.052,0.998,-0.244,2034420
-0.003,0.053,0.999,-0.244,2034424
-0.003,0.053,0.999,-0.122,2034428
-0.003,0.053,0.997,-0.061,2034432
-0.003,0.053,0.997,-0.305,2034436
-0.003,0.053,0.997,-0.305,2034440
-0.005,0.053,0.998,-0.244,2034444
-0.005,0.053,0.998,-0.305,2034448
-0.003,0.053,1.0,-0.305,2034452
-0.003,0.053,1.0,-0.305,2034456
-0.003,0.053,1.0,-0.305,2034460
-0.002,0.052,1.0,-0.122,2034464
-0.002,0.052,1.0,-0.122,2034468
-0.003,0.051,0.999,-0.183,2034472
-0.003,0.051,0.999,-0.183,2034476
-0.003,0.051,0.999,-0.183,2034480
-0.001,0.052,0.999,-0.183,2034484
-0.001,0.052,0.999,-0.244,2034488
-0.003,0.053,0.998,-0.122,2034492
-0.003,0.053,0.998,-0.183,2034496
-0.003,0.053,0.998,-0.183,2034500
-0.003,0.054,1.0,-0.244,2034504
-0.003,0.054,1.0,-0.305,2034508
-0.002,0.052,1.0,-0.183,2034512
-0.002,0.052,1.0,-0.122,2034516
-0.002,0.052,1.0,-0.122,2034520
-0.004,0.052,0.999,-0.305,2034524
-0.004,0.052,0.999,-0.244,2034528
-0.002,0.052,0.998,-0.183,2034532
-0.002,0.052,0.998,-0.122,2034536
-0.002,0.052,0.998,-0.122,2034540
-0.003,0.053,0.999,-0.244,2034544
-0.003,0.053,0.999,-0.122,2034547
-0.004,0.054,0.998,0.0,2034551
-0.004,0.054,0.998,-0.061,2034555
-0.004,0.054,0.998,-0.061,2034559
-0.004,0.054,0.999,-0.183,2034563
-0.004,0.054,0.999,-0.122,2034567
-0.003,0.054,1.0,-0.305,2034571
-0.003,0.054,1.0,-0.244,2034575
-0.003,0.054,1.0,-0.244,2034579
-0.004,0.054,0.998,-0.244,2034583
-0.004,0.054,0.998,-0.122,2034587
-0.006,0.054,0.999,-0.061,2034591
-0.006,0.054,0.999,-0.183,2034595
-0.006,0.054,0.999,-0.183,2034599
-0.005,0.054,0.998,-0.244,2034603
-0.005,0.054,0.998,-0.244,2034607
-0.006,0.055,0.998,-0.122,2034611
-0.006,0.055,0.998,-0.244,2034615
-0.006,0.055,0.998,-0.244,2034619
-0.004,0.054,1.0,-0.366,2034623
-0.004,0.054,1.0,-0.244,2034627
-0.004,0.052,1.0,-0.244,2034631
-0.004,0.052,1.0,-0.122,2034635
-0.004,0.052,1.0,-0.122,2034639
-0.005,0.053,0.999,-0.183,2034643
-0.005,0.053,0.999,-0.122,2034647
-0.005,0.054,0.997,-0.244,2034651
-0.005,0.054,0.997,-0.244,2034655
-0.005,0.054,0.997,-0.244,2034659
-0.004,0.054,0.998,-0.244,2034663
-0.004,0.054,0.998,-0.244,2034666
-0.004,0.054,0.999,-0.183,2034670
-0.004,0.054,0.999,-0.244,2034674
-0.004,0.054,0.999,-0.244,2034678
-0.004,0.052,0.999,-0.122,2034682
-0.004,0.052,0.999,-0.061,2034686
-0.004,0.052,1.0,-0.122,2034690
-0.004,0.052,1.0,-0.305,2034694
-0.004,0.052,1.0,-0.305,2034698
-0.003,0.052,1.0,-0.244,2034702
-0.003,0.052,1.0,-0.305,2034706
-0.004,0.053,0.999,-0.183,2034710
-0.004,0.053,0.999,-0.305,2034714
-0.004,0.053,0.999,-0.305,2034718
-0.004,0.054,1.0,-0.305,2034722
-0.004,0.054,1.0,-0.305,2034726
-0.004,0.054,0.999,-0.122,2034730
-0.004,0.054,0.999,-0.122,2034734
-0.004,0.054,0.999,-0.122,2034738
-0.004,0.053,0.999,-0.244,2034742
-0.004,0.053,0.999,-0.183,2034746
-0.003,0.053,0.999,-0.122,2034750
-0.003,0.053,0.999,-0.244,2034754
-0.003,0.053,0.999,-0.244,2034758
-0.002,0.053,0.999,-0.183,2034762
-0.002,0.053,0.999,-0.122,2034766
-0.003,0.054,1.0,-0.122,2034770
-0.003,0.054,1.0,-0.244,2034774
-0.003,0.054,1.0,-0.244,2034778
-0.004,0.054,0.999,-0.183,2034782
-0.004,0.054,0.999,-0.305,2034786
-0.004,0.053,1.0,-0.244,2034789
-0.004,0.053,1.0,-0.244,2034793
-0.004,0.053,1.0,-0.244,2034797
-0.006,0.053,0.999,-0.244,2034801
-0.006,0.053,0.999,-0.183,2034805
-0.005,0.053,0.998,-0.061,2034809
