Acc_X,Acc_Y,Acc_Z,Rot_Z,Millis
0.009,0.313,0.945,-0.366,1737075
0.009,0.313,0.945,-0.244,1737079
0.01,0.314,0.947,-0.244,1737083
0.01,0.314,0.947,-0.305,1737087
0.01,0.314,0.947,-0.305,1737091
0.01,0.313,0.946,-0.183,1737095
0.01,0.313,0.946,-0.183,1737099
0.008,0.312,0.945,-0.122,1737103
0.008,0.312,0.945,-0.244,1737107
0.008,0.313,0.945,-0.305,1737111
0.008,0.313,0.945,-0.305,1737115
0.008,0.313,0.945,-0.183,1737119
0.007,0.313,0.944,-0.305,1737123
0.007,0.313,0.944,-0.183,1737127
0.005,0.314,0.946,-0.183,1737131
0.005,0.314,0.946,-0.183,1737135
0.005,0.314,0.946,-0.244,1737139
0.006,0.314,0.947,-0.366,1737143
0.006,0.314,0.947,-0.305,1737147
0.008,0.313,0.944,-0.305,1737151
0.008,0.313,0.944,-0.305,1737155
0.008,0.313,0.944,-0.366,1737159
0.008,0.313,0.948,-0.244,1737163
0.008,0.313,0.948,-0.244,1737167
0.008,0.311,0.947,-0.183,1737171
0.008,0.311,0.947,-0.183,1737175
0.008,0.311,0.947,-0.183,1737178
0.008,0.311,0.946,-0.244,1737182
0.008,0.311,0.946,-0.366,1737186
0.009,0.313,0.947,-0.183,1737190
0.009,0.313,0.947,-0.183,1737194
0.009,0.313,0.947,-0.183,1737198
0.008,0.314,0.945,-0.061,1737202
0.008,0.314,0.945,-0.122,1737206
0.008,0.313,0.945,-0.305,1737210
0.008,0.313,0.945,-0.305,1737214
0.008,0.313,0.945,-0.183,1737218
0.008,0.313,0.944,-0.122,1737222
0.008,0.313,0.944,-0.122,1737226
0.007,0.315,0.945,-0.183,1737230
0.007,0.315,0.945,-0.183,1737234
0.007,0.315,0.945,-0.305,1737238
0.008,0.315,0.944,-0.244,1737242
0.008,0.315,0.944,-0.183,1737246
0.007,0.317,0.942,-0.122,1737250
0.007,0.317,0.942,-0.122,1737254
0.007,0.317,0.942,-0.183,1737258
0.006,0.316,0.944,-0.183,1737262
0.006,0.316,0.944,-0.305,1737266
0.005,0.315,0.945,-0.366,1737270
0.005,0.315,0.945,-0.366,1737274
0.005,0.315,0.945,-0.244,1737278
0.005,0.316,0.942,-0.305,1737282
0.005,0.316,0.942,-0.244,1737286
0.007,0.314,0.942,-0.244,1737290
0.007,0.314,0.942,-0.244,1737294
0.007,0.314,0.942,-0.244,1737298
0.004,0.314,0.942,-0.366,1737302
0.004,0.314,0.942,-0.183,1737306
0.004,0.315,0.944,-0.183,1737310
0.004,0.315,0.944,-0.183,1737314
0.004,0.315,0.944,-0.305,1737318
0.006,0.315,0.943,-0.122,1737322
0.006,0.315,0.943,-0.061,1737326
0.005,0.315,0.943,-0.244,1737330
0.005,0.315,0.943,-0.244,1737334
0.005,0.315,0.943,-0.244,1737338
0.003,0.313,0.943,-0.244,1737342
0.003,0.313,0.943,-0.244,1737346
0.004,0.312,0.945,-0.183,1737350
0.004,0.312,0.945,-0.183,1737354
0.004,0.312,0.945,-0.122,1737358
0.005,0.312,0.945,-0.122,1737362
0.005,0.312,0.945,-0.244,1737366
0.007,0.313,0.947,-0.122,1737370
0.007,0.313,0.947,-0.244,1737374
0.007,0.313,0.947,-0.244,1737378
0.006,0.312,0.948,-0.244,1737382
0.006,0.312,0.948,-0.183,1737386
0.008,0.311,0.946,-0.122,1737390
0.008,0.311,0.946,-0.122,1737394
0.008,0.311,0.946,-0.122,1737398
0.008,0.313,0.945,-0.183,1737402
0.008,0.313,0.945,-0.183,1737405
0.009,0.313,0.947,-0.183,1737409
0.009,0.313,0.947,-0.305,1737413
0.009,0.313,0.947,-0.305,1737417
0.01,0.313,0.946,-0.183,1737421
0.01,0.313,0.946,-0.183,1737425
0.011,0.313,0.946,-0.183,1737429
0.011,0.313,0.946,-0.244,1737433
0.011,0.313,0.946,-0.244,1737437
0.01,0.314,0.945,-0.122,1737441
0.01,0.314,0.945,-0.183,1737445
0.01,0.315,0.946,-0.183,1737449
0.01,0.315,0.946,-0.183,1737453
0.01,0.315,0.946,-0.183,1737457
0.011,0.315,0.946,-0.244,1737461
0.011,0.315,0.946,-0.183,1737465
0.009,0.315,0.946,-0.244,1737469
0.009,0.315,0.946,-0.305,1737473
0.009,0.315,0.946,-0.305,1737477
0.007,0.316,0.945,-0.244,1737481
0.007,0.316,0.945,-0.366,1737485
0.006,0.314,0.944,-0.366,1737489
0.006,0.314,0.944,-0.183,1737493
0.006,0.314,0.944,-0.183,1737497
0.005,0.314,0.944,-0.244,1737501
0.005,0.314,0.944,-0.366,1737505
0.007,0.315,0.943,-0.305,1737509
0.007,0.315,0.943,-0.122,1737513
0.007,0.315,0.943,-0.122,1737517
0.004,0.312,0.944,-0.122,1737521
0.004,0.312,0.944,-0.244,1737525
0.004,0.312,0.945,-0.244,1737529
0.004,0.312,0.945,-0.183,1737533
0.004,0.312,0.945,-0.183,1737537
0.006,0.314,0.945,-0.305,1737541
0.006,0.314,0.945,-0.183,1737545
0.007,0.314,0.944,-0.183,1737549
0.007,0.314,0.944,-0.244,1737553
0.007,0.314,0.944,-0.244,1737557
0.006,0.312,0.945,-0.183,1737561
0.006,0.312,0.945,-0.061,1737565
0.005,0.313,0.945,-0.183,1737569
0.005,0.313,0.945,-0.183,1737573
0.005,0.313,0.945,-0.183,1737577
0.007,0.314,0.945,-0.122,1737581
0.007,0.314,0.945,-0.122,1737585
0.008,0.312,0.946,-0.183,1737589
0.008,0.312,0.946,-0.122,1737593
0.008,0.312,0.946,-0.122,1737597
0.007,0.314,0.944,0.0,1737601
0.007,0.314,0.944,-0.061,1737605
0.009,0.313,0.946,-0.183,1737609
0.009,0.313,0.946,-0.183,1737613
0.011,0.315,0.947,-0.122,1737617
0.011,0.315,0.947,-0.122,1737621
0.011,0.315,0.947,-0.122,1737625
0.01,0.315,0.946,-0.122,1737629
0.01,0.315,0.946,-0.122,1737633
0.01,0.316,0.941,-0.183,1737637
0.01,0.316,0.941,-0.183,1737641
0.01,0.316,0.941,-0.305,1737645
0.011,0.315,0.943,-0.366,1737649
0.011,0.315,0.943,-0.061,1737653
0.009,0.312,0.942,0.0,1737656
0.009,0.312,0.942,0.0,1737660
0.009,0.312,0.942,-0.122,1737664
0.01,0.309,0.934,-0.122,1737668
0.01,0.309,0.934,-0.122,1737672
0.008,0.298,0.909,-0.061,1737676
0.008,0.298,0.909,-0.061,1737680
0.008,0.298,0.909,0.122,1737684
0.001,0.301,0.924,0.183,1737688
0.001,0.301,0.924,0.061,1737692
-0.004,0.343,1.038,0.061,1737696
-0.004,0.343,1.038,0.061,1737700
-0.004,0.343,1.038,-0.061,1737704
-0.0,0.338,0.998,-0.183,1737708
-0.0,0.338,0.998,-0.244,1737712
0.007,0.295,0.862,-0.366,1737716
0.007,0.295,0.862,-0.366,1737720
0.007,0.295,0.862,-0.061,1737724
0.016,0.309,0.903,0.305,1737728
0.016,0.309,0.903,-0.122,1737732
0.009,0.338,0.982,-0.183,1737736
0.009,0.338,0.982,-0.183,1737740
0.009,0.338,0.982,-1.038,1737744
0.005,0.325,0.943,-1.038,1737748
0.005,0.325,0.943,-0.427,1737752
0.016,0.31,0.943,-0.305,1737756
0.016,0.31,0.943,-0.305,1737760
0.016,0.31,0.943,-0.305,1737764
0.012,0.312,0.952,-0.244,1737768
0.012,0.312,0.952,-0.244,1737772
0.008,0.306,0.943,0.0,1737776
0.008,0.306,0.943,0.0,1737780
0.008,0.306,0.943,0.0,1737783
0.004,0.317,0.944,-0.366,1737787
0.004,0.317,0.944,-0.427,1737791
0.01,0.31,0.948,-0.427,1737795
0.01,0.31,0.948,-0.427,1737799
0.01,0.31,0.948,-0.122,1737803
0.011,0.308,0.948,0.0,1737807
0.011,0.308,0.948,-0.061,1737811
0.007,0.314,0.946,-0.183,1737815
0.007,0.314,0.946,-0.183,1737819
0.007,0.314,0.946,0.0,1737823
0.0,0.313,0.94,0.0,1737827
0.0,0.313,0.94,-0.183,1737831
0.002,0.314,0.945,-0.305,1737835
0.002,0.314,0.945,-0.305,1737839
0.002,0.314,0.945,-0.183,1737843
0.008,0.309,0.946,-0.183,1737847
0.008,0.309,0.946,-0.366,1737851
0.011,0.308,0.946,-0.183,1737855
0.011,0.308,0.946,-0.183,1737859
0.011,0.308,0.946,-0.122,1737863
0.007,0.313,0.952,-0.122,1737867
0.007,0.313,0.952,-0.122,1737871
0.005,0.309,0.949,-0.183,1737875
0.005,0.309,0.949,-0.183,1737879
0.005,0.309,0.949,-0.122,1737883
0.004,0.305,0.938,-0.305,1737887
0.004,0.305,0.938,0.0,1737891
0.005,0.31,0.947,-0.061,1737895
0.005,0.31,0.947,-0.061,1737899
0.005,0.31,0.947,-0.244,1737903
0.009,0.312,0.956,-0.305,1737907
0.009,0.312,0.956,-0.183,1737911
0.012,0.31,0.946,-0.183,1737915
0.012,0.31,0.946,-0.183,1737919
0.012,0.31,0.946,-0.183,1737923
0.011,0.311,0.943,-0.244,1737927
0.011,0.311,0.943,-0.122,1737931
0.01,0.312,0.946,-0.122,1737935
0.01,0.312,0.946,-0.122,1737939
0.01,0.312,0.946,-0.183,1737943
0.01,0.317,0.95,-0.183,1737947
0.01,0.317,0.95,-0.244,1737951
0.01,0.317,0.951,-0.183,1737954
0.01,0.317,0.951,-0.183,1737958
0.01,0.317,0.951,-0.244,1737962
0.013,0.314,0.944,-0.183,1737966
0.013,0.314,0.944,-0.183,1737970
0.015,0.314,0.941,-0.305,1737974
0.015,0.314,0.941,-0.305,1737978
0.015,0.314,0.941,-0.122,1737982
0.015,0.317,0.945,-0.061,1737986
0.015,0.317,0.945,-0.183,1737990
0.012,0.318,0.951,-0.122,1737994
0.012,0.318,0.951,-0.122,1737998
0.012,0.318,0.951,-0.244,1738002
0.008,0.315,0.945,-0.305,1738006
0.008,0.315,0.945,-0.183,1738010
0.008,0.314,0.94,-0.183,1738014
0.008,0.314,0.94,-0.183,1738018
0.008,0.314,0.94,-0.122,1738022
0.008,0.314,0.942,-0.244,1738026
0.008,0.314,0.942,-0.244,1738030
0.007,0.313,0.945,-0.244,1738034
0.007,0.313,0.945,-0.244,1738038
0.007,0.313,0.945,-0.244,1738042
0.003,0.312,0.944,-0.244,1738046
0.003,0.312,0.944,-0.305,1738050
0.0,0.311,0.943,-0.244,1738054
0.0,0.311,0.943,-0.244,1738058
0.0,0.311,0.943,-0.183,1738062
-0.0,0.31,0.944,-0.305,1738066
-0.0,0.31,0.944,-0.305,1738070
0.001,0.309,0.946,-0.122,1738074
0.001,0.309,0.946,-0.122,1738078
0.001,0.309,0.946,-0.122,1738082
0.004,0.308,0.945,-0.244,1738086
0.004,0.308,0.945,-0.183,1738090
0.005,0.31,0.943,-0.244,1738094
0.005,0.31,0.943,-0.244,1738098
0.005,0.31,0.943,-0.183,1738102
0.006,0.312,0.945,-0.122,1738106
0.006,0.312,0.945,-0.183,1738110
0.007,0.314,0.944,-0.244,1738114
0.007,0.314,0.944,-0.244,1738118
0.007,0.314,0.944,-0.122,1738122
0.007,0.316,0.944,-0.122,1738126
0.007,0.316,0.944,-0.183,1738129
0.011,0.318,0.943,-0.122,1738133
0.011,0.318,0.943,-0.183,1738137
0.011,0.318,0.943,-0.183,1738141
0.011,0.318,0.944,-0.183,1738145
0.011,0.318,0.944,-0.183,1738149
0.013,0.318,0.945,-0.183,1738153
0.013,0.318,0.945,-0.122,1738157
0.013,0.318,0.945,-0.122,1738161
0.014,0.315,0.945,-0.183,1738165
0.014,0.315,0.945,-0.244,1738169
0.011,0.314,0.945,-0.244,1738173
0.011,0.314,0.945,-0.305,1738177
0.011,0.314,0.945,-0.305,1738181
0.01,0.314,0.947,-0.305,1738185
0.01,0.314,0.947,-0.244,1738189
0.01,0.313,0.946,-0.122,1738193
0.01,0.313,0.946,-0.122,1738197
0.01,0.313,0.946,-0.122,1738201
0.011,0.31,0.946,-0.183,1738205
0.011,0.31,0.946,-0.244,1738209
0.011,0.31,0.948,-0.244,1738213
0.011,0.31,0.948,-0.183,1738217
0.011,0.31,0.948,-0.183,1738221
0.01,0.31,0.946,-0.183,1738225
0.01,0.31,0.946,-0.122,1738229
0.009,0.31,0.946,-0.183,1738233
0.009,0.31,0.946,-0.122,1738237
0.009,0.31,0.946,-0.122,1738241
0.008,0.31,0.947,-0.122,1738245
0.008,0.31,0.947,-0.183,1738249
0.008,0.308,0.947,-0.183,1738253
0.008,0.308,0.947,-0.122,1738257
0.008,0.308,0.947,-0.122,1738261
0.009,0.307,0.945,-0.122,1738265
0.009,0.307,0.945,-0.427,1738269
0.007,0.31,0.946,-0.244,1738273
0.007,0.31,0.946,-0.183,1738277
0.007,0.31,0.946,-0.183,1738281
0.006,0.31,0.946,-0.183,1738285
0.006,0.31,0.946,-0.305,1738289
0.006,0.313,0.946,-0.183,1738293
0.006,0.313,0.946,-0.122,1738297
0.006,0.313,0.946,-0.122,1738301
0.004,0.315,0.944,-0.183,1738305
0.004,0.315,0.944,-0.122,1738309
0.005,0.314,0.943,-0.122,1738313
0.005,0.314,0.943,-0.122,1738317
0.005,0.314,0.943,-0.122,1738321
0.006,0.316,0.943,-0.061,1738325
0.006,0.316,0.943,0.0,1738328
0.008,0.316,0.943,-0.305,1738332
0.008,0.316,0.943,-0.061,1738336
0.008,0.316,0.943,-0.061,1738340
0.008,0.316,0.942,0.061,1738344
0.008,0.316,0.942,0.0,1738348
0.009,0.318,0.943,-0.244,1738352
0.009,0.318,0.943,-0.183,1738356
0.009,0.318,0.943,-0.183,1738360
0.008,0.315,0.944,-0.244,1738364
0.008,0.315,0.944,-0.183,1738368
0.009,0.314,0.944,-0.122,1738372
0.009,0.314,0.944,-0.122,1738376
0.009,0.314,0.944,-0.122,1738380
0.01,0.315,0.943,-0.183,1738384
0.01,0.315,0.943,-0.122,1738388
0.009,0.314,0.944,-0.183,1738392
0.009,0.314,0.944,-0.183,1738396
0.009,0.314,0.944,-0.183,1738400
0.009,0.314,0.947,-0.061,1738404
0.009,0.314,0.947,-0.122,1738408
0.011,0.314,0.947,-0.183,1738412
0.011,0.314,0.947,-0.122,1738416
0.011,0.314,0.947,-0.122,1738420
0.01,0.312,0.946,-0.122,1738424
0.01,0.312,0.946,-0.244,1738428
0.009,0.311,0.947,-0.244,1738432
0.009,0.311,0.947,-0.183,1738436
0.009,0.311,0.947,-0.183,1738440
0.008,0.31,0.947,-0.244,1738444
0.008,0.31,0.947,-0.244,1738448
0.009,0.311,0.945,-0.183,1738452
0.009,0.311,0.945,-0.305,1738456
0.008,0.31,0.947,-0.366,1738460
0.008,0.31,0.947,-0.366,1738464
0.008,0.31,0.947,-0.244,1738468
0.008,0.309,0.947,-0.183,1738472
0.008,0.309,0.947,-0.122,1738476
0.008,0.31,0.948,-0.183,1738480
0.008,0.31,0.948,-0.183,1738484
0.008,0.31,0.948,-0.244,1738488
0.01,0.309,0.946,-0.183,1738492
0.01,0.309,0.946,-0.122,1738496
0.008,0.311,0.946,-0.244,1738500
0.008,0.311,0.946,-0.244,1738504
0.008,0.311,0.946,-0.122,1738508
0.01,0.313,0.947,0.061,1738512
0.01,0.313,0.947,-0.122,1738516
0.009,0.314,0.946,-0.183,1738520
0.009,0.314,0.946,-0.183,1738524
0.009,0.314,0.946,-0.183,1738527
0.008,0.314,0.944,-0.183,1738531
0.008,0.314,0.944,-0.122,1738535
0.01,0.316,0.942,-0.305,1738539
0.01,0.316,0.942,-0.305,1738543
0.01,0.316,0.942,-0.244,1738547
0.008,0.316,0.944,-0.183,1738551
0.008,0.316,0.944,-0.183,1738555
0.007,0.316,0.944,-0.244,1738559
0.007,0.316,0.944,-0.244,1738563
0.007,0.316,0.944,-0.244,1738567
0.009,0.315,0.945,-0.244,1738571
0.009,0.315,0.945,-0.183,1738575
0.007,0.315,0.944,-0.122,1738579
0.007,0.315,0.944,-0.122,1738583
0.007,0.315,0.944,-0.183,1738587
0.007,0.315,0.944,-0.183,1738591
0.007,0.315,0.944,-0.122,1738595
0.008,0.314,0.945,-0.244,1738599
0.008,0.314,0.945,-0.244,1738603
0.008,0.314,0.945,-0.244,1738607
0.007,0.315,0.945,-0.061,1738611
0.007,0.315,0.945,-0.122,1738615
0.007,0.313,0.945,-0.244,1738619
0.007,0.313,0.945,-0.244,1738623
0.007,0.313,0.945,-0.244,1738627
0.006,0.313,0.945,-0.122,1738631
0.006,0.313,0.945,-0.183,1738635
0.007,0.312,0.947,-0.305,1738639
0.007,0.312,0.947,-0.305,1738643
0.007,0.312,0.947,-0.305,1738647
0.007,0.31,0.946,-0.305,1738651
0.007,0.31,0.946,-0.183,1738655
0.006,0.31,0.946,-0.061,1738659
0.006,0.31,0.946,-0.061,1738663
0.006,0.31,0.946,-0.122,1738667
0.009,0.311,0.947,-0.183,1738671
0.009,0.311,0.947,-0.183,1738675
0.009,0.312,0.947,-0.183,1738679
0.009,0.312,0.947,-0.183,1738683
0.009,0.312,0.947,-0.122,1738687
0.01,0.311,0.947,-0.061,1738691
0.01,0.311,0.947,-0.183,1738695
0.009,0.312,0.946,-0.122,1738699
0.009,0.312,0.946,-0.122,1738703
0.009,0.312,0.946,-0.183,1738707
0.009,0.312,0.947,-0.366,1738711
0.009,0.312,0.947,-0.183,1738715
0.01,0.313,0.945,-0.061,1738719
0.01,0.313,0.945,-0.061,1738723
0.01,0.313,0.945,-0.305,1738727
0.01,0.312,0.946,-0.183,1738731
0.01,0.312,0.946,-0.183,1738735
0.01,0.313,0.946,-0.122,1738739
0.01,0.313,0.946,-0.244,1738743
0.01,0.313,0.946,-0.244,1738747
0.01,0.314,0.946,-0.244,1738750
0.01,0.314,0.946,-0.183,1738754
0.01,0.313,0.945,-0.122,1738758
0.01,0.313,0.945,-0.244,1738762
0.01,0.313,0.945,-0.244,1738766
0.009,0.312,0.947,-0.183,1738770
0.009,0.312,0.947,-0.244,1738774
0.009,0.314,0.946,-0.244,1738778
0.009,0.314,0.946,-0.061,1738782
0.009,0.314,0.946,-0.061,1738786
0.009,0.313,0.945,-0.122,1738790
0.009,0.313,0.945,-0.366,1738794
0.008,0.312,0.944,-0.122,1738798
0.008,0.312,0.944,-0.122,1738802
0.008,0.312,0.944,-0.122,1738806
0.007,0.313,0.944,-0.244,1738810
0.007,0.313,0.944,-0.122,1738814
0.007,0.315,0.943,-0.122,1738818
0.007,0.315,0.943,-0.183,1738822
0.007,0.315,0.943,-0.183,1738826
0.006,0.314,0.943,-0.183,1738830
0.006,0.314,0.943,-0.122,1738834
0.005,0.313,0.945,-0.122,1738838
0.005,0.313,0.945,-0.305,1738842
0.005,0.313,0.945,-0.305,1738846
0.006,0.311,0.946,-0.183,1738850
0.006,0.311,0.946,-0.061,1738854
0.006,0.313,0.945,-0.244,1738858
0.006,0.313,0.945,-0.183,1738862
0.006,0.313,0.945,-0.183,1738866
0.005,0.312,0.945,-0.183,1738870
0.005,0.312,0.945,-0.061,1738874
0.007,0.312,0.946,-0.366,1738878
0.007,0.312,0.946,-0.305,1738882
0.007,0.312,0.946,-0.305,1738886
0.007,0.313,0.945,-0.183,1738890
0.007,0.313,0.945,-0.183,1738894
0.008,0.314,0.944,-0.122,1738898
0.008,0.314,0.944,-0.183,1738902
0.008,0.314,0.944,-0.183,1738906
0.008,0.312,0.946,-0.183,1738910
0.008,0.312,0.946,-0.244,1738914
0.009,0.313,0.946,-0.122,1738918
0.009,0.313,0.946,-0.183,1738922
0.009,0.313,0.946,-0.183,1738926
0.011,0.313,0.946,-0.244,1738930
0.011,0.313,0.946,0.0,1738934
0.01,0.313,0.946,-0.122,1738938
0.01,0.313,0.946,-0.244,1738942
0.01,0.313,0.946,-0.244,1738946
0.011,0.312,0.946,-0.305,1738950
0.011,0.312,0.946,-0.244,1738954
0.011,0.313,0.946,-0.061,1738958
0.011,0.313,0.946,-0.122,1738962
0.011,0.313,0.946,-0.122,1738966
0.009,0.314,0.947,-0.183,1738970
0.009,0.314,0.947,-0.183,1738974
0.01,0.314,0.946,-0.244,1738978
0.01,0.314,0.946,-0.244,1738982
0.011,0.312,0.947,-0.183,1738986
0.011,0.312,0.947,-0.183,1738990
0.011,0.312,0.947,-0.183,1738993
0.011,0.312,0.947,-0.183,1738997
0.011,0.312,0.947,-0.244,1739001
0.009,0.314,0.945,-0.183,1739005
0.009,0.314,0.945,-0.183,1739009
0.009,0.314,0.945,-0.122,1739013
0.007,0.313,0.945,-0.305,1739017
0.007,0.313,0.945,-0.244,1739021
0.007,0.312,0.945,-0.244,1739025
0.007,0.312,0.945,-0.244,1739029
0.007,0.312,0.945,-0.305,1739033
0.008,0.31,0.945,-0.122,1739037
0.008,0.31,0.945,-0.244,1739041
0.007,0.312,0.944,-0.305,1739045
0.007,0.312,0.944,-0.305,1739049
0.007,0.312,0.944,-0.305,1739053
0.008,0.313,0.945,-0.122,1739057
0.008,0.313,0.945,-0.183,1739061
0.007,0.312,0.946,-0.244,1739065
0.007,0.312,0.946,-0.244,1739069
0.007,0.312,0.946,-0.244,1739073
0.008,0.313,0.945,-0.183,1739077
0.008,0.313,0.945,-0.122,1739081
0.007,0.312,0.945,-0.183,1739085
0.007,0.312,0.945,-0.183,1739089
0.007,0.312,0.945,-0.183,1739093
0.007,0.313,0.944,-0.183,1739097
0.007,0.313,0.944,-0.305,1739101
0.009,0.314,0.943,-0.305,1739105
0.009,0.314,0.943,-0.305,1739109
0.009,0.314,0.943,-0.244,1739113
0.008,0.314,0.945,-0.244,1739117
0.008,0.314,0.945,-0.305,1739121
0.008,0.314,0.947,-0.305,1739125
0.008,0.314,0.947,-0.305,1739129
0.008,0.314,0.947,-0.183,1739133
0.008,0.314,0.947,-0.122,1739137
0.008,0.314,0.947,-0.122,1739141
0.008,0.313,0.944,-0.244,1739145
0.008,0.313,0.944,-0.244,1739149
0.008,0.313,0.944,-0.427,1739153
0.01,0.314,0.945,-0.366,1739157
0.01,0.314,0.945,-0.122,1739161
0.009,0.313,0.946,-0.183,1739165
0.009,0.313,0.946,-0.183,1739169
0.009,0.313,0.946,-0.183,1739173
0.01,0.313,0.946,-0.244,1739177
0.01,0.313,0.946,-0.122,1739181
0.009,0.313,0.945,-0.183,1739185
0.009,0.313,0.945,-0.183,1739189
0.009,0.313,0.945,-0.244,1739193
0.008,0.312,0.945,-0.244,1739197
0.008,0.312,0.945,-0.183,1739201
0.009,0.313,0.946,-0.183,1739205
0.009,0.313,0.946,-0.183,1739209
0.009,0.313,0.946,-0.305,1739212
0.009,0.313,0.945,-0.244,1739216
0.009,0.313,0.945,-0.366,1739220
0.009,0.312,0.945,-0.305,1739224
0.009,0.312,0.945,-0.305,1739228
0.009,0.312,0.945,-0.183,1739232
0.009,0.312,0.947,-0.305,1739236
0.009,0.312,0.947,-0.305,1739240
0.01,0.312,0.945,-0.183,1739244
0.01,0.312,0.945,-0.183,1739248
0.01,0.312,0.945,-0.183,1739252
0.01,0.311,0.945,-0.183,1739256
0.01,0.311,0.945,-0.183,1739260
0.007,0.312,0.947,-0.183,1739264
0.007,0.312,0.947,-0.183,1739268
0.007,0.312,0.947,-0.183,1739272
0.009,0.312,0.944,-0.244,1739276
0.009,0.312,0.944,-0.244,1739280
0.008,0.312,0.945,-0.244,1739284
0.008,0.312,0.945,-0.183,1739288
0.008,0.312,0.945,-0.183,1739292
0.007,0.314,0.946,-0.183,1739296
0.007,0.314,0.946,-0.244,1739300
0.007,0.313,0.947,-0.183,1739304
0.007,0.313,0.947,-0.244,1739308
0.007,0.313,0.947,-0.244,1739312
0.007,0.313,0.944,-0.244,1739316
0.007,0.313,0.944,-0.183,1739320
0.008,0.313,0.946,-0.183,1739324
0.008,0.313,0.946,-0.244,1739328
0.008,0.313,0.946,-0.244,1739332
0.008,0.313,0.945,-0.122,1739336
0.008,0.313,0.945,-0.183,1739340
0.009,0.314,0.944,-0.122,1739344
0.009,0.314,0.944,-0.244,1739348
0.009,0.314,0.944,-0.244,1739352
0.008,0.313,0.944,-0.183,1739356
0.008,0.313,0.944,-0.183,1739360
0.008,0.314,0.945,-0.244,1739364
0.008,0.314,0.945,-0.244,1739368
0.008,0.314,0.945,-0.244,1739372
0.007,0.314,0.945,-0.366,1739376
0.007,0.314,0.945,-0.061,1739380
0.009,0.314,0.947,-0.061,1739384
0.009,0.314,0.947,-0.122,1739388
0.009,0.314,0.947,-0.122,1739392
0.009,0.313,0.946,-0.305,1739396
0.009,0.313,0.946,-0.244,1739400
0.009,0.313,0.945,-0.061,1739404
0.009,0.313,0.945,-0.122,1739408
0.009,0.313,0.945,-0.122,1739412
0.009,0.313,0.947,-0.183,1739416
0.009,0.313,0.947,-0.183,1739420
0.009,0.313,0.946,-0.122,1739423
0.009,0.313,0.946,-0.061,1739427
0.009,0.313,0.946,-0.061,1739431
0.007,0.312,0.947,-0.122,1739435
0.007,0.312,0.947,-0.183,1739439
0.006,0.311,0.946,-0.122,1739443
0.006,0.311,0.946,-0.183,1739447
0.006,0.311,0.946,-0.183,1739451
0.01,0.312,0.944,-0.305,1739455
0.01,0.312,0.944,-0.244,1739459
0.008,0.311,0.946,-0.183,1739463
0.008,0.311,0.946,-0.366,1739467
0.008,0.311,0.946,-0.366,1739471
0.008,0.312,0.947,-0.366,1739475
0.008,0.312,0.947,-0.122,1739479
0.01,0.312,0.946,-0.183,1739483
0.01,0.312,0.946,-0.061,1739487
0.01,0.312,0.946,-0.061,1739491
0.009,0.312,0.947,-0.061,1739495
0.009,0.312,0.947,-0.122,1739499
0.008,0.314,0.944,-0.183,1739503
0.008,0.314,0.944,-0.061,1739507
0.008,0.314,0.944,-0.061,1739511
0.009,0.314,0.946,-0.244,1739515
0.009,0.314,0.946,-0.183,1739519
0.008,0.315,0.945,-0.122,1739523
0.008,0.315,0.945,-0.183,1739527
0.008,0.315,0.945,-0.183,1739531
0.009,0.315,0.946,-0.122,1739535
0.009,0.315,0.946,-0.122,1739539
0.009,0.313,0.946,-0.244,1739543
0.009,0.313,0.946,-0.244,1739547
0.008,0.313,0.946,-0.183,1739551
0.008,0.313,0.946,-0.183,1739555
0.008,0.313,0.946,-0.244,1739559
0.007,0.313,0.944,-0.183,1739563
0.007,0.313,0.944,-0.183,1739567
0.008,0.313,0.944,-0.366,1739571
0.008,0.313,0.944,-0.366,1739575
0.008,0.313,0.944,-0.244,1739579
0.007,0.312,0.945,-0.244,1739583
0.007,0.312,0.945,-0.244,1739587
0.008,0.312,0.946,-0.244,1739591
0.008,0.312,0.946,-0.244,1739595
0.008,0.312,0.946,-0.183,1739599
0.006,0.311,0.943,-0.122,1739603
0.006,0.311,0.943,-0.244,1739607
0.006,0.313,0.946,-0.183,1739611
0.006,0.313,0.946,-0.183,1739615
0.006,0.313,0.946,-0.183,1739619
0.007,0.314,0.946,-0.244,1739623
0.007,0.314,0.946,-0.183,1739627
0.006,0.313,0.946,-0.122,1739631
0.006,0.313,0.946,-0.122,1739635
0.006,0.313,0.946,-0.366,1739639
0.007,0.312,0.945,-0.122,1739643
0.007,0.312,0.945,-0.366,1739647
0.006,0.314,0.944,-0.244,1739651
0.006,0.314,0.944,-0.244,1739655
0.006,0.314,0.944,-0.183,1739659
0.009,0.312,0.945,-0.244,1739663
0.009,0.312,0.945,-0.183,1739667
0.009,0.312,0.945,-0.244,1739671
0.009,0.312,0.945,-0.244,1739675
0.009,0.312,0.945,-0.305,1739679
0.007,0.312,0.946,-0.244,1739683
0.007,0.312,0.946,-0.244,1739687
0.008,0.313,0.947,-0.244,1739691
0.008,0.313,0.947,-0.244,1739695
0.008,0.313,0.947,-0.244,1739699
0.008,0.313,0.946,-0.244,1739703
0.008,0.313,0.946,-0.183,1739707
0.01,0.312,0.945,-0.122,1739711
0.01,0.312,0.945,-0.122,1739715
0.01,0.312,0.945,-0.061,1739719
0.008,0.313,0.945,-0.122,1739723
0.008,0.313,0.945,-0.305,1739727
0.006,0.312,0.945,-0.427,1739731
0.006,0.312,0.945,-0.366,1739734
0.006,0.312,0.945,-0.366,1739738
0.011,0.314,0.946,-0.244,1739742
0.011,0.314,0.946,-0.244,1739746
0.009,0.312,0.947,-0.244,1739750
0.009,0.312,0.947,-0.183,1739754
0.009,0.312,0.947,-0.183,1739758
0.009,0.312,0.947,-0.061,1739762
0.009,0.312,0.947,-0.183,1739766
0.008,0.314,0.945,-0.183,1739770
0.008,0.314,0.945,-0.244,1739774
0.008,0.314,0.945,-0.244,1739778
0.009,0.312,0.947,-0.183,1739782
0.009,0.312,0.947,-0.183,1739786
0.009,0.313,0.946,-0.244,1739790
0.009,0.313,0.946,-0.122,1739794
0.009,0.313,0.946,-0.122,1739798
0.008,0.312,0.944,-0.122,1739802
0.008,0.312,0.944,-0.305,1739806
0.008,0.312,0.947,-0.244,1739810
0.008,0.312,0.947,-0.305,1739814
0.008,0.312,0.947,-0.305,1739818
0.006,0.312,0.946,-0.122,1739822
0.006,0.312,0.946,-0.061,1739826
0.007,0.313,0.945,-0.122,1739830
0.007,0.313,0.945,-0.244,1739834
0.007,0.313,0.945,-0.244,1739838
0.007,0.313,0.944,-0.122,1739842
0.007,0.313,0.944,-0.122,1739846
0.008,0.313,0.945,-0.122,1739850
0.008,0.313,0.945,-0.183,1739854
0.008,0.313,0.945,-0.183,1739858
0.009,0.312,0.945,-0.061,1739862
0.009,0.312,0.945,-0.183,1739866
0.009,0.313,0.944,-0.061,1739870
0.009,0.313,0.944,-0.061,1739874
0.009,0.313,0.944,-0.061,1739878
0.008,0.313,0.944,-0.183,1739882
0.008,0.313,0.944,-0.183,1739886
0.009,0.313,0.944,-0.305,1739890
0.009,0.313,0.944,-0.305,1739894
0.009,0.313,0.944,-0.305,1739898
0.008,0.313,0.945,-0.305,1739902
0.008,0.313,0.945,-0.305,1739906
0.009,0.313,0.944,-0.488,1739910
0.009,0.313,0.944,-0.244,1739914
0.009,0.313,0.944,-0.244,1739918
0.01,0.312,0.947,-0.183,1739922
0.01,0.312,0.947,-0.183,1739926
0.01,0.312,0.948,-0.244,1739930
0.01,0.312,0.948,-0.122,1739934
0.01,0.312,0.948,-0.122,1739938
0.008,0.313,0.944,-0.122,1739942
0.008,0.313,0.944,-0.122,1739946
0.008,0.313,0.945,-0.061,1739950
0.008,0.313,0.945,-0.122,1739954
0.008,0.313,0.945,-0.122,1739958
0.008,0.314,0.945,-0.244,1739962
0.008,0.314,0.945,-0.305,1739966
0.01,0.312,0.944,-0.183,1739970
0.01,0.312,0.944,-0.122,1739974
0.008,0.313,0.946,-0.061,1739978
0.008,0.313,0.946,-0.061,1739982
0.008,0.313,0.946,-0.244,1739985
0.008,0.313,0.948,-0.244,1739989
0.008,0.313,0.948,-0.122,1739993
0.009,0.312,0.947,-0.061,1739997
0.009,0.312,0.947,-0.061,1740001
0.009,0.312,0.947,-0.122,1740005
0.01,0.313,0.946,-0.183,1740009
0.01,0.313,0.946,-0.183,1740013
0.01,0.312,0.943,-0.244,1740017
0.01,0.312,0.943,-0.244,1740021
0.01,0.312,0.943,-0.122,1740025
0.009,0.312,0.945,-0.183,1740029
0.009,0.312,0.945,-0.244,1740033
0.008,0.313,0.944,-0.183,1740037
0.008,0.313,0.944,-0.183,1740041
0.008,0.313,0.944,-0.244,1740045
0.008,0.314,0.946,-0.244,1740049
0.008,0.314,0.946,-0.122,1740053
0.008,0.314,0.944,-0.061,1740057
0.008,0.314,0.944,-0.061,1740061
0.008,0.314,0.944,-0.305,1740065
0.007,0.313,0.945,-0.244,1740069
0.007,0.313,0.945,-0.244,1740073
0.008,0.313,0.944,-0.183,1740077
0.008,0.313,0.944,-0.183,1740081
0.008,0.313,0.944,-0.244,1740085
0.009,0.314,0.944,-0.122,1740089
0.009,0.314,0.944,-0.122,1740093
0.009,0.312,0.945,-0.183,1740097
0.009,0.312,0.945,-0.183,1740101
0.009,0.312,0.945,-0.122,1740105
0.007,0.313,0.945,-0.183,1740109
0.007,0.313,0.945,-0.244,1740113
0.006,0.313,0.944,-0.305,1740117
0.006,0.313,0.944,-0.305,1740121
0.006,0.313,0.944,-0.183,1740125
0.006,0.313,0.946,-0.183,1740129
0.006,0.313,0.946,-0.244,1740133
0.008,0.314,0.944,-0.305,1740137
0.008,0.314,0.944,-0.305,1740141
0.008,0.314,0.944,-0.244,1740145
0.008,0.312,0.944,-0.244,1740149
0.008,0.312,0.944,-0.183,1740153
0.008,0.312,0.946,-0.183,1740157
0.008,0.312,0.946,-0.183,1740161
0.008,0.312,0.946,-0.122,1740165
0.008,0.312,0.947,-0.244,1740169
0.008,0.312,0.947,-0.183,1740173
0.008,0.312,0.947,-0.122,1740177
0.008,0.312,0.947,-0.122,1740181
0.008,0.312,0.947,-0.183,1740185
0.009,0.313,0.946,-0.183,1740189
0.009,0.313,0.946,-0.244,1740193
0.008,0.314,0.946,-0.183,1740197
0.008,0.314,0.946,-0.183,1740201
0.008,0.314,0.946,-0.183,1740205
0.008,0.313,0.946,-0.305,1740209
0.008,0.313,0.946,-0.244,1740213
0.008,0.313,0.945,-0.122,1740217
0.008,0.313,0.945,-0.122,1740221
0.008,0.313,0.945,-0.183,1740225
0.01,0.312,0.946,-0.244,1740229
0.01,0.312,0.946,-0.244,1740233
0.008,0.313,0.945,-0.183,1740237
0.008,0.313,0.945,-0.122,1740241
0.008,0.313,0.945,-0.122,1740245
0.008,0.312,0.946,-0.305,1740249
0.008,0.312,0.946,-0.244,1740252
0.008,0.312,0.946,-0.183,1740256
0.008,0.312,0.946,-0.366,1740260
0.008,0.312,0.946,-0.366,1740264
0.009,0.316,0.947,-0.244,1740268
0.009,0.316,0.947,-0.183,1740272
0.008,0.314,0.945,-0.305,1740276
0.008,0.314,0.945,-0.122,1740280
0.008,0.314,0.945,-0.122,1740284
0.009,0.315,0.945,-0.183,1740288
0.009,0.315,0.945,-0.244,1740292
0.009,0.314,0.945,-0.183,1740296
0.009,0.314,0.945,-0.061,1740300
0.009,0.314,0.945,-0.061,1740304
0.009,0.313,0.945,-0.122,1740308
0.009,0.313,0.945,-0.183,1740312
0.007,0.313,0.945,-0.244,1740316
0.007,0.313,0.945,-0.244,1740320
0.007,0.313,0.945,-0.244,1740324
0.007,0.313,0.947,-0.305,1740328
0.007,0.313,0.947,-0.244,1740332
0.008,0.314,0.945,-0.122,1740336
0.008,0.314,0.945,-0.122,1740340
0.008,0.314,0.945,-0.122,1740344
0.008,0.313,0.945,-0.305,1740348
0.008,0.313,0.945,-0.427,1740352
0.009,0.312,0.945,-0.366,1740356
0.009,0.312,0.945,-0.305,1740360
0.009,0.312,0.945,-0.305,1740364
0.008,0.314,0.943,-0.244,1740368
0.008,0.314,0.943,-0.244,1740372
0.009,0.313,0.945,-0.305,1740376
0.009,0.313,0.945,-0.244,1740380
0.009,0.313,0.945,-0.244,1740384
0.008,0.312,0.947,-0.183,1740388
0.008,0.312,0.947,-0.122,1740392
0.009,0.313,0.945,-0.244,1740396
0.009,0.313,0.945,-0.244,1740400
0.009,0.313,0.945,-0.244,1740404
0.008,0.313,0.946,-0.061,1740408
0.008,0.313,0.946,0.061,1740412
0.008,0.313,0.947,-0.183,1740416
0.008,0.313,0.947,-0.244,1740420
0.008,0.313,0.947,-0.244,1740424
0.009,0.314,0.945,-0.244,1740428
0.009,0.314,0.945,-0.183,1740432
0.009,0.312,0.945,-0.183,1740436
0.009,0.312,0.945,-0.183,1740440
0.009,0.312,0.945,-0.183,1740444
0.007,0.312,0.945,-0.427,1740448
0.007,0.312,0.945,-0.244,1740452
0.008,0.312,0.946,-0.122,1740456
0.008,0.312,0.946,-0.244,1740460
0.009,0.314,0.944,-0.305,1740464
0.009,0.314,0.944,-0.305,1740468
0.009,0.314,0.944,-0.244,1740472
0.01,0.314,0.945,-0.183,1740476
0.01,0.314,0.945,-0.244,1740480
0.01,0.315,0.944,-0.183,1740484
0.01,0.315,0.944,-0.183,1740487
0.01,0.315,0.944,-0.183,1740491
0.008,0.313,0.945,-0.305,1740495
0.008,0.313,0.945,-0.244,1740499
0.007,0.314,0.946,-0.122,1740503
0.007,0.314,0.946,-0.122,1740507
0.007,0.314,0.946,-0.061,1740511
0.009,0.314,0.945,-0.244,1740515
0.009,0.314,0.945,-0.183,1740519
0.008,0.313,0.945,-0.244,1740523
0.008,0.313,0.945,-0.244,1740527
0.008,0.313,0.945,-0.366,1740531
0.008,0.313,0.945,-0.244,1740535
0.008,0.313,0.945,-0.061,1740539
0.007,0.31,0.943,-0.122,1740543
0.007,0.31,0.943,-0.122,1740547
0.007,0.31,0.943,-0.305,1740551
0.008,0.312,0.944,-0.244,1740555
0.008,0.312,0.944,-0.183,1740559
0.007,0.312,0.946,-0.183,1740563
0.007,0.312,0.946,-0.183,1740567
0.007,0.312,0.946,-0.183,1740571
0.007,0.313,0.946,-0.183,1740575
0.007,0.313,0.946,-0.183,1740579
0.006,0.312,0.945,-0.061,1740583
0.006,0.312,0.945,-0.061,1740587
0.006,0.312,0.945,-0.183,1740591
0.007,0.312,0.947,-0.183,1740595
0.007,0.312,0.947,-0.061,1740599
0.008,0.313,0.945,-0.183,1740603
0.008,0.313,0.945,-0.183,1740607
0.008,0.313,0.945,-0.183,1740611
0.008,0.313,0.943,-0.122,1740615
0.008,0.313,0.943,-0.366,1740619
0.007,0.313,0.945,-0.305,1740623
0.007,0.313,0.945,-0.305,1740627
0.007,0.313,0.945,-0.061,1740631
0.008,0.314,0.944,-0.061,1740635
0.008,0.314,0.944,-0.183,1740639
0.009,0.313,0.944,-0.366,1740643
0.009,0.313,0.944,-0.366,1740647
0.009,0.313,0.944,-0.305,1740651
0.009,0.313,0.946,-0.183,1740655
0.009,0.313,0.946,-0.122,1740659
0.009,0.313,0.946,-0.183,1740663
0.009,0.313,0.946,-0.183,1740667
0.009,0.313,0.946,-0.183,1740671
0.009,0.313,0.946,-0.183,1740675
0.009,0.313,0.946,-0.183,1740679
0.009,0.313,0.945,-0.183,1740683
0.009,0.313,0.945,-0.183,1740687
0.009,0.313,0.945,-0.366,1740691
0.009,0.314,0.945,-0.366,1740695
0.009,0.314,0.945,-0.244,1740699
0.009,0.314,0.946,-0.183,1740703
0.009,0.314,0.946,-0.183,1740707
0.009,0.314,0.946,-0.122,1740711
0.009,0.314,0.946,-0.244,1740715
0.009,0.314,0.946,-0.183,1740718
0.009,0.314,0.946,-0.305,1740722
0.009,0.314,0.946,-0.305,1740726
0.009,0.314,0.946,-0.305,1740730
0.009,0.312,0.945,-0.122,1740734
0.009,0.312,0.945,-0.305,1740738
0.009,0.315,0.945,-0.366,1740742
0.009,0.315,0.945,-0.183,1740746
0.009,0.315,0.945,-0.183,1740750
0.009,0.314,0.945,-0.183,1740754
0.009,0.314,0.945,-0.244,1740758
0.006,0.312,0.946,-0.183,1740762
0.006,0.312,0.946,-0.244,1740766
0.006,0.312,0.946,-0.244,1740770
0.007,0.312,0.945,-0.305,1740774
0.007,0.312,0.945,-0.305,1740778
0.007,0.312,0.946,-0.244,1740782
0.007,0.312,0.946,-0.183,1740786
0.007,0.312,0.946,-0.183,1740790
0.009,0.312,0.946,-0.244,1740794
0.009,0.312,0.946,-0.183,1740798
0.008,0.313,0.946,-0.305,1740802
0.008,0.313,0.946,-0.305,1740806
0.008,0.313,0.946,-0.305,1740810
0.008,0.314,0.945,-0.244,1740814
0.008,0.314,0.945,-0.305,1740818
0.007,0.313,0.945,-0.366,1740822
0.007,0.313,0.945,-0.244,1740826
0.007,0.313,0.945,-0.244,1740830
0.007,0.313,0.947,-0.122,1740834
0.007,0.313,0.947,-0.244,1740838
0.008,0.313,0.944,-0.183,1740842
0.008,0.313,0.944,-0.183,1740846
0.008,0.313,0.944,-0.183,1740850
0.009,0.313,0.945,-0.244,1740854
0.009,0.313,0.945,-0.183,1740858
0.008,0.312,0.945,-0.122,1740862
0.008,0.312,0.945,-0.183,1740866
0.008,0.312,0.945,-0.183,1740870
0.009,0.314,0.943,-0.122,1740874
0.009,0.314,0.943,-0.061,1740878
0.008,0.313,0.944,-0.061,1740882
0.008,0.313,0.944,-0.061,1740886
0.008,0.313,0.944,-0.061,1740890
0.008,0.312,0.947,-0.183,1740894
0.008,0.312,0.947,-0.183,1740898
0.009,0.312,0.944,-0.244,1740902
0.009,0.312,0.944,-0.183,1740906
0.009,0.312,0.944,-0.183,1740910
0.008,0.313,0.944,-0.244,1740914
0.008,0.313,0.944,-0.244,1740918
0.009,0.314,0.947,-0.183,1740922
0.009,0.314,0.947,-0.244,1740926
0.009,0.314,0.947,-0.244,1740930
0.009,0.312,0.946,-0.183,1740934
0.009,0.312,0.946,-0.244,1740938
0.008,0.313,0.945,-0.183,1740942
0.008,0.313,0.945,-0.183,1740946
0.008,0.313,0.945,-0.183,1740950
0.007,0.313,0.946,-0.244,1740954
0.007,0.313,0.946,-0.305,1740958
0.008,0.313,0.945,-0.244,1740962
0.008,0.313,0.945,-0.183,1740966
0.009,0.313,0.945,-0.183,1740970
0.009,0.313,0.945,-0.183,1740974
0.009,0.313,0.945,-0.244,1740978
0.009,0.313,0.944,-0.183,1740982
0.009,0.313,0.944,-0.183,1740986
0.008,0.312,0.945,-0.122,1740990
0.008,0.312,0.945,-0.122,1740994
0.008,0.312,0.945,-0.183,1740998
0.006,0.313,0.945,-0.061,1741002
0.006,0.313,0.945,-0.061,1741006
0.007,0.312,0.945,-0.183,1741010
0.007,0.312,0.945,-0.183,1741014
0.007,0.312,0.945,-0.244,1741018
0.009,0.313,0.948,-0.183,1741022
0.009,0.313,0.948,-0.122,1741025
0.008,0.312,0.945,-0.122,1741029
0.008,0.312,0.945,-0.122,1741033
0.008,0.312,0.945,-0.061,1741037
0.009,0.312,0.944,-0.122,1741041
0.009,0.312,0.944,-0.183,1741045
0.009,0.314,0.946,-0.183,1741049
0.009,0.314,0.946,-0.183,1741053
0.009,0.314,0.946,-0.122,1741057
0.009,0.314,0.947,-0.061,1741061
0.009,0.314,0.947,-0.183,1741065
0.008,0.313,0.945,-0.122,1741069
0.008,0.313,0.945,-0.122,1741073
0.008,0.313,0.945,-0.244,1741077
0.007,0.313,0.946,-0.122,1741081
0.007,0.313,0.946,-0.122,1741085
0.008,0.314,0.946,-0.305,1741089
0.008,0.314,0.946,-0.305,1741093
0.008,0.314,0.946,-0.244,1741097
0.008,0.315,0.945,-0.183,1741101
0.008,0.315,0.945,-0.122,1741105
0.01,0.314,0.944,-0.183,1741109
0.01,0.314,0.944,-0.183,1741113
0.01,0.314,0.944,-0.061,1741117
0.009,0.314,0.944,-0.122,1741121
0.009,0.314,0.944,-0.183,1741125
0.008,0.315,0.946,-0.183,1741129
0.008,0.315,0.946,-0.183,1741133
0.008,0.315,0.946,-0.183,1741137
0.009,0.314,0.946,-0.244,1741141
0.009,0.314,0.946,-0.183,1741145
0.009,0.312,0.945,-0.244,1741149
0.009,0.312,0.945,-0.244,1741153
0.009,0.312,0.945,-0.244,1741157
0.009,0.312,0.947,-0.305,1741161
0.009,0.312,0.947,-0.183,1741165
0.006,0.312,0.946,-0.183,1741169
0.006,0.312,0.946,-0.183,1741173
0.006,0.312,0.946,-0.244,1741177
0.008,0.313,0.945,-0.305,1741181
0.008,0.313,0.945,-0.183,1741185
0.009,0.311,0.945,-0.122,1741189
0.009,0.311,0.945,-0.122,1741193
0.009,0.311,0.945,-0.183,1741197
0.008,0.312,0.946,-0.305,1741201
0.008,0.312,0.946,-0.305,1741205
0.008,0.312,0.946,-0.183,1741209
0.008,0.312,0.946,-0.122,1741213
0.008,0.312,0.946,-0.122,1741217
0.009,0.311,0.945,-0.122,1741221
0.009,0.311,0.945,-0.305,1741225
0.009,0.312,0.946,-0.244,1741229
0.009,0.312,0.946,-0.183,1741232
0.009,0.312,0.946,-0.183,1741236
0.008,0.313,0.945,-0.183,1741240
0.008,0.313,0.945,-0.122,1741244
0.008,0.312,0.945,-0.122,1741248
0.008,0.312,0.945,0.061,1741252
0.008,0.312,0.945,0.061,1741256
0.008,0.312,0.947,-0.122,1741260
0.008,0.312,0.947,-0.244,1741264
0.008,0.313,0.945,-0.244,1741268
0.008,0.313,0.945,-0.183,1741272
0.008,0.313,0.945,-0.183,1741276
0.008,0.313,0.945,-0.244,1741280
0.008,0.313,0.945,-0.061,1741284
0.009,0.313,0.946,-0.183,1741288
0.009,0.313,0.946,-0.366,1741292
0.009,0.313,0.946,-0.366,1741296
0.008,0.313,0.945,-0.305,1741300
0.008,0.313,0.945,-0.244,1741304
0.01,0.313,0.944,-0.061,1741308
0.01,0.313,0.944,-0.305,1741312
0.01,0.313,0.944,-0.305,1741316
0.01,0.312,0.946,-0.305,1741320
0.01,0.312,0.946,-0.183,1741324
0.008,0.313,0.946,-0.122,1741328
0.008,0.313,0.946,-0.305,1741332
0.008,0.313,0.946,-0.305,1741336
0.007,0.311,0.946,-0.244,1741340
0.007,0.311,0.946,-0.183,1741344
0.009,0.312,0.945,-0.122,1741348
0.009,0.312,0.945,-0.061,1741352
0.009,0.312,0.945,-0.061,1741356
0.006,0.314,0.947,-0.244,1741360
0.006,0.314,0.947,-0.244,1741364
0.007,0.313,0.946,-0.122,1741368
0.007,0.313,0.946,-0.183,1741372
0.007,0.313,0.946,-0.183,1741376
0.008,0.312,0.945,-0.183,1741380
0.008,0.312,0.945,-0.183,1741384
0.008,0.312,0.945,-0.305,1741388
0.008,0.312,0.945,-0.183,1741392
0.008,0.312,0.945,-0.183,1741396
0.007,0.314,0.945,-0.122,1741400
0.007,0.314,0.945,-0.244,1741404
0.006,0.313,0.945,-0.305,1741408
0.006,0.313,0.945,-0.183,1741412
0.006,0.313,0.945,-0.183,1741416
0.008,0.313,0.948,-0.244,1741420
0.008,0.313,0.948,-0.427,1741424
0.01,0.312,0.947,-0.244,1741428
0.01,0.312,0.947,-0.244,1741432
0.01,0.312,0.947,-0.244,1741436
0.009,0.313,0.944,-0.183,1741440
0.009,0.313,0.944,-0.183,1741444
0.006,0.315,0.945,-0.183,1741448
0.006,0.315,0.945,-0.183,1741452
0.008,0.313,0.946,-0.183,1741456
0.008,0.313,0.946,-0.183,1741460
0.008,0.313,0.946,-0.122,1741464
0.008,0.313,0.946,-0.244,1741468
0.008,0.313,0.946,-0.244,1741472
0.007,0.313,0.945,-0.244,1741476
0.007,0.313,0.945,-0.244,1741480
0.007,0.313,0.945,-0.183,1741484
0.008,0.314,0.945,-0.305,1741487
0.008,0.314,0.945,-0.122,1741491
0.009,0.313,0.946,-0.183,1741495
0.009,0.313,0.946,-0.183,1741499
0.009,0.313,0.946,-0.183,1741503
0.009,0.312,0.947,0.0,1741507
0.009,0.312,0.947,-0.244,1741511
0.009,0.312,0.944,-0.244,1741515
0.009,0.312,0.944,-0.244,1741519
0.009,0.312,0.944,-0.244,1741523
0.01,0.312,0.945,-0.183,1741527
0.01,0.312,0.945,-0.183,1741531
0.009,0.314,0.947,-0.183,1741535
0.009,0.314,0.947,-0.183,1741539
0.009,0.314,0.947,-0.183,1741543
0.007,0.312,0.947,-0.183,1741547
0.007,0.312,0.947,-0.122,1741551
0.01,0.313,0.947,-0.183,1741555
0.01,0.313,0.947,-0.183,1741559
0.01,0.313,0.947,-0.244,1741563
0.01,0.312,0.945,-0.183,1741567
0.01,0.312,0.945,-0.305,1741571
0.007,0.311,0.946,-0.366,1741575
0.007,0.311,0.946,-0.366,1741579
0.007,0.311,0.946,-0.122,1741583
0.008,0.313,0.946,-0.122,1741587
0.008,0.313,0.946,-0.183,1741591
0.01,0.313,0.945,-0.244,1741595
0.01,0.313,0.945,-0.244,1741599
0.01,0.313,0.945,-0.305,1741603
0.008,0.313,0.945,-0.244,1741607
0.008,0.313,0.945,-0.244,1741611
0.007,0.312,0.945,-0.183,1741615
0.007,0.312,0.945,-0.183,1741619
0.007,0.312,0.945,-0.183,1741623
0.008,0.313,0.945,-0.183,1741627
0.008,0.313,0.945,-0.244,1741631
0.009,0.314,0.945,-0.366,1741635
0.009,0.314,0.945,-0.366,1741639
0.009,0.314,0.945,-0.244,1741643
0.007,0.313,0.946,-0.122,1741647
0.007,0.313,0.946,-0.061,1741651
0.007,0.312,0.944,-0.061,1741655
0.007,0.312,0.944,-0.061,1741659
0.007,0.312,0.944,0.0,1741663
0.008,0.316,0.944,-0.122,1741667
0.008,0.316,0.944,-0.061,1741671
0.007,0.315,0.943,-0.305,1741675
0.007,0.315,0.943,-0.305,1741679
0.007,0.315,0.943,-0.244,1741683
0.009,0.313,0.943,-0.183,1741687
0.009,0.313,0.943,-0.183,1741691
0.008,0.314,0.945,-0.244,1741695
0.008,0.314,0.945,-0.244,1741699
0.008,0.314,0.945,-0.183,1741702
0.008,0.315,0.944,-0.183,1741706
0.008,0.315,0.944,-0.183,1741710
0.009,0.313,0.946,-0.183,1741714
0.009,0.313,0.946,-0.183,1741718
0.009,0.313,0.946,-0.183,1741722
0.007,0.313,0.948,-0.122,1741726
0.007,0.313,0.948,0.061,1741730
0.008,0.313,0.946,-0.061,1741734
0.008,0.313,0.946,-0.183,1741738
0.008,0.313,0.946,-0.183,1741742
0.008,0.313,0.945,-0.244,1741746
0.008,0.313,0.945,-0.183,1741750
0.009,0.312,0.945,-0.183,1741754
0.009,0.312,0.945,-0.122,1741758
0.009,0.312,0.945,-0.122,1741762
0.007,0.312,0.946,-0.183,1741766
0.007,0.312,0.946,-0.183,1741770
0.007,0.312,0.945,-0.244,1741774
0.007,0.312,0.945,-0.183,1741778
0.007,0.312,0.945,-0.183,1741782
0.008,0.313,0.946,-0.244,1741786
0.008,0.313,0.946,-0.183,1741790
0.011,0.313,0.945,-0.183,1741794
0.011,0.313,0.945,-0.244,1741798
0.011,0.313,0.945,-0.244,1741802
0.01,0.313,0.944,-0.183,1741806
0.01,0.313,0.944,-0.122,1741810
0.009,0.313,0.946,-0.244,1741814
0.009,0.313,0.946,-0.183,1741818
0.009,0.313,0.946,-0.183,1741822
0.008,0.314,0.947,-0.183,1741826
0.008,0.314,0.947,-0.305,1741830
0.007,0.313,0.943,-0.244,1741834
0.007,0.313,0.943,-0.488,1741838
0.007,0.313,0.943,-0.488,1741842
0.009,0.313,0.945,-0.305,1741846
0.009,0.313,0.945,-0.183,1741850
0.007,0.312,0.946,-0.305,1741854
0.007,0.312,0.946,-0.183,1741858
0.007,0.312,0.946,-0.183,1741862
0.009,0.313,0.943,-0.183,1741866
0.009,0.313,0.943,-0.244,1741870
0.008,0.313,0.945,-0.183,1741874
0.008,0.313,0.945,-0.122,1741878
0.008,0.313,0.945,-0.122,1741882
0.008,0.314,0.946,0.0,1741886
0.008,0.314,0.946,-0.061,1741890
0.009,0.313,0.944,-0.122,1741894
0.009,0.313,0.944,-0.183,1741898
0.009,0.313,0.944,-0.183,1741902
0.008,0.313,0.946,-0.122,1741906
0.008,0.313,0.946,-0.183,1741910
0.006,0.313,0.945,-0.183,1741914
0.006,0.313,0.945,0.0,1741917
0.006,0.313,0.945,0.0,1741921
0.007,0.313,0.947,-0.122,1741925
0.007,0.313,0.947,-0.122,1741929
0.008,0.312,0.946,-0.183,1741933
0.008,0.312,0.946,-0.305,1741937
0.008,0.312,0.946,-0.305,1741941
0.009,0.311,0.945,-0.183,1741945
0.009,0.311,0.945,-0.183,1741949
0.008,0.313,0.946,-0.244,1741953
0.008,0.313,0.946,-0.122,1741957
0.008,0.313,0.946,-0.122,1741961
0.007,0.313,0.946,-0.183,1741965
0.007,0.313,0.946,-0.305,1741969
0.008,0.312,0.945,-0.122,1741973
0.008,0.312,0.945,-0.244,1741977
0.008,0.312,0.945,-0.244,1741981
0.009,0.312,0.946,-0.183,1741985
0.009,0.312,0.946,-0.061,1741989
0.009,0.312,0.945,-0.061,1741993
0.009,0.312,0.945,-0.244,1741997
0.009,0.312,0.945,-0.244,1742001
0.008,0.312,0.945,-0.122,1742005
0.008,0.312,0.945,-0.244,1742009
0.006,0.312,0.945,-0.244,1742013
0.006,0.312,0.945,-0.427,1742017
0.006,0.312,0.945,-0.427,1742021
0.008,0.313,0.945,-0.183,1742025
0.008,0.313,0.945,-0.122,1742029
0.008,0.313,0.945,-0.122,1742033
0.008,0.313,0.945,-0.183,1742037
0.008,0.312,0.946,-0.244,1742041
0.008,0.312,0.946,-0.244,1742045
0.008,0.312,0.946,-0.244,1742049
0.008,0.311,0.947,-0.183,1742053
0.008,0.311,0.947,-0.244,1742057
0.009,0.314,0.945,-0.183,1742061
0.009,0.314,0.945,-0.183,1742065
0.009,0.314,0.945,-0.122,1742069
0.007,0.314,0.945,-0.305,1742073
0.007,0.314,0.945,-0.305,1742077
0.008,0.314,0.945,-0.183,1742081
0.008,0.314,0.945,-0.183,1742085
0.008,0.314,0.945,-0.305,1742089
0.009,0.314,0.945,-0.122,1742093
0.009,0.314,0.945,-0.061,1742097
0.009,0.315,0.944,-0.122,1742101
0.009,0.315,0.944,-0.122,1742105
0.009,0.315,0.944,-0.305,1742109
0.007,0.312,0.947,-0.183,1742113
0.007,0.312,0.947,-0.305,1742117
0.008,0.312,0.946,-0.183,1742121
0.008,0.312,0.946,-0.183,1742125
0.008,0.312,0.946,-0.183,1742129
0.007,0.313,0.944,-0.183,1742133
0.007,0.313,0.944,-0.183,1742137
0.008,0.313,0.945,-0.305,1742140
0.008,0.313,0.945,-0.305,1742144
0.008,0.313,0.945,-0.244,1742148
0.008,0.312,0.946,-0.061,1742152
0.008,0.312,0.946,-0.244,1742156
0.008,0.313,0.947,-0.183,1742160
0.008,0.313,0.947,-0.183,1742164
0.008,0.313,0.947,-0.305,1742168
0.009,0.313,0.946,-0.183,1742172
0.009,0.313,0.946,-0.122,1742176
0.008,0.313,0.946,-0.244,1742180
0.008,0.313,0.946,-0.244,1742184
0.008,0.313,0.946,-0.244,1742188
0.006,0.313,0.946,-0.244,1742192
0.006,0.313,0.946,-0.183,1742196
0.009,0.313,0.946,-0.244,1742200
0.009,0.313,0.946,-0.244,1742204
0.009,0.313,0.946,-0.183,1742208
0.009,0.312,0.944,-0.061,1742212
0.009,0.312,0.944,-0.061,1742216
0.008,0.312,0.947,-0.244,1742220
0.008,0.312,0.947,-0.244,1742224
0.008,0.312,0.947,-0.183,1742228
0.007,0.314,0.945,-0.244,1742232
0.007,0.314,0.945,-0.183,1742236
0.006,0.314,0.942,-0.244,1742240
0.006,0.314,0.942,-0.244,1742244
0.006,0.314,0.942,-0.244,1742248
0.008,0.313,0.944,-0.244,1742252
0.008,0.313,0.944,-0.305,1742256
0.008,0.313,0.944,-0.366,1742260
0.008,0.313,0.944,-0.366,1742264
0.008,0.313,0.944,-0.122,1742268
0.007,0.312,0.946,-0.244,1742272
0.007,0.312,0.946,-0.244,1742276
0.009,0.313,0.946,-0.183,1742280
0.009,0.313,0.946,-0.183,1742284
0.009,0.313,0.946,-0.488,1742288
0.01,0.314,0.945,-0.366,1742292
0.01,0.314,0.945,-0.244,1742296
0.009,0.313,0.945,0.0,1742300
0.009,0.313,0.945,0.0,1742304
0.009,0.313,0.945,-0.183,1742307
0.008,0.312,0.945,-0.183,1742312
0.008,0.312,0.945,-0.183,1742316
0.01,0.313,0.946,-0.183,1742320
0.01,0.313,0.946,-0.183,1742323
0.01,0.313,0.946,-0.183,1742327
0.007,0.312,0.945,-0.183,1742331
0.007,0.312,0.945,-0.122,1742335
0.009,0.311,0.945,-0.122,1742339
0.009,0.311,0.945,-0.122,1742343
0.009,0.311,0.945,-0.305,1742347
0.01,0.312,0.947,-0.122,1742351
0.01,0.312,0.947,-0.244,1742355
0.009,0.312,0.945,-0.305,1742359
0.009,0.312,0.945,-0.305,1742363
0.009,0.312,0.945,-0.305,1742367
0.008,0.314,0.945,-0.183,1742371
0.008,0.314,0.945,-0.183,1742375
0.009,0.311,0.947,-0.305,1742379
0.009,0.311,0.947,-0.183,1742383
0.009,0.311,0.947,-0.183,1742387
0.009,0.312,0.945,-0.183,1742391
0.009,0.312,0.945,-0.244,1742395
0.007,0.314,0.946,-0.183,1742399
0.007,0.314,0.946,-0.183,1742403
0.007,0.314,0.946,-0.183,1742407
0.009,0.311,0.946,-0.122,1742411
0.009,0.311,0.946,-0.244,1742415
0.009,0.312,0.945,-0.122,1742419
0.009,0.312,0.945,-0.122,1742423
0.009,0.312,0.945,-0.122,1742427
0.009,0.313,0.945,-0.305,1742431
0.009,0.313,0.945,-0.183,1742435
0.008,0.313,0.945,-0.183,1742439
0.008,0.313,0.945,-0.244,1742443
0.008,0.313,0.945,-0.244,1742447
0.008,0.314,0.946,-0.244,1742451
0.008,0.314,0.946,-0.183,1742455
0.007,0.313,0.944,-0.244,1742459
0.007,0.313,0.944,-0.183,1742463
0.007,0.313,0.944,-0.183,1742467
0.009,0.313,0.945,-0.061,1742471
0.009,0.313,0.945,-0.183,1742475
0.007,0.313,0.945,-0.244,1742479
0.007,0.313,0.945,-0.183,1742483
0.007,0.313,0.945,-0.183,1742487
0.007,0.313,0.945,-0.122,1742491
0.007,0.313,0.945,-0.183,1742495
0.009,0.312,0.945,-0.244,1742499
0.009,0.312,0.945,-0.244,1742503
0.009,0.312,0.945,-0.244,1742507
0.008,0.314,0.945,-0.122,1742511
0.008,0.314,0.945,-0.305,1742515
0.008,0.313,0.944,-0.366,1742519
0.008,0.313,0.944,-0.122,1742523
0.008,0.313,0.944,-0.122,1742527
0.01,0.312,0.947,-0.122,1742531
0.01,0.312,0.947,-0.244,1742535
0.008,0.313,0.945,-0.366,1742539
0.008,0.313,0.945,-0.305,1742543
0.008,0.313,0.945,-0.305,1742547
0.008,0.312,0.945,-0.183,1742551
0.008,0.312,0.945,-0.061,1742555
0.009,0.312,0.945,-0.183,1742559
0.009,0.312,0.945,-0.122,1742563
0.009,0.313,0.945,-0.061,1742567
0.009,0.313,0.945,-0.061,1742571
0.009,0.313,0.945,-0.122,1742575
0.008,0.312,0.943,-0.183,1742579
0.008,0.312,0.943,-0.122,1742583
0.007,0.312,0.944,-0.183,1742587
0.007,0.312,0.944,-0.183,1742591
0.007,0.312,0.944,-0.061,1742595
0.009,0.312,0.946,0.0,1742599
0.009,0.312,0.946,-0.244,1742603
0.008,0.312,0.945,-0.305,1742607
0.008,0.312,0.945,-0.305,1742611
0.008,0.312,0.945,-0.244,1742615
0.009,0.313,0.946,-0.061,1742619
0.009,0.313,0.946,-0.061,1742623
0.007,0.313,0.947,-0.305,1742626
0.007,0.313,0.947,-0.305,1742630
0.007,0.313,0.947,-0.183,1742634
0.008,0.312,0.946,-0.183,1742638
0.008,0.312,0.946,-0.305,1742642
0.01,0.313,0.945,-0.244,1742646
0.01,0.313,0.945,-0.244,1742650
0.01,0.313,0.945,-0.122,1742654
0.009,0.312,0.944,-0.183,1742658
0.009,0.312,0.944,-0.122,1742662
0.008,0.314,0.945,-0.122,1742666
0.008,0.314,0.945,-0.122,1742670
0.008,0.314,0.945,-0.244,1742674
0.007,0.314,0.946,-0.122,1742678
0.007,0.314,0.946,-0.244,1742682
0.006,0.312,0.945,-0.183,1742686
0.006,0.312,0.945,-0.183,1742690
0.006,0.312,0.945,-0.122,1742694
0.009,0.312,0.944,-0.122,1742698
0.009,0.312,0.944,-0.244,1742702
0.008,0.311,0.945,-0.244,1742706
0.008,0.311,0.945,-0.244,1742710
0.008,0.311,0.945,-0.183,1742714
0.007,0.312,0.946,-0.122,1742718
0.007,0.312,0.946,-0.183,1742722
0.008,0.313,0.946,-0.244,1742726
0.008,0.313,0.946,-0.244,1742730
0.008,0.313,0.946,-0.244,1742734
0.008,0.312,0.945,-0.244,1742738
0.008,0.312,0.945,-0.183,1742742
0.009,0.311,0.947,-0.183,1742746
0.009,0.311,0.947,-0.183,1742750
0.009,0.311,0.947,-0.122,1742754
0.008,0.312,0.947,-0.244,1742758
0.008,0.312,0.947,-0.244,1742762
0.007,0.313,0.945,-0.183,1742766
0.007,0.313,0.945,-0.183,1742770
0.007,0.313,0.945,-0.366,1742774
0.009,0.313,0.944,-0.305,1742778
0.009,0.313,0.944,-0.305,1742782
0.009,0.313,0.945,-0.244,1742786
0.009,0.313,0.945,-0.244,1742790
0.009,0.313,0.945,-0.183,1742794
0.008,0.314,0.946,-0.244,1742798
0.008,0.314,0.946,-0.244,1742802
0.008,0.314,0.945,-0.244,1742806
0.008,0.314,0.945,-0.244,1742810
0.008,0.314,0.945,-0.183,1742814
0.008,0.314,0.946,-0.183,1742818
0.008,0.314,0.946,-0.122,1742822
0.009,0.314,0.945,-0.183,1742826
0.009,0.314,0.945,-0.183,1742830
0.009,0.314,0.945,-0.183,1742834
0.008,0.313,0.944,-0.183,1742837
0.008,0.313,0.944,-0.122,1742841
0.008,0.314,0.945,-0.061,1742845
0.008,0.314,0.945,-0.122,1742849
0.008,0.314,0.945,-0.122,1742853
0.009,0.312,0.946,-0.122,1742857
0.009,0.312,0.946,-0.305,1742861
0.008,0.312,0.946,-0.305,1742865
0.008,0.312,0.946,-0.183,1742869
0.008,0.312,0.946,-0.183,1742873
0.007,0.313,0.945,-0.183,1742877
0.007,0.313,0.945,-0.366,1742881
0.008,0.312,0.944,-0.183,1742885
0.008,0.312,0.944,-0.244,1742889
0.008,0.312,0.944,-0.244,1742893
0.007,0.313,0.945,-0.183,1742897
0.007,0.313,0.945,-0.183,1742901
0.006,0.313,0.945,-0.183,1742905
0.006,0.313,0.945,-0.183,1742909
0.006,0.313,0.945,-0.183,1742913
0.007,0.312,0.944,-0.305,1742917
0.007,0.312,0.944,-0.122,1742921
0.008,0.313,0.946,-0.183,1742925
0.008,0.313,0.946,-0.183,1742929
0.008,0.313,0.946,-0.183,1742933
0.008,0.313,0.946,-0.122,1742937
0.008,0.313,0.946,-0.183,1742941
0.007,0.312,0.943,-0.244,1742945
0.007,0.312,0.943,-0.244,1742949
0.007,0.312,0.943,-0.244,1742953
0.008,0.313,0.945,-0.305,1742957
0.008,0.313,0.945,-0.122,1742961
0.01,0.312,0.945,-0.183,1742965
0.01,0.312,0.945,-0.183,1742969
0.01,0.312,0.945,-0.183,1742973
0.009,0.312,0.946,-0.305,1742977
0.009,0.312,0.946,-0.305,1742981
0.007,0.313,0.945,-0.244,1742985
0.007,0.313,0.945,-0.244,1742989
0.007,0.313,0.945,-0.244,1742993
0.008,0.313,0.946,-0.183,1742997
0.008,0.313,0.946,-0.244,1743001
0.008,0.314,0.945,-0.183,1743005
0.008,0.314,0.945,-0.244,1743009
0.008,0.314,0.945,-0.244,1743013
0.009,0.314,0.945,-0.183,1743017
0.009,0.314,0.945,-0.122,1743021
0.009,0.314,0.943,-0.122,1743025
0.009,0.314,0.943,-0.183,1743029
0.009,0.314,0.943,-0.183,1743033
0.008,0.314,0.946,-0.183,1743037
0.008,0.314,0.946,-0.122,1743041
0.009,0.315,0.946,-0.244,1743045
0.009,0.315,0.946,-0.366,1743049
0.009,0.315,0.946,-0.366,1743053
0.01,0.314,0.945,-0.183,1743057
0.01,0.314,0.945,-0.122,1743061
0.009,0.312,0.945,-0.183,1743065
0.009,0.312,0.945,-0.305,1743069
0.007,0.313,0.946,-0.244,1743073
0.007,0.313,0.946,-0.244,1743077
0.007,0.313,0.946,-0.244,1743081
0.009,0.312,0.944,-0.244,1743085
0.009,0.312,0.944,-0.122,1743089
0.009,0.313,0.945,-0.183,1743093
0.009,0.313,0.945,-0.183,1743097
0.009,0.313,0.945,-0.122,1743100
0.007,0.312,0.946,-0.183,1743104
0.007,0.312,0.946,-0.122,1743108
0.008,0.312,0.946,-0.122,1743112
0.008,0.312,0.946,-0.122,1743116
0.008,0.312,0.946,-0.305,1743120
0.008,0.313,0.947,-0.366,1743124
0.008,0.313,0.947,-0.244,1743128
0.008,0.313,0.946,-0.061,1743132
0.008,0.313,0.946,-0.061,1743136
0.008,0.313,0.946,-0.183,1743140
0.009,0.312,0.944,-0.244,1743144
0.009,0.312,0.944,-0.305,1743148
0.008,0.313,0.945,-0.183,1743152
0.008,0.313,0.945,-0.183,1743156
0.008,0.313,0.945,-0.244,1743160
0.007,0.313,0.945,-0.061,1743164
0.007,0.313,0.945,-0.122,1743168
0.007,0.312,0.946,-0.244,1743172
0.007,0.312,0.946,-0.244,1743176
0.007,0.312,0.946,-0.244,1743180
0.008,0.312,0.945,-0.122,1743184
0.008,0.312,0.945,-0.122,1743188
0.01,0.313,0.947,-0.244,1743192
0.01,0.313,0.947,-0.244,1743196
0.01,0.313,0.947,-0.183,1743200
0.01,0.313,0.946,-0.244,1743204
0.01,0.313,0.946,-0.061,1743208
0.009,0.312,0.945,-0.183,1743212
0.009,0.312,0.945,-0.183,1743216
0.009,0.312,0.945,-0.244,1743220
0.009,0.312,0.944,-0.305,1743224
0.009,0.312,0.944,-0.122,1743228
0.009,0.313,0.945,-0.183,1743232
0.009,0.313,0.945,-0.183,1743236
0.009,0.313,0.945,-0.305,1743240
0.007,0.313,0.944,-0.061,1743244
0.007,0.313,0.944,-0.061,1743248
0.008,0.313,0.945,-0.183,1743252
0.008,0.313,0.945,-0.183,1743256
0.008,0.313,0.945,-0.244,1743260
0.009,0.312,0.947,-0.183,1743264
0.009,0.312,0.947,-0.122,1743268
0.008,0.312,0.946,-0.122,1743272
0.008,0.312,0.946,-0.122,1743276
0.008,0.312,0.946,-0.183,1743280
0.008,0.313,0.945,-0.244,1743284
0.008,0.313,0.945,-0.244,1743288
0.007,0.313,0.945,-0.183,1743292
0.007,0.313,0.945,-0.183,1743296
0.007,0.313,0.945,-0.244,1743300
0.008,0.313,0.944,-0.244,1743304
0.008,0.313,0.944,-0.244,1743308
0.009,0.314,0.946,-0.244,1743312
0.009,0.314,0.946,-0.244,1743316
0.009,0.314,0.946,-0.244,1743320
0.009,0.313,0.947,-0.244,1743324
0.009,0.313,0.947,-0.183,1743327
0.009,0.313,0.944,-0.061,1743331
0.009,0.313,0.944,-0.061,1743335
0.009,0.313,0.944,-0.061,1743339
0.009,0.312,0.944,-0.183,1743343
0.009,0.312,0.944,-0.183,1743347
0.007,0.313,0.945,-0.244,1743351
0.007,0.313,0.945,-0.244,1743355
0.007,0.313,0.945,-0.244,1743359
0.008,0.312,0.944,-0.183,1743363
0.008,0.312,0.944,-0.244,1743367
0.008,0.313,0.944,-0.183,1743371
0.008,0.313,0.944,-0.183,1743375
0.008,0.313,0.944,-0.183,1743379
0.008,0.312,0.946,-0.122,1743383
0.008,0.312,0.946,-0.183,1743387
0.007,0.312,0.946,-0.244,1743391
0.007,0.312,0.946,-0.122,1743395
0.007,0.312,0.946,-0.122,1743399
0.007,0.312,0.945,-0.305,1743403
0.007,0.312,0.945,-0.305,1743407
0.01,0.312,0.947,-0.305,1743411
0.01,0.312,0.947,-0.183,1743415
0.01,0.312,0.947,-0.183,1743419
0.009,0.313,0.947,-0.122,1743423
0.009,0.313,0.947,-0.183,1743427
0.009,0.312,0.944,-0.244,1743431
0.009,0.312,0.944,-0.244,1743435
0.009,0.312,0.944,-0.244,1743439
0.008,0.312,0.945,-0.183,1743443
0.008,0.312,0.945,-0.122,1743447
0.007,0.313,0.945,-0.122,1743451
0.007,0.313,0.945,-0.122,1743455
0.007,0.313,0.945,-0.122,1743459
0.008,0.314,0.944,-0.244,1743463
0.008,0.314,0.944,-0.244,1743467
0.009,0.314,0.946,0.0,1743471
0.009,0.314,0.946,-0.061,1743475
0.009,0.314,0.946,-0.061,1743479
0.009,0.314,0.944,-0.183,1743483
0.009,0.314,0.944,-0.305,1743487
0.007,0.312,0.944,-0.244,1743491
0.007,0.312,0.944,-0.061,1743495
0.007,0.312,0.944,-0.061,1743499
0.007,0.314,0.945,0.061,1743503
0.007,0.314,0.945,-0.061,1743507
0.007,0.313,0.946,-0.183,1743511
0.007,0.313,0.946,-0.183,1743515
0.007,0.313,0.946,-0.183,1743519
0.007,0.313,0.945,-0.122,1743523
0.007,0.313,0.945,-0.244,1743527
0.009,0.313,0.945,-0.122,1743531
0.009,0.313,0.945,-0.122,1743535
0.009,0.313,0.945,-0.122,1743539
0.007,0.312,0.945,-0.244,1743543
0.007,0.312,0.945,-0.244,1743547
0.008,0.313,0.945,-0.122,1743551
0.008,0.313,0.945,0.0,1743554
0.008,0.313,0.945,0.0,1743558
0.008,0.313,0.944,-0.122,1743562
0.008,0.313,0.944,-0.183,1743566
0.01,0.312,0.946,-0.183,1743570
0.01,0.312,0.946,-0.183,1743574
0.01,0.312,0.946,-0.183,1743578
0.008,0.311,0.946,-0.061,1743582
0.008,0.311,0.946,-0.244,1743586
0.007,0.313,0.945,-0.183,1743590
0.007,0.313,0.945,-0.122,1743594
0.007,0.313,0.945,-0.122,1743598
0.007,0.313,0.946,-0.183,1743602
0.007,0.313,0.946,-0.183,1743606
0.007,0.312,0.945,-0.244,1743610
0.007,0.312,0.945,-0.305,1743614
0.007,0.312,0.945,-0.305,1743618
0.008,0.314,0.946,-0.183,1743622
0.008,0.314,0.946,-0.305,1743626
0.01,0.313,0.946,-0.305,1743630
0.01,0.313,0.946,-0.244,1743634
0.01,0.313,0.946,-0.244,1743638
0.008,0.312,0.945,-0.183,1743642
0.008,0.312,0.945,-0.244,1743646
0.009,0.313,0.945,-0.244,1743650
0.009,0.313,0.945,-0.366,1743654
0.009,0.313,0.945,-0.366,1743658
0.008,0.313,0.945,-0.244,1743662
0.008,0.313,0.945,-0.122,1743666
0.007,0.314,0.946,-0.183,1743670
0.007,0.314,0.946,-0.244,1743674
0.006,0.314,0.944,-0.183,1743678
0.006,0.314,0.944,-0.183,1743682
0.006,0.314,0.944,-0.244,1743686
0.008,0.314,0.944,-0.183,1743690
0.008,0.314,0.944,-0.122,1743694
0.01,0.312,0.946,-0.244,1743698
0.01,0.312,0.946,-0.244,1743702
0.01,0.312,0.946,-0.305,1743706
0.009,0.314,0.945,-0.122,1743710
0.009,0.314,0.945,-0.183,1743714
0.008,0.313,0.946,-0.122,1743718
0.008,0.313,0.946,-0.122,1743722
0.008,0.313,0.946,-0.183,1743726
0.008,0.313,0.944,-0.366,1743730
0.008,0.313,0.944,-0.244,1743734
0.009,0.312,0.944,-0.244,1743737
0.009,0.312,0.944,-0.244,1743741
0.009,0.312,0.944,-0.183,1743745
0.008,0.311,0.946,-0.122,1743749
0.008,0.311,0.946,-0.183,1743753
0.009,0.312,0.947,-0.183,1743757
0.009,0.312,0.947,-0.183,1743761
0.009,0.312,0.947,-0.183,1743765
0.01,0.312,0.945,-0.244,1743769
0.01,0.312,0.945,-0.122,1743773
0.009,0.312,0.946,0.0,1743777
0.009,0.312,0.946,0.0,1743781
0.009,0.312,0.946,-0.122,1743785
0.008,0.315,0.945,-0.061,1743789
0.008,0.315,0.945,-0.183,1743793
0.007,0.313,0.945,-0.122,1743797
0.007,0.313,0.945,-0.122,1743801
0.007,0.313,0.945,-0.122,1743805
0.008,0.312,0.947,-0.061,1743809
0.008,0.312,0.947,-0.122,1743813
0.01,0.311,0.946,-0.061,1743817
0.01,0.311,0.946,-0.061,1743821
0.01,0.311,0.946,-0.183,1743825
0.008,0.313,0.945,-0.122,1743829
0.008,0.313,0.945,-0.305,1743833
0.007,0.312,0.945,-0.122,1743837
0.007,0.312,0.945,-0.122,1743841
0.007,0.312,0.945,-0.122,1743845
0.009,0.313,0.946,-0.183,1743849
0.009,0.313,0.946,-0.244,1743853
0.009,0.315,0.947,-0.122,1743857
0.009,0.315,0.947,-0.122,1743861
0.009,0.315,0.947,-0.244,1743865
0.007,0.313,0.944,-0.305,1743869
0.007,0.313,0.944,-0.244,1743873
0.008,0.312,0.944,-0.244,1743877
0.008,0.312,0.944,-0.244,1743881
0.008,0.312,0.944,-0.122,1743885
0.009,0.312,0.946,-0.183,1743889
0.009,0.312,0.946,-0.305,1743893
0.009,0.312,0.945,-0.305,1743897
0.009,0.312,0.945,-0.305,1743901
0.009,0.312,0.945,-0.244,1743905
0.009,0.314,0.943,-0.305,1743909
0.009,0.314,0.943,-0.305,1743913
0.007,0.314,0.945,-0.122,1743917
0.007,0.314,0.945,-0.122,1743921
0.007,0.314,0.945,-0.366,1743925
0.007,0.312,0.947,-0.305,1743929
0.007,0.312,0.947,-0.244,1743933
0.007,0.312,0.947,-0.244,1743937
0.007,0.312,0.947,-0.305,1743941
0.007,0.312,0.947,-0.305,1743945
0.008,0.312,0.946,-0.122,1743948
0.008,0.312,0.946,-0.122,1743952
0.009,0.313,0.946,-0.183,1743956
0.009,0.313,0.946,-0.183,1743960
0.009,0.313,0.946,-0.183,1743964
0.009,0.312,0.945,-0.183,1743968
0.009,0.312,0.945,-0.244,1743972
0.01,0.312,0.944,-0.244,1743976
0.01,0.312,0.944,-0.244,1743980
0.01,0.312,0.944,-0.244,1743984
0.009,0.313,0.944,-0.305,1743988
0.009,0.313,0.944,-0.305,1743992
0.007,0.313,0.946,-0.061,1743996
0.007,0.313,0.946,-0.183,1744000
0.007,0.313,0.946,-0.183,1744004
0.009,0.313,0.944,-0.244,1744008
0.009,0.313,0.944,-0.305,1744012
0.008,0.313,0.944,-0.061,1744016
0.008,0.313,0.944,-0.244,1744020
0.008,0.313,0.944,-0.244,1744024
0.007,0.313,0.946,-0.183,1744028
0.007,0.313,0.946,-0.183,1744032
0.008,0.312,0.946,-0.183,1744036
0.008,0.312,0.946,-0.183,1744040
0.008,0.312,0.946,-0.183,1744044
0.007,0.314,0.945,-0.183,1744048
0.007,0.314,0.945,0.0,1744052
0.009,0.314,0.945,-0.122,1744056
0.009,0.314,0.945,-0.122,1744060
0.009,0.314,0.945,-0.122,1744064
0.008,0.315,0.945,-0.244,1744068
0.008,0.315,0.945,-0.183,1744072
0.009,0.313,0.945,-0.305,1744076
0.009,0.313,0.945,-0.183,1744080
0.009,0.313,0.945,-0.183,1744084
0.009,0.312,0.947,-0.183,1744088
0.009,0.312,0.947,-0.244,1744092
0.008,0.313,0.944,-0.244,1744096
0.008,0.313,0.944,-0.244,1744100
0.008,0.313,0.944,-0.244,1744104
0.009,0.312,0.942,-0.244,1744108
0.009,0.312,0.942,-0.305,1744112
0.008,0.312,0.944,-0.244,1744116
0.008,0.312,0.944,-0.244,1744120
0.008,0.312,0.944,-0.244,1744124
0.008,0.312,0.945,-0.244,1744128
0.008,0.312,0.945,-0.244,1744132
0.008,0.311,0.946,-0.183,1744136
0.008,0.311,0.946,-0.183,1744140
0.008,0.311,0.946,-0.183,1744144
0.009,0.312,0.947,-0.122,1744148
0.009,0.312,0.947,-0.244,1744152
0.009,0.312,0.945,-0.183,1744156
0.009,0.312,0.945,-0.061,1744160
0.009,0.312,0.945,-0.061,1744164
0.008,0.312,0.946,-0.244,1744168
0.008,0.312,0.946,-0.305,1744172
0.008,0.314,0.944,-0.183,1744176
0.008,0.314,0.944,-0.122,1744180
0.008,0.314,0.944,-0.122,1744184
0.01,0.313,0.946,-0.122,1744188
0.01,0.313,0.946,-0.244,1744192
0.01,0.313,0.945,-0.244,1744196
0.01,0.313,0.945,-0.183,1744199
0.009,0.312,0.945,-0.244,1744204
0.009,0.312,0.945,-0.244,1744208
0.009,0.312,0.945,-0.183,1744212
0.008,0.313,0.946,-0.183,1744216
0.008,0.313,0.946,-0.183,1744220
0.009,0.312,0.947,-0.244,1744223
0.009,0.312,0.947,-0.244,1744227
0.009,0.312,0.947,-0.122,1744231
0.008,0.312,0.944,-0.122,1744235
0.008,0.312,0.944,-0.183,1744239
0.009,0.313,0.944,-0.244,1744243
0.009,0.313,0.944,-0.244,1744247
0.009,0.313,0.944,-0.183,1744251
0.009,0.314,0.946,-0.061,1744255
0.009,0.314,0.946,-0.183,1744259
0.009,0.313,0.944,-0.244,1744263
0.009,0.313,0.944,-0.244,1744267
0.009,0.313,0.944,-0.244,1744271
0.008,0.313,0.945,-0.305,1744275
0.008,0.313,0.945,-0.244,1744279
0.009,0.312,0.943,-0.305,1744283
0.009,0.312,0.943,-0.305,1744287
0.009,0.312,0.943,-0.305,1744291
0.009,0.313,0.945,-0.122,1744295
0.009,0.313,0.945,-0.183,1744299
0.008,0.312,0.945,-0.244,1744303
0.008,0.312,0.945,-0.244,1744307
0.008,0.312,0.945,-0.183,1744311
0.008,0.313,0.945,-0.183,1744315
0.008,0.313,0.945,-0.183,1744319
0.008,0.313,0.946,-0.122,1744323
0.008,0.313,0.946,-0.122,1744327
0.008,0.313,0.946,-0.183,1744331
0.009,0.311,0.944,-0.244,1744335
0.009,0.311,0.944,-0.122,1744339
0.007,0.311,0.946,-0.122,1744343
0.007,0.311,0.946,-0.122,1744347
0.007,0.311,0.946,-0.183,1744351
0.005,0.312,0.946,-0.122,1744355
0.005,0.312,0.946,-0.244,1744359
0.008,0.313,0.944,-0.244,1744363
0.008,0.313,0.944,-0.244,1744367
0.008,0.313,0.944,-0.183,1744371
0.008,0.312,0.945,-0.244,1744375
0.008,0.312,0.945,-0.244,1744379
0.009,0.312,0.944,-0.244,1744383
0.009,0.312,0.944,-0.244,1744387
0.009,0.312,0.944,-0.122,1744391
0.008,0.312,0.945,-0.183,1744395
0.008,0.312,0.945,-0.305,1744399
0.008,0.313,0.945,-0.183,1744403
0.008,0.313,0.945,-0.122,1744407
0.008,0.313,0.945,-0.122,1744411
0.008,0.313,0.946,-0.122,1744415
0.008,0.313,0.946,-0.183,1744419
0.008,0.312,0.945,-0.122,1744423
0.008,0.312,0.945,-0.183,1744427
0.008,0.312,0.945,-0.183,1744431
0.008,0.314,0.944,-0.122,1744435
0.008,0.314,0.944,-0.122,1744439
0.008,0.313,0.945,-0.183,1744443
0.008,0.313,0.945,-0.244,1744447
0.008,0.313,0.945,-0.244,1744451
0.008,0.313,0.944,-0.244,1744455
0.008,0.313,0.944,-0.122,1744459
0.008,0.312,0.945,-0.061,1744463
0.008,0.312,0.945,-0.244,1744467
0.008,0.312,0.945,-0.244,1744471
0.009,0.314,0.946,-0.305,1744475
0.009,0.314,0.946,-0.183,1744479
0.008,0.313,0.947,-0.061,1744483
0.008,0.313,0.947,-0.183,1744487
0.008,0.313,0.947,-0.183,1744491
0.007,0.312,0.947,-0.183,1744495
0.007,0.312,0.947,-0.122,1744498
0.008,0.313,0.945,-0.244,1744502
0.008,0.313,0.945,-0.183,1744506
0.008,0.313,0.945,-0.183,1744510
0.008,0.313,0.946,-0.244,1744514
0.008,0.313,0.946,-0.305,1744518
0.01,0.312,0.944,-0.244,1744522
0.01,0.312,0.944,-0.183,1744526
0.01,0.312,0.944,-0.183,1744530
0.009,0.314,0.945,-0.244,1744534
0.009,0.314,0.945,-0.244,1744538
0.007,0.313,0.946,-0.183,1744542
0.007,0.313,0.946,-0.244,1744546
0.007,0.313,0.946,-0.244,1744550
0.008,0.312,0.944,-0.183,1744554
0.008,0.312,0.944,-0.305,1744558
0.006,0.313,0.943,-0.244,1744562
0.006,0.313,0.943,-0.122,1744566
0.006,0.313,0.943,-0.122,1744570
0.009,0.312,0.944,-0.122,1744574
0.009,0.312,0.944,-0.244,1744578
0.01,0.312,0.946,-0.183,1744582
0.01,0.312,0.946,-0.183,1744586
0.01,0.312,0.946,-0.183,1744590
0.007,0.313,0.946,-0.244,1744594
0.007,0.313,0.946,-0.183,1744598
0.008,0.313,0.945,-0.366,1744602
0.008,0.313,0.945,-0.305,1744606
0.008,0.313,0.946,-0.366,1744610
0.008,0.313,0.946,-0.366,1744614
0.008,0.313,0.946,-0.305,1744618
0.007,0.311,0.946,-0.183,1744622
0.007,0.311,0.946,-0.183,1744626
0.008,0.313,0.945,-0.244,1744630
0.008,0.313,0.945,-0.244,1744634
0.008,0.313,0.945,-0.244,1744638
0.008,0.312,0.943,-0.183,1744642
0.008,0.312,0.943,-0.183,1744646
0.009,0.314,0.945,-0.183,1744650
0.009,0.314,0.945,-0.183,1744654
0.009,0.314,0.945,-0.183,1744658
0.011,0.313,0.945,-0.183,1744662
0.011,0.313,0.945,-0.183,1744666
0.008,0.311,0.945,-0.122,1744670
0.008,0.311,0.945,-0.122,1744674
0.008,0.311,0.945,-0.122,1744678
0.008,0.312,0.946,-0.061,1744682
0.008,0.312,0.946,-0.061,1744686
0.007,0.312,0.946,-0.183,1744690
0.007,0.312,0.946,-0.183,1744694
0.007,0.312,0.946,-0.183,1744698
0.009,0.313,0.946,-0.183,1744702
0.009,0.313,0.946,-0.183,1744706
0.009,0.313,0.947,-0.061,1744710
0.009,0.313,0.947,-0.061,1744714
0.009,0.313,0.947,-0.122,1744718
0.007,0.312,0.946,-0.183,1744722
0.007,0.312,0.946,-0.183,1744726
0.008,0.313,0.945,-0.305,1744730
0.008,0.313,0.945,-0.305,1744734
0.008,0.313,0.945,-0.244,1744738
0.007,0.312,0.945,-0.244,1744742
0.007,0.312,0.945,-0.244,1744746
0.007,0.313,0.946,-0.183,1744750
0.007,0.313,0.946,-0.183,1744754
0.007,0.313,0.946,-0.244,1744758
0.007,0.313,0.945,-0.122,1744762
0.007,0.313,0.945,-0.244,1744766
0.007,0.313,0.944,-0.305,1744770
0.007,0.313,0.944,-0.305,1744774
0.007,0.313,0.944,-0.183,1744778
0.007,0.313,0.945,0.0,1744781
0.007,0.313,0.945,-0.122,1744785
0.007,0.313,0.945,-0.183,1744789
0.007,0.313,0.945,-0.183,1744793
0.007,0.313,0.945,-0.244,1744797
0.007,0.314,0.946,-0.244,1744801
0.007,0.314,0.946,-0.305,1744805
0.007,0.314,0.945,-0.122,1744809
0.007,0.314,0.945,-0.122,1744813
0.007,0.314,0.945,-0.183,1744817
0.008,0.314,0.944,-0.122,1744821
0.008,0.314,0.944,-0.122,1744825
0.008,0.315,0.946,-0.122,1744829
0.008,0.315,0.946,-0.122,1744833
0.008,0.315,0.946,-0.122,1744837
0.008,0.314,0.944,-0.305,1744841
0.008,0.314,0.944,-0.244,1744845
0.008,0.313,0.945,-0.122,1744849
0.008,0.313,0.945,-0.122,1744853
0.008,0.313,0.945,-0.305,1744857
0.008,0.314,0.947,-0.305,1744861
0.008,0.314,0.947,-0.244,1744865
0.009,0.312,0.945,-0.244,1744869
0.009,0.312,0.945,-0.183,1744873
0.009,0.312,0.945,-0.183,1744877
0.007,0.313,0.944,-0.061,1744881
0.007,0.313,0.944,-0.061,1744885
0.007,0.313,0.947,-0.122,1744889
0.007,0.313,0.947,-0.183,1744893
0.007,0.313,0.947,-0.183,1744897
0.009,0.313,0.944,-0.122,1744901
0.009,0.313,0.944,-0.183,1744905
0.007,0.312,0.944,-0.122,1744909
0.007,0.312,0.944,-0.183,1744913
0.007,0.312,0.944,-0.183,1744917
0.007,0.312,0.945,-0.183,1744921
0.007,0.312,0.945,-0.122,1744925
0.007,0.313,0.944,0.0,1744929
0.007,0.313,0.944,0.0,1744933
0.007,0.313,0.944,0.0,1744937
0.009,0.314,0.945,-0.183,1744941
0.009,0.314,0.945,-0.122,1744945
0.009,0.312,0.946,0.0,1744949
0.009,0.312,0.946,-0.122,1744953
0.009,0.312,0.946,-0.122,1744956
0.007,0.312,0.945,-0.244,1744961
0.007,0.312,0.945,-0.305,1744965
0.009,0.314,0.945,-0.244,1744969
0.009,0.314,0.945,-0.305,1744972
0.009,0.314,0.945,-0.305,1744976
0.008,0.313,0.945,-0.244,1744980
0.008,0.313,0.945,-0.244,1744984
0.008,0.313,0.946,-0.183,1744988
0.008,0.313,0.946,-0.122,1744992
0.008,0.313,0.946,-0.122,1744996
0.008,0.313,0.947,-0.183,1745000
0.008,0.313,0.947,-0.244,1745004
0.008,0.313,0.947,-0.183,1745008
0.008,0.313,0.947,-0.183,1745012
0.008,0.313,0.947,-0.183,1745016
0.009,0.312,0.947,-0.244,1745020
0.009,0.312,0.947,-0.183,1745024
0.008,0.314,0.945,-0.122,1745028
0.008,0.314,0.945,-0.183,1745032
0.008,0.314,0.945,-0.183,1745036
0.008,0.314,0.946,-0.244,1745040
0.008,0.314,0.946,-0.244,1745044
0.008,0.312,0.946,-0.122,1745048
0.008,0.312,0.946,-0.183,1745052
0.008,0.312,0.946,-0.183,1745056
0.009,0.312,0.946,-0.183,1745060
0.009,0.312,0.946,-0.305,1745064
0.007,0.313,0.945,-0.305,1745068
0.007,0.313,0.945,-0.183,1745072
0.007,0.313,0.945,-0.183,1745076
0.006,0.313,0.945,-0.122,1745080
0.006,0.313,0.945,-0.244,1745084
0.007,0.312,0.946,-0.244,1745088
0.007,0.312,0.946,-0.183,1745092
0.007,0.312,0.946,-0.183,1745096
0.008,0.312,0.944,-0.183,1745100
0.008,0.312,0.944,-0.183,1745104
0.007,0.312,0.945,-0.244,1745108
0.007,0.312,0.945,-0.183,1745112
0.007,0.313,0.945,-0.244,1745116
0.007,0.313,0.945,-0.244,1745120
0.007,0.313,0.945,-0.366,1745124
0.008,0.313,0.945,-0.244,1745128
0.008,0.313,0.945,-0.244,1745132
0.009,0.312,0.946,-0.244,1745136
0.009,0.312,0.946,-0.244,1745140
0.009,0.312,0.946,-0.244,1745144
0.007,0.313,0.947,-0.183,1745148
0.007,0.313,0.947,-0.183,1745152
0.008,0.314,0.946,-0.305,1745156
0.008,0.314,0.946,-0.305,1745160
0.008,0.314,0.946,-0.244,1745164
0.008,0.312,0.945,-0.244,1745168
0.008,0.312,0.945,-0.122,1745172
0.009,0.313,0.946,-0.244,1745176
0.009,0.313,0.946,-0.244,1745180
0.009,0.313,0.946,-0.183,1745184
0.009,0.314,0.945,-0.183,1745188
0.009,0.314,0.945,-0.122,1745192
0.008,0.313,0.945,-0.183,1745196
0.008,0.313,0.945,-0.183,1745200
0.008,0.313,0.945,-0.244,1745204
0.008,0.313,0.946,-0.183,1745208
0.008,0.313,0.946,-0.183,1745212
0.009,0.313,0.945,-0.244,1745216
0.009,0.313,0.945,-0.244,1745220
0.009,0.313,0.945,-0.183,1745224
0.008,0.313,0.947,-0.305,1745228
0.008,0.313,0.947,-0.244,1745232
0.007,0.313,0.947,-0.244,1745236
0.007,0.313,0.947,-0.244,1745240
0.007,0.313,0.947,-0.244,1745244
0.01,0.312,0.947,-0.183,1745248
0.01,0.312,0.947,-0.122,1745252
0.009,0.312,0.946,-0.122,1745256
0.009,0.312,0.946,-0.122,1745260
0.009,0.312,0.946,-0.244,1745264
0.01,0.312,0.945,-0.244,1745268
0.01,0.312,0.945,-0.122,1745272
0.009,0.313,0.945,-0.061,1745276
0.009,0.313,0.945,-0.061,1745280
0.009,0.313,0.945,-0.244,1745284
0.008,0.313,0.947,-0.244,1745288
0.008,0.313,0.947,-0.122,1745292
0.009,0.312,0.945,-0.183,1745296
0.009,0.312,0.945,-0.183,1745300
0.009,0.312,0.945,-0.183,1745304
0.008,0.312,0.945,-0.366,1745308
0.008,0.312,0.945,-0.305,1745312
0.007,0.313,0.947,-0.244,1745316
0.007,0.313,0.947,-0.244,1745320
0.007,0.313,0.947,-0.244,1745323
0.009,0.312,0.946,-0.244,1745327
0.009,0.312,0.946,-0.061,1745331
0.01,0.312,0.946,-0.061,1745335
0.01,0.312,0.946,-0.122,1745339
0.01,0.312,0.946,-0.122,1745343
0.008,0.313,0.945,-0.183,1745347
0.008,0.313,0.945,-0.244,1745351
0.006,0.312,0.946,-0.183,1745355
0.006,0.312,0.946,-0.244,1745359
0.006,0.312,0.946,-0.244,1745363
0.008,0.312,0.946,-0.122,1745367
0.008,0.312,0.946,-0.122,1745371
0.008,0.314,0.946,-0.122,1745375
0.008,0.314,0.946,-0.305,1745379
0.008,0.314,0.946,-0.305,1745383
0.008,0.313,0.947,-0.305,1745387
0.008,0.313,0.947,-0.183,1745391
0.008,0.313,0.946,-0.183,1745395
0.008,0.313,0.946,-0.183,1745399
0.008,0.313,0.946,-0.183,1745403
0.009,0.313,0.944,-0.244,1745407
0.009,0.313,0.944,-0.366,1745411
0.009,0.313,0.944,-0.244,1745415
0.009,0.313,0.944,-0.183,1745419
0.009,0.313,0.944,-0.183,1745423
0.008,0.313,0.944,-0.244,1745427
0.008,0.313,0.944,-0.183,1745431
0.008,0.314,0.945,-0.183,1745435
0.008,0.314,0.945,-0.244,1745439
0.008,0.314,0.945,-0.244,1745443
0.007,0.314,0.946,-0.305,1745447
0.007,0.314,0.946,-0.244,1745451
0.009,0.312,0.946,-0.183,1745455
0.009,0.312,0.946,-0.244,1745459
0.009,0.312,0.946,-0.244,1745463
0.009,0.313,0.946,-0.183,1745467
0.009,0.313,0.946,-0.122,1745471
0.009,0.313,0.945,0.0,1745475
0.009,0.313,0.945,-0.122,1745479
0.009,0.313,0.945,-0.122,1745483
0.008,0.313,0.945,-0.061,1745487
0.008,0.313,0.945,-0.183,1745491
0.01,0.312,0.945,-0.366,1745495
0.01,0.312,0.945,-0.305,1745499
0.01,0.312,0.945,-0.305,1745503
0.008,0.312,0.946,-0.122,1745506
0.008,0.312,0.946,-0.183,1745510
0.008,0.311,0.944,-0.305,1745514
0.008,0.311,0.944,-0.244,1745518
0.008,0.311,0.944,-0.244,1745522
0.008,0.313,0.945,-0.244,1745526
0.008,0.313,0.945,-0.183,1745530
0.009,0.312,0.948,-0.244,1745534
0.009,0.312,0.948,-0.244,1745538
0.009,0.312,0.948,-0.244,1745542
0.008,0.314,0.947,-0.183,1745546
0.008,0.314,0.947,-0.244,1745550
0.008,0.313,0.947,-0.244,1745554
0.008,0.313,0.947,-0.305,1745558
0.008,0.313,0.947,-0.305,1745562
0.009,0.312,0.944,-0.244,1745566
0.009,0.312,0.944,-0.183,1745570
0.009,0.314,0.945,-0.183,1745574
0.009,0.314,0.945,-0.305,1745578
0.009,0.314,0.945,-0.305,1745582
0.007,0.313,0.945,-0.183,1745586
0.007,0.313,0.945,-0.244,1745590
0.009,0.312,0.943,-0.183,1745594
0.009,0.312,0.943,-0.122,1745598
0.01,0.311,0.945,-0.244,1745602
0.01,0.311,0.945,-0.244,1745606
0.01,0.311,0.945,-0.305,1745610
0.009,0.312,0.946,-0.244,1745614
0.009,0.312,0.946,-0.183,1745618
0.006,0.312,0.945,-0.183,1745622
0.006,0.312,0.945,-0.183,1745626
0.006,0.312,0.945,-0.183,1745630
0.007,0.315,0.945,-0.305,1745634
0.007,0.315,0.945,-0.244,1745638
0.007,0.313,0.946,-0.061,1745642
0.007,0.313,0.946,-0.061,1745646
0.007,0.313,0.946,-0.183,1745650
0.008,0.313,0.946,-0.305,1745654
0.008,0.313,0.946,-0.122,1745658
0.007,0.313,0.943,-0.183,1745662
0.007,0.313,0.943,-0.183,1745666
0.007,0.313,0.943,-0.244,1745670
0.007,0.313,0.945,-0.122,1745674
0.007,0.313,0.945,-0.183,1745678
0.007,0.314,0.945,-0.244,1745682
0.007,0.314,0.945,-0.244,1745686
0.007,0.314,0.945,-0.183,1745690
0.007,0.312,0.945,-0.122,1745694
0.007,0.312,0.945,-0.244,1745698
0.008,0.313,0.943,-0.183,1745702
0.008,0.313,0.943,-0.183,1745706
0.008,0.313,0.943,-0.244,1745710
0.009,0.312,0.947,-0.244,1745714
0.009,0.312,0.947,-0.122,1745718
0.01,0.312,0.947,-0.122,1745722
0.01,0.312,0.947,-0.122,1745726
0.01,0.312,0.947,-0.244,1745729
0.009,0.313,0.945,-0.244,1745733
0.009,0.313,0.945,-0.122,1745737
0.009,0.314,0.944,-0.244,1745741
0.009,0.314,0.944,-0.244,1745745
0.009,0.314,0.944,-0.122,1745749
0.009,0.314,0.945,-0.183,1745753
0.009,0.314,0.945,-0.183,1745757
0.01,0.312,0.946,-0.183,1745761
0.01,0.312,0.946,-0.183,1745765
0.01,0.312,0.946,-0.366,1745769
0.008,0.312,0.946,-0.122,1745773
0.008,0.312,0.946,-0.122,1745778
0.008,0.312,0.946,-0.305,1745781
0.008,0.312,0.946,-0.305,1745785
0.008,0.312,0.946,-0.183,1745789
0.007,0.311,0.944,-0.183,1745793
0.007,0.311,0.944,-0.244,1745797
0.008,0.312,0.944,-0.305,1745801
0.008,0.312,0.944,-0.305,1745805
0.008,0.312,0.944,-0.305,1745809
0.008,0.312,0.946,-0.122,1745813
0.008,0.312,0.946,0.0,1745817
0.008,0.313,0.947,-0.244,1745821
0.008,0.313,0.947,-0.244,1745825
0.008,0.313,0.947,-0.183,1745829
0.007,0.312,0.946,-0.244,1745833
0.007,0.312,0.946,-0.366,1745837
0.008,0.313,0.946,-0.183,1745841
0.008,0.313,0.946,-0.305,1745845
0.008,0.313,0.946,-0.305,1745849
0.008,0.313,0.946,-0.061,1745853
0.008,0.313,0.946,-0.061,1745857
0.007,0.313,0.947,0.0,1745861
0.007,0.313,0.947,-0.244,1745865
0.007,0.313,0.947,-0.244,1745869
0.008,0.314,0.947,-0.305,1745873
0.008,0.314,0.947,-0.183,1745877
0.007,0.313,0.946,-0.244,1745881
0.007,0.313,0.946,-0.122,1745885
0.007,0.313,0.946,-0.122,1745889
0.009,0.313,0.945,-0.183,1745893
0.009,0.313,0.945,-0.122,1745897
0.007,0.314,0.947,-0.122,1745901
0.007,0.314,0.947,-0.244,1745905
0.007,0.314,0.947,-0.244,1745909
0.009,0.315,0.945,-0.244,1745913
0.009,0.315,0.945,-0.061,1745917
0.007,0.314,0.945,-0.183,1745921
0.007,0.314,0.945,-0.244,1745925
0.007,0.314,0.945,-0.244,1745929
0.009,0.313,0.944,-0.183,1745933
0.009,0.313,0.944,0.0,1745937
0.009,0.312,0.946,-0.122,1745941
0.009,0.312,0.946,-0.122,1745945
0.009,0.312,0.946,-0.122,1745949
0.008,0.313,0.946,-0.183,1745953
0.008,0.313,0.946,-0.244,1745957
0.007,0.314,0.946,-0.244,1745961
0.007,0.314,0.946,-0.122,1745965
0.007,0.314,0.946,-0.122,1745968
0.006,0.312,0.947,-0.183,1745973
0.006,0.312,0.947,-0.244,1745977
0.007,0.313,0.946,-0.305,1745981
0.007,0.313,0.946,-0.244,1745984
0.007,0.313,0.946,-0.244,1745988
0.007,0.313,0.946,-0.183,1745992
0.007,0.313,0.946,-0.183,1745996
0.009,0.313,0.946,-0.122,1746000
0.009,0.313,0.946,-0.244,1746004
0.009,0.313,0.946,-0.244,1746008
0.008,0.313,0.946,-0.183,1746012
0.008,0.313,0.946,-0.061,1746016
0.009,0.312,0.945,-0.122,1746020
0.009,0.312,0.945,-0.244,1746024
0.009,0.312,0.945,-0.244,1746028
0.009,0.313,0.945,-0.183,1746032
0.009,0.313,0.945,-0.244,1746036
0.009,0.313,0.944,-0.244,1746040
0.009,0.313,0.944,-0.122,1746044
0.009,0.313,0.944,-0.122,1746048
0.009,0.312,0.944,-0.183,1746052
0.009,0.312,0.944,-0.244,1746056
0.008,0.312,0.944,-0.122,1746060
0.008,0.312,0.944,-0.061,1746064
0.008,0.312,0.944,-0.061,1746068
0.008,0.313,0.947,-0.061,1746072
0.008,0.313,0.947,-0.122,1746076
0.009,0.313,0.946,-0.122,1746080
0.009,0.313,0.946,-0.183,1746084
0.009,0.313,0.946,-0.183,1746088
0.009,0.313,0.945,-0.061,1746092
0.009,0.313,0.945,-0.122,1746096
0.009,0.314,0.946,-0.244,1746100
0.009,0.314,0.946,-0.366,1746104
0.009,0.314,0.946,-0.366,1746108
0.009,0.312,0.946,-0.183,1746112
0.009,0.312,0.946,-0.122,1746116
0.008,0.312,0.945,-0.183,1746120
0.008,0.312,0.945,-0.183,1746124
0.007,0.313,0.944,-0.244,1746128
0.007,0.313,0.944,-0.244,1746132
0.007,0.313,0.944,-0.183,1746136
0.007,0.312,0.944,-0.183,1746140
0.007,0.312,0.944,-0.183,1746144
0.008,0.313,0.944,-0.122,1746148
0.008,0.313,0.944,-0.122,1746152
0.008,0.313,0.944,-0.183,1746156
0.008,0.314,0.946,-0.244,1746160
0.008,0.314,0.946,-0.183,1746164
0.009,0.313,0.946,-0.122,1746168
0.009,0.313,0.946,-0.122,1746172
0.009,0.313,0.946,-0.122,1746176
0.008,0.312,0.944,-0.183,1746180
0.008,0.312,0.944,-0.305,1746184
0.005,0.312,0.945,-0.305,1746188
0.005,0.312,0.945,-0.305,1746192
0.005,0.312,0.945,-0.244,1746196
0.009,0.312,0.945,-0.244,1746200
0.009,0.312,0.945,-0.366,1746204
0.009,0.313,0.946,-0.427,1746208
0.009,0.313,0.946,-0.427,1746212
0.009,0.313,0.946,-0.305,1746216
0.007,0.313,0.945,-0.244,1746220
0.007,0.313,0.945,-0.244,1746223
0.008,0.314,0.945,-0.183,1746227
0.008,0.314,0.945,-0.183,1746231
0.008,0.314,0.945,-0.244,1746235
0.008,0.313,0.947,-0.305,1746239
0.008,0.313,0.947,-0.244,1746243
0.007,0.314,0.945,-0.061,1746247
0.007,0.314,0.945,-0.061,1746251
0.007,0.314,0.945,-0.244,1746255
0.008,0.313,0.944,-0.244,1746259
0.008,0.313,0.944,-0.244,1746263
0.009,0.312,0.945,-0.183,1746267
0.009,0.312,0.945,-0.183,1746271
0.009,0.312,0.945,-0.488,1746275
0.009,0.313,0.945,-0.305,1746279
0.009,0.313,0.945,-0.122,1746283
0.007,0.314,0.946,-0.183,1746287
0.007,0.314,0.946,-0.183,1746291
0.007,0.314,0.946,-0.244,1746295
0.008,0.312,0.946,-0.122,1746299
0.008,0.312,0.946,-0.061,1746303
0.008,0.312,0.946,-0.183,1746307
0.008,0.312,0.946,-0.183,1746311
0.008,0.312,0.946,-0.244,1746315
0.009,0.315,0.945,-0.183,1746319
0.009,0.315,0.945,-0.305,1746323
0.008,0.313,0.946,-0.183,1746327
0.008,0.313,0.946,-0.183,1746331
0.008,0.313,0.946,-0.244,1746335
0.008,0.312,0.946,-0.183,1746339
0.008,0.312,0.946,-0.183,1746343
0.007,0.313,0.946,-0.244,1746347
0.007,0.313,0.946,-0.244,1746351
0.007,0.313,0.946,-0.122,1746355
0.008,0.313,0.946,-0.061,1746359
0.008,0.313,0.946,0.0,1746363
0.009,0.312,0.946,-0.244,1746367
0.009,0.312,0.946,-0.244,1746371
0.009,0.312,0.946,-0.244,1746375
0.007,0.313,0.946,-0.122,1746379
0.007,0.313,0.946,-0.183,1746383
0.007,0.313,0.947,-0.305,1746387
0.007,0.313,0.947,-0.305,1746391
0.007,0.313,0.947,-0.244,1746395
0.01,0.312,0.944,-0.244,1746399
0.01,0.312,0.944,-0.244,1746403
0.01,0.313,0.945,-0.122,1746407
0.01,0.313,0.945,-0.122,1746411
0.01,0.313,0.945,-0.061,1746415
0.008,0.313,0.946,-0.183,1746419
0.008,0.313,0.946,-0.183,1746423
0.007,0.314,0.946,-0.183,1746427
0.007,0.314,0.946,-0.244,1746430
0.007,0.314,0.946,-0.244,1746434
0.009,0.313,0.945,-0.122,1746438
0.009,0.313,0.945,-0.183,1746442
0.008,0.313,0.942,-0.122,1746446
0.008,0.313,0.942,-0.244,1746450
0.008,0.313,0.942,-0.244,1746454
0.008,0.312,0.946,-0.366,1746458
0.008,0.312,0.946,0.0,1746462
0.01,0.313,0.945,-0.122,1746466
0.01,0.313,0.945,-0.183,1746470
0.01,0.313,0.945,-0.183,1746474
0.01,0.313,0.945,-0.183,1746478
0.01,0.313,0.945,-0.244,1746482
0.009,0.313,0.945,-0.244,1746486
0.009,0.313,0.945,-0.244,1746490
0.009,0.313,0.945,-0.244,1746494
0.007,0.314,0.946,-0.244,1746498
0.007,0.314,0.946,-0.244,1746502
0.007,0.312,0.944,-0.183,1746506
0.007,0.312,0.944,-0.183,1746510
0.007,0.312,0.944,-0.183,1746514
0.009,0.314,0.945,-0.122,1746518
0.009,0.314,0.945,-0.061,1746522
0.01,0.313,0.944,-0.366,1746526
0.01,0.313,0.944,-0.244,1746530
0.01,0.313,0.944,-0.244,1746534
0.008,0.313,0.945,-0.183,1746538
0.008,0.313,0.945,-0.183,1746542
0.008,0.312,0.946,-0.305,1746546
0.008,0.312,0.946,-0.305,1746550
0.008,0.312,0.946,-0.305,1746554
0.009,0.312,0.945,-0.122,1746558
0.009,0.312,0.945,-0.183,1746562
0.008,0.311,0.946,-0.122,1746566
0.008,0.311,0.946,-0.122,1746570
0.008,0.311,0.946,-0.122,1746574
0.008,0.313,0.946,-0.122,1746578
0.008,0.313,0.946,-0.305,1746582
0.007,0.313,0.946,-0.244,1746586
0.007,0.313,0.946,-0.183,1746590
0.007,0.313,0.946,-0.183,1746594
0.006,0.314,0.945,-0.183,1746598
0.006,0.314,0.945,-0.244,1746602
0.008,0.312,0.944,-0.122,1746606
0.008,0.312,0.944,-0.061,1746610
0.008,0.312,0.944,-0.061,1746614
0.008,0.312,0.946,-0.244,1746618
0.008,0.312,0.946,-0.244,1746622
0.007,0.313,0.946,-0.122,1746626
0.007,0.313,0.946,-0.183,1746630
0.007,0.313,0.946,-0.183,1746634
0.009,0.312,0.946,-0.183,1746638
0.009,0.312,0.946,-0.183,1746642
0.007,0.313,0.944,-0.122,1746646
0.007,0.313,0.944,-0.183,1746650
0.008,0.312,0.945,-0.244,1746654
0.008,0.312,0.945,-0.244,1746658
0.008,0.312,0.945,-0.122,1746662
0.011,0.314,0.944,-0.183,1746666
0.011,0.314,0.944,-0.183,1746670
0.008,0.314,0.945,-0.305,1746674
0.008,0.314,0.945,-0.305,1746678
0.008,0.314,0.945,-0.183,1746682
0.009,0.312,0.947,-0.244,1746686
0.009,0.312,0.947,-0.183,1746690
0.009,0.313,0.946,-0.244,1746694
0.009,0.313,0.946,-0.244,1746698
0.009,0.313,0.946,-0.244,1746702
0.007,0.312,0.947,-0.183,1746705
0.007,0.312,0.947,-0.183,1746709
0.007,0.313,0.945,-0.183,1746713
0.007,0.313,0.945,-0.183,1746717
0.007,0.313,0.945,-0.061,1746721
0.008,0.313,0.944,-0.244,1746725
0.008,0.313,0.944,-0.183,1746729
0.008,0.313,0.944,-0.122,1746733
0.008,0.313,0.944,-0.122,1746737
0.008,0.313,0.944,-0.244,1746741
0.009,0.314,0.945,-0.122,1746745
0.009,0.314,0.945,-0.183,1746749
0.009,0.315,0.945,-0.244,1746753
0.009,0.315,0.945,-0.244,1746757
0.009,0.315,0.945,-0.122,1746761
0.007,0.313,0.944,-0.244,1746765
0.007,0.313,0.944,-0.305,1746769
0.007,0.313,0.945,-0.244,1746773
0.007,0.313,0.945,-0.244,1746777
0.007,0.313,0.945,-0.244,1746781
0.008,0.312,0.945,-0.183,1746785
0.008,0.312,0.945,-0.244,1746789
0.008,0.312,0.945,-0.305,1746793
0.008,0.312,0.945,-0.305,1746797
0.008,0.312,0.945,-0.122,1746801
0.009,0.313,0.945,-0.122,1746805
0.009,0.313,0.945,-0.366,1746809
0.008,0.313,0.947,-0.305,1746813
0.008,0.313,0.947,-0.305,1746817
0.008,0.313,0.947,-0.244,1746821
0.008,0.313,0.944,-0.244,1746825
0.008,0.313,0.944,-0.122,1746829
0.008,0.313,0.946,-0.122,1746833
0.008,0.313,0.946,-0.122,1746837
0.008,0.313,0.946,-0.244,1746841
0.007,0.312,0.944,-0.183,1746845
0.007,0.312,0.944,-0.183,1746849
0.009,0.313,0.945,-0.244,1746853
0.009,0.313,0.945,-0.244,1746857
0.009,0.313,0.945,-0.183,1746861
0.007,0.313,0.946,-0.183,1746865
0.007,0.313,0.946,-0.183,1746869
0.008,0.313,0.945,-0.244,1746873
0.008,0.313,0.945,-0.244,1746877
0.008,0.313,0.945,-0.183,1746881
0.01,0.314,0.944,-0.122,1746885
0.01,0.314,0.944,-0.183,1746889
0.008,0.312,0.945,0.0,1746893
0.008,0.312,0.945,0.0,1746897
0.008,0.312,0.945,-0.122,1746901
0.008,0.312,0.945,-0.122,1746905
0.008,0.312,0.945,-0.244,1746909
0.008,0.313,0.944,-0.244,1746913
0.008,0.313,0.944,-0.244,1746916
0.008,0.313,0.944,-0.244,1746920
0.009,0.313,0.946,-0.183,1746924
0.009,0.313,0.946,-0.122,1746928
0.01,0.312,0.946,-0.122,1746932
0.01,0.312,0.946,-0.122,1746936
0.01,0.312,0.946,-0.122,1746940
0.009,0.312,0.945,-0.061,1746944
0.009,0.312,0.945,-0.122,1746948
0.008,0.312,0.945,-0.122,1746952
0.008,0.312,0.945,-0.183,1746956
0.008,0.312,0.945,-0.183,1746960
0.008,0.313,0.946,-0.183,1746964
0.008,0.313,0.946,-0.122,1746968
0.009,0.313,0.946,-0.366,1746972
0.009,0.313,0.946,-0.305,1746976
0.009,0.313,0.946,-0.305,1746980
0.009,0.312,0.944,-0.183,1746984
0.009,0.312,0.944,-0.122,1746988
0.008,0.311,0.944,-0.244,1746992
0.008,0.311,0.944,-0.244,1746996
0.008,0.311,0.944,-0.244,1747000
0.008,0.312,0.946,-0.183,1747004
0.008,0.312,0.946,-0.122,1747008
0.007,0.312,0.944,-0.244,1747012
0.007,0.312,0.944,-0.244,1747016
0.007,0.312,0.944,-0.244,1747020
0.007,0.314,0.947,-0.244,1747024
0.007,0.314,0.947,-0.305,1747028
0.009,0.314,0.945,-0.183,1747032
0.009,0.314,0.945,-0.122,1747036
0.009,0.314,0.945,-0.122,1747040
0.009,0.312,0.945,-0.122,1747044
0.009,0.312,0.945,-0.183,1747048
0.007,0.313,0.945,-0.183,1747052
0.007,0.313,0.945,-0.122,1747056
0.007,0.313,0.945,-0.122,1747060
0.007,0.314,0.945,-0.183,1747064
0.007,0.314,0.945,-0.183,1747068
0.009,0.313,0.944,-0.183,1747072
0.009,0.313,0.944,-0.122,1747076
0.009,0.313,0.944,-0.122,1747080
0.008,0.312,0.944,-0.122,1747084
0.008,0.312,0.944,-0.122,1747088
0.009,0.314,0.945,-0.122,1747092
0.009,0.314,0.945,-0.183,1747096
0.009,0.314,0.945,-0.183,1747100
0.009,0.312,0.947,-0.122,1747104
0.009,0.312,0.947,-0.122,1747108
0.009,0.312,0.946,-0.244,1747112
0.009,0.312,0.946,-0.244,1747116
0.009,0.312,0.946,-0.244,1747120
0.01,0.314,0.945,-0.183,1747124
0.01,0.314,0.945,-0.244,1747128
0.009,0.313,0.947,-0.183,1747132
0.009,0.313,0.947,-0.305,1747136
0.009,0.314,0.948,-0.244,1747140
0.009,0.314,0.948,-0.244,1747144
0.009,0.314,0.948,-0.183,1747148
0.008,0.313,0.946,-0.305,1747152
0.008,0.313,0.946,-0.305,1747156
0.008,0.312,0.945,-0.122,1747160
0.008,0.312,0.945,-0.122,1747164
0.008,0.312,0.945,-0.366,1747168
0.011,0.313,0.945,-0.244,1747172
0.011,0.313,0.945,-0.183,1747176
0.008,0.312,0.944,-0.183,1747180
0.008,0.312,0.944,-0.183,1747184
0.008,0.312,0.944,-0.244,1747188
0.008,0.313,0.947,-0.305,1747192
0.008,0.313,0.947,-0.244,1747196
0.008,0.312,0.946,-0.244,1747200
0.008,0.312,0.946,-0.244,1747204
0.008,0.312,0.946,-0.244,1747208
0.008,0.312,0.945,-0.183,1747212
0.008,0.312,0.945,-0.183,1747216
0.008,0.313,0.946,-0.122,1747220
0.008,0.313,0.946,-0.122,1747224
0.008,0.313,0.946,-0.183,1747228
0.008,0.312,0.946,-0.244,1747232
0.008,0.312,0.946,-0.244,1747235
0.009,0.312,0.945,-0.122,1747239
0.009,0.312,0.945,-0.122,1747243
0.009,0.312,0.945,-0.244,1747247
0.008,0.312,0.944,-0.244,1747251
0.008,0.312,0.944,-0.244,1747255
0.007,0.313,0.945,-0.122,1747259
0.007,0.313,0.945,-0.122,1747263
0.007,0.313,0.945,-0.122,1747267
0.007,0.313,0.946,-0.305,1747271
0.007,0.313,0.946,-0.244,1747275
0.009,0.313,0.946,-0.183,1747279
0.009,0.313,0.946,-0.183,1747283
0.009,0.313,0.946,-0.244,1747287
0.009,0.312,0.946,-0.183,1747291
0.009,0.312,0.946,-0.122,1747295
0.009,0.312,0.945,-0.122,1747299
0.009,0.312,0.945,-0.122,1747303
0.009,0.312,0.945,-0.122,1747307
0.008,0.313,0.947,-0.183,1747311
0.008,0.313,0.947,-0.183,1747315
0.008,0.313,0.946,-0.122,1747319
0.008,0.313,0.946,-0.122,1747323
0.008,0.313,0.946,-0.244,1747327
0.008,0.312,0.945,0.0,1747331
0.008,0.312,0.945,-0.122,1747335
0.007,0.313,0.945,-0.244,1747339
0.007,0.313,0.945,-0.244,1747343
0.007,0.313,0.945,-0.122,1747347
0.008,0.313,0.945,-0.183,1747351
0.008,0.313,0.945,-0.122,1747355
0.008,0.312,0.944,-0.122,1747359
0.008,0.312,0.944,-0.183,1747363
0.008,0.312,0.944,-0.183,1747367
0.008,0.313,0.943,-0.305,1747371
0.008,0.313,0.943,-0.122,1747375
0.009,0.313,0.946,0.0,1747379
0.009,0.313,0.946,-0.183,1747383
0.009,0.313,0.946,-0.183,1747387
0.009,0.312,0.944,-0.244,1747391
0.009,0.312,0.944,-0.183,1747395
0.008,0.313,0.945,-0.366,1747399
0.008,0.313,0.945,-0.305,1747403
0.008,0.313,0.945,-0.305,1747407
0.009,0.313,0.947,-0.244,1747411
0.009,0.313,0.947,-0.183,1747415
0.008,0.311,0.947,-0.061,1747419
0.008,0.311,0.947,-0.183,1747423
0.008,0.311,0.947,-0.183,1747427
0.007,0.312,0.945,-0.244,1747431
0.007,0.312,0.945,-0.183,1747435
0.007,0.312,0.946,-0.183,1747439
0.007,0.312,0.946,-0.183,1747443
0.007,0.312,0.946,-0.183,1747447
0.01,0.312,0.945,-0.244,1747451
0.01,0.312,0.945,-0.183,1747455
0.01,0.314,0.946,-0.183,1747459
0.01,0.314,0.946,-0.183,1747463
0.01,0.314,0.946,-0.183,1747467
0.008,0.313,0.946,-0.305,1747471
0.008,0.313,0.946,-0.183,1747475
0.009,0.313,0.945,-0.305,1747479
0.009,0.313,0.945,-0.305,1747483
0.009,0.313,0.945,-0.305,1747487
0.008,0.314,0.946,-0.305,1747491
0.008,0.314,0.946,-0.122,1747495
0.008,0.312,0.947,-0.122,1747499
0.008,0.312,0.947,-0.061,1747503
0.008,0.312,0.947,-0.061,1747507
0.008,0.314,0.946,-0.183,1747511
0.008,0.314,0.946,-0.244,1747514
0.008,0.312,0.945,-0.061,1747518
0.008,0.312,0.945,-0.366,1747522
0.008,0.312,0.945,-0.366,1747526
0.009,0.312,0.946,-0.122,1747530
0.009,0.312,0.946,-0.061,1747534
0.008,0.314,0.946,-0.122,1747538
0.008,0.314,0.946,-0.122,1747542
0.008,0.314,0.946,-0.122,1747546
0.01,0.313,0.944,-0.122,1747550
0.01,0.313,0.944,-0.183,1747554
0.009,0.313,0.944,-0.244,1747558
0.009,0.313,0.944,-0.305,1747562
0.009,0.313,0.944,-0.305,1747566
0.008,0.312,0.945,-0.244,1747570
0.008,0.312,0.945,-0.183,1747574
0.008,0.312,0.945,-0.183,1747578
0.008,0.312,0.945,-0.244,1747582
0.009,0.313,0.946,-0.183,1747586
0.009,0.313,0.946,-0.183,1747590
0.009,0.313,0.946,-0.244,1747594
0.007,0.314,0.945,-0.183,1747598
0.007,0.314,0.945,-0.244,1747602
0.008,0.313,0.946,-0.183,1747606
0.008,0.313,0.946,-0.183,1747610
0.008,0.313,0.946,-0.183,1747614
0.008,0.312,0.946,-0.244,1747618
0.008,0.312,0.946,-0.244,1747622
0.008,0.313,0.945,-0.244,1747626
0.008,0.313,0.945,-0.244,1747630
0.008,0.313,0.945,-0.244,1747634
0.008,0.312,0.945,-0.183,1747638
0.008,0.312,0.945,-0.183,1747642
0.007,0.312,0.943,-0.061,1747646
0.007,0.312,0.943,-0.061,1747650
0.007,0.312,0.943,-0.061,1747654
0.009,0.313,0.945,-0.366,1747658
0.009,0.313,0.945,-0.183,1747662
0.008,0.312,0.944,-0.183,1747666
0.008,0.312,0.944,-0.183,1747670
0.008,0.312,0.944,-0.305,1747674
0.01,0.313,0.944,-0.244,1747678
0.01,0.313,0.944,-0.244,1747682
0.01,0.313,0.944,-0.183,1747686
0.01,0.313,0.944,-0.183,1747690
0.01,0.313,0.944,-0.122,1747694
0.008,0.312,0.945,-0.183,1747698
0.008,0.312,0.945,-0.244,1747702
0.008,0.312,0.944,-0.183,1747706
0.008,0.312,0.944,-0.183,1747710
0.008,0.312,0.944,-0.122,1747714
0.008,0.312,0.945,-0.183,1747718
0.008,0.312,0.945,-0.183,1747722
0.008,0.312,0.946,-0.244,1747726
0.008,0.312,0.946,-0.244,1747729
0.008,0.312,0.946,-0.244,1747733
0.007,0.311,0.945,-0.305,1747737
0.007,0.311,0.945,-0.122,1747741
0.007,0.312,0.946,-0.244,1747745
0.007,0.312,0.946,-0.244,1747749
0.007,0.312,0.946,-0.183,1747753
0.008,0.312,0.945,-0.183,1747757
0.008,0.312,0.945,-0.061,1747761
0.007,0.312,0.946,-0.183,1747765
0.007,0.312,0.946,-0.183,1747769
0.007,0.312,0.946,-0.122,1747773
0.009,0.314,0.944,-0.122,1747777
0.009,0.314,0.944,-0.183,1747781
0.01,0.313,0.944,-0.305,1747785
0.01,0.313,0.944,-0.305,1747789
0.01,0.313,0.944,-0.244,1747793
0.009,0.312,0.945,-0.122,1747797
0.009,0.312,0.945,-0.183,1747801
0.009,0.313,0.944,-0.305,1747805
0.009,0.313,0.944,-0.244,1747809
0.009,0.313,0.944,-0.244,1747813
0.008,0.312,0.944,-0.122,1747817
0.008,0.312,0.944,-0.183,1747821
0.008,0.314,0.945,-0.183,1747825
0.008,0.314,0.945,-0.244,1747829
0.008,0.314,0.945,-0.244,1747833
0.009,0.314,0.945,-0.244,1747837
0.009,0.314,0.945,-0.305,1747841
0.009,0.314,0.946,-0.427,1747845
0.009,0.314,0.946,-0.488,1747849
0.009,0.314,0.946,-0.488,1747853
0.008,0.313,0.946,-0.122,1747857
0.008,0.313,0.946,-0.122,1747861
0.006,0.313,0.945,-0.244,1747865
0.006,0.313,0.945,-0.305,1747869
0.006,0.313,0.945,-0.305,1747873
0.008,0.313,0.944,-0.244,1747877
0.008,0.313,0.944,-0.122,1747881
0.008,0.314,0.945,-0.183,1747885
0.008,0.314,0.945,-0.305,1747889
0.008,0.314,0.945,-0.305,1747893
0.008,0.313,0.946,-0.244,1747897
0.008,0.313,0.946,-0.183,1747901
0.006,0.313,0.945,-0.183,1747905
0.006,0.313,0.945,-0.305,1747909
0.006,0.313,0.945,-0.305,1747913
0.008,0.312,0.945,-0.183,1747917
0.008,0.312,0.945,-0.244,1747921
0.009,0.313,0.946,-0.305,1747925
0.009,0.313,0.946,-0.183,1747929
0.009,0.313,0.946,-0.183,1747933
0.008,0.312,0.946,0.0,1747937
0.008,0.312,0.946,-0.183,1747941
0.007,0.313,0.945,-0.183,1747945
0.007,0.313,0.945,0.0,1747949
0.007,0.313,0.945,0.0,1747952
0.007,0.312,0.945,-0.061,1747956
0.007,0.312,0.945,-0.183,1747960
0.008,0.312,0.945,-0.183,1747964
0.008,0.312,0.945,-0.305,1747968
0.008,0.312,0.945,-0.305,1747972
0.008,0.314,0.944,-0.061,1747976
0.008,0.314,0.944,-0.183,1747980
0.008,0.312,0.944,-0.183,1747984
0.008,0.312,0.944,-0.244,1747988
0.008,0.312,0.944,-0.244,1747992
0.008,0.312,0.944,-0.305,1747996
0.008,0.312,0.944,-0.183,1748000
0.008,0.314,0.944,-0.244,1748004
0.008,0.314,0.944,-0.244,1748008
0.008,0.314,0.944,-0.244,1748012
0.01,0.314,0.945,-0.061,1748016
0.01,0.314,0.945,-0.244,1748020
0.009,0.315,0.946,-0.183,1748024
0.009,0.315,0.946,-0.122,1748028
0.009,0.315,0.946,-0.122,1748032
0.009,0.314,0.944,-0.122,1748036
0.009,0.314,0.944,-0.183,1748040
0.008,0.313,0.946,-0.183,1748044
0.008,0.313,0.946,-0.183,1748048
0.008,0.313,0.946,-0.183,1748052
0.008,0.312,0.944,-0.122,1748056
0.008,0.312,0.944,-0.183,1748060
0.007,0.312,0.944,-0.122,1748064
0.007,0.312,0.944,-0.183,1748068
0.007,0.312,0.944,-0.183,1748072
0.007,0.313,0.947,-0.183,1748076
0.007,0.313,0.947,-0.122,1748080
0.008,0.315,0.946,0.061,1748084
0.008,0.315,0.946,-0.061,1748088
0.008,0.315,0.946,-0.061,1748092
0.008,0.314,0.944,-0.061,1748096
0.008,0.314,0.944,-0.244,1748100
0.009,0.313,0.944,-0.305,1748104
0.009,0.313,0.944,-0.122,1748108
0.009,0.313,0.945,-0.183,1748112
0.009,0.313,0.945,-0.183,1748116
0.009,0.313,0.945,-0.305,1748120
0.008,0.312,0.945,-0.244,1748124
0.008,0.312,0.945,-0.122,1748128
0.009,0.314,0.945,-0.122,1748132
0.009,0.314,0.945,-0.122,1748136
0.009,0.314,0.945,-0.183,1748140
0.008,0.313,0.946,-0.122,1748144
0.008,0.313,0.946,-0.183,1748148
0.008,0.314,0.947,-0.244,1748152
0.008,0.314,0.947,-0.244,1748156
0.008,0.314,0.947,-0.305,1748160
0.009,0.314,0.946,-0.183,1748164
0.009,0.314,0.946,-0.122,1748168
0.009,0.313,0.946,-0.183,1748172
0.009,0.313,0.946,-0.183,1748176
0.009,0.313,0.946,-0.183,1748180
0.01,0.311,0.945,-0.305,1748183
0.01,0.311,0.945,-0.244,1748187
0.007,0.311,0.944,-0.183,1748191
0.007,0.311,0.944,-0.183,1748195
0.007,0.311,0.944,-0.244,1748199
0.009,0.313,0.945,-0.183,1748203
0.009,0.313,0.945,-0.244,1748207
0.008,0.312,0.946,-0.244,1748211
0.008,0.312,0.946,-0.244,1748215
0.008,0.312,0.946,-0.122,1748219
0.009,0.314,0.945,-0.244,1748223
0.009,0.314,0.945,-0.183,1748227
0.01,0.315,0.946,-0.122,1748231
0.01,0.315,0.946,-0.122,1748235
0.01,0.315,0.946,-0.244,1748239
0.009,0.313,0.946,-0.244,1748243
0.009,0.313,0.946,-0.183,1748247
0.007,0.313,0.945,-0.305,1748251
0.007,0.313,0.945,-0.305,1748255
0.007,0.313,0.945,-0.244,1748259
0.007,0.313,0.944,-0.122,1748263
0.007,0.313,0.944,-0.244,1748267
0.008,0.313,0.943,-0.244,1748271
0.008,0.313,0.943,-0.244,1748275
0.008,0.313,0.943,-0.122,1748279
0.008,0.313,0.945,-0.061,1748283
0.008,0.313,0.945,-0.122,1748287
0.008,0.312,0.945,-0.183,1748291
0.008,0.312,0.945,-0.183,1748295
0.008,0.312,0.945,-0.122,1748299
0.008,0.314,0.945,-0.244,1748303
0.008,0.314,0.945,-0.244,1748307
0.008,0.314,0.947,-0.305,1748311
0.008,0.314,0.947,-0.305,1748315
0.008,0.314,0.947,-0.244,1748319
0.008,0.313,0.945,-0.305,1748323
0.008,0.313,0.945,-0.244,1748327
0.007,0.314,0.945,-0.122,1748331
0.007,0.314,0.945,-0.122,1748335
0.007,0.314,0.945,-0.122,1748339
0.009,0.312,0.945,-0.244,1748343
0.009,0.312,0.945,-0.183,1748347
0.01,0.313,0.945,-0.305,1748351
0.01,0.313,0.945,-0.305,1748355
0.01,0.313,0.945,-0.305,1748359
0.008,0.313,0.944,-0.122,1748363
0.008,0.313,0.944,-0.244,1748367
0.008,0.312,0.944,-0.244,1748371
0.008,0.312,0.944,-0.244,1748375
0.008,0.312,0.944,-0.122,1748379
0.007,0.313,0.947,-0.183,1748383
0.007,0.313,0.947,-0.061,1748387
0.009,0.312,0.946,-0.183,1748391
0.009,0.312,0.946,-0.244,1748395
0.009,0.312,0.946,-0.244,1748399
0.009,0.312,0.945,-0.183,1748402
0.009,0.312,0.945,-0.061,1748406
0.009,0.313,0.945,-0.244,1748410
0.009,0.313,0.945,-0.183,1748414
0.009,0.313,0.945,-0.183,1748418
0.009,0.313,0.946,-0.183,1748422
0.009,0.313,0.946,-0.183,1748426
0.009,0.312,0.946,-0.244,1748430
0.009,0.312,0.946,-0.366,1748434
0.009,0.312,0.946,-0.366,1748438
0.009,0.313,0.945,-0.244,1748442
0.009,0.313,0.945,-0.244,1748446
0.008,0.313,0.946,-0.183,1748450
0.008,0.313,0.946,-0.122,1748454
0.008,0.313,0.946,-0.122,1748458
0.008,0.314,0.946,-0.183,1748462
0.008,0.314,0.946,-0.183,1748466
0.009,0.313,0.944,-0.244,1748470
0.009,0.313,0.944,-0.183,1748474
0.009,0.313,0.944,-0.183,1748478
0.007,0.311,0.944,-0.244,1748482
0.007,0.311,0.944,-0.183,1748486
0.007,0.313,0.945,-0.183,1748490
0.007,0.313,0.945,-0.305,1748494
0.007,0.313,0.945,-0.305,1748498
0.008,0.314,0.945,-0.183,1748502
0.008,0.314,0.945,-0.244,1748506
0.008,0.313,0.944,-0.244,1748510
0.008,0.313,0.944,-0.244,1748514
0.008,0.313,0.944,-0.244,1748518
0.009,0.313,0.944,-0.244,1748522
0.009,0.313,0.944,-0.305,1748526
0.007,0.314,0.944,0.061,1748530
0.007,0.314,0.944,-0.122,1748534
0.007,0.314,0.944,-0.122,1748538
0.008,0.313,0.945,-0.244,1748542
0.008,0.313,0.945,-0.122,1748546
0.007,0.314,0.945,-0.183,1748550
0.007,0.314,0.945,0.0,1748554
0.007,0.314,0.945,0.0,1748558
0.008,0.313,0.945,-0.122,1748562
0.008,0.313,0.945,-0.305,1748566
0.009,0.313,0.944,-0.183,1748570
0.009,0.313,0.944,-0.122,1748574
0.009,0.313,0.944,-0.122,1748578
0.008,0.312,0.945,-0.183,1748582
0.008,0.312,0.945,-0.305,1748586
0.007,0.313,0.944,-0.244,1748589
0.007,0.313,0.944,-0.183,1748593
0.007,0.313,0.944,-0.183,1748597
0.01,0.312,0.945,0.0,1748601
0.01,0.312,0.945,-0.183,1748605
0.01,0.314,0.946,-0.244,1748609
0.01,0.314,0.946,-0.061,1748613
0.01,0.314,0.946,-0.061,1748617
0.008,0.313,0.947,-0.244,1748621
0.008,0.313,0.947,-0.366,1748625
0.006,0.313,0.945,-0.244,1748629
0.006,0.313,0.945,-0.122,1748633
0.006,0.313,0.945,-0.122,1748637
0.007,0.313,0.945,-0.122,1748641
0.007,0.313,0.945,-0.244,1748645
0.009,0.313,0.944,-0.122,1748649
0.009,0.313,0.944,-0.183,1748653
0.009,0.313,0.944,-0.183,1748657
0.009,0.312,0.944,-0.305,1748661
0.009,0.312,0.944,-0.122,1748665
0.008,0.313,0.945,-0.244,1748669
0.008,0.313,0.945,-0.244,1748673
0.008,0.313,0.945,-0.244,1748677
0.008,0.313,0.945,-0.122,1748681
0.008,0.313,0.945,-0.122,1748685
0.008,0.312,0.947,-0.366,1748689
0.008,0.312,0.947,-0.244,1748693
0.009,0.312,0.946,-0.122,1748697
0.009,0.312,0.946,-0.122,1748701
0.009,0.312,0.946,-0.122,1748705
0.009,0.314,0.946,-0.366,1748709
0.009,0.314,0.946,-0.061,1748713
0.007,0.314,0.944,-0.122,1748717
0.007,0.314,0.944,-0.122,1748721
0.007,0.314,0.944,-0.244,1748725
0.006,0.313,0.944,-0.244,1748729
0.006,0.313,0.944,-0.183,1748733
0.006,0.312,0.943,-0.061,1748737
0.006,0.312,0.943,-0.061,1748741
0.006,0.312,0.943,-0.122,1748745
0.008,0.313,0.945,-0.183,1748749
0.008,0.313,0.945,-0.244,1748753
0.009,0.312,0.946,-0.122,1748757
0.009,0.312,0.946,-0.122,1748761
0.009,0.312,0.946,-0.122,1748765
0.008,0.313,0.946,-0.183,1748769
0.008,0.313,0.946,-0.183,1748773
0.006,0.312,0.945,-0.244,1748777
0.006,0.312,0.945,-0.244,1748781
0.006,0.312,0.945,-0.122,1748785
0.006,0.312,0.945,-0.183,1748789
0.006,0.312,0.945,-0.183,1748793
0.008,0.313,0.944,-0.244,1748797
0.008,0.313,0.944,-0.244,1748801
0.008,0.313,0.944,-0.183,1748805
0.008,0.312,0.944,-0.244,1748809
0.008,0.312,0.944,-0.244,1748813
0.008,0.313,0.947,-0.122,1748817
0.008,0.313,0.947,-0.122,1748821
0.008,0.313,0.947,-0.183,1748825
0.008,0.313,0.945,-0.244,1748829
0.008,0.313,0.945,-0.244,1748833
0.007,0.313,0.946,-0.183,1748837
0.007,0.313,0.946,-0.183,1748840
0.007,0.313,0.946,-0.122,1748844
0.008,0.313,0.946,-0.122,1748848
0.008,0.313,0.946,-0.183,1748852
0.008,0.313,0.944,-0.244,1748856
0.008,0.313,0.944,-0.244,1748860
0.008,0.313,0.944,-0.305,1748864
0.008,0.313,0.946,-0.122,1748868
0.008,0.313,0.946,-0.244,1748872
0.008,0.312,0.947,-0.122,1748876
0.008,0.312,0.947,-0.122,1748880
0.008,0.312,0.947,-0.183,1748884
0.008,0.312,0.947,-0.183,1748888
0.008,0.312,0.947,-0.305,1748892
0.008,0.312,0.945,-0.244,1748896
0.008,0.312,0.945,-0.244,1748900
0.008,0.312,0.945,-0.244,1748904
0.008,0.314,0.946,-0.183,1748908
0.008,0.314,0.946,-0.122,1748912
0.008,0.314,0.947,-0.183,1748916
0.008,0.314,0.947,-0.183,1748920
0.008,0.314,0.947,-0.183,1748924
0.008,0.313,0.945,-0.183,1748928
0.008,0.313,0.945,-0.244,1748932
0.008,0.314,0.945,-0.122,1748936
0.008,0.314,0.945,-0.122,1748940
0.008,0.314,0.945,-0.122,1748944
0.009,0.314,0.944,-0.061,1748948
0.009,0.314,0.944,-0.061,1748952
0.007,0.313,0.945,-0.427,1748956
0.007,0.313,0.945,-0.183,1748960
0.007,0.313,0.945,-0.183,1748964
0.007,0.313,0.947,-0.183,1748968
0.007,0.313,0.947,-0.183,1748972
0.008,0.312,0.946,-0.122,1748976
0.008,0.312,0.946,-0.183,1748980
0.008,0.312,0.946,-0.183,1748984
0.009,0.311,0.946,-0.244,1748988
0.009,0.311,0.946,-0.366,1748992
0.008,0.312,0.947,-0.183,1748996
0.008,0.312,0.947,-0.244,1749000
0.008,0.312,0.947,-0.244,1749004
0.008,0.313,0.947,-0.183,1749008
0.008,0.313,0.947,-0.244,1749012
0.007,0.313,0.947,-0.183,1749016
0.007,0.313,0.947,-0.183,1749020
0.007,0.313,0.947,-0.183,1749024
0.006,0.314,0.944,-0.122,1749028
0.006,0.314,0.944,-0.183,1749032
0.007,0.314,0.944,-0.244,1749036
0.007,0.314,0.944,-0.183,1749040
0.007,0.314,0.944,-0.183,1749044
0.009,0.314,0.945,-0.244,1749048
0.009,0.314,0.945,-0.183,1749052
0.008,0.313,0.947,-0.122,1749056
0.008,0.313,0.947,-0.183,1749060
0.008,0.313,0.947,-0.183,1749064
0.007,0.314,0.946,-0.244,1749068
0.007,0.314,0.946,-0.061,1749072
0.01,0.313,0.944,-0.305,1749076
0.01,0.313,0.944,-0.305,1749080
0.01,0.313,0.944,-0.305,1749084
0.008,0.313,0.944,-0.305,1749088
0.008,0.313,0.944,-0.183,1749091
0.008,0.313,0.944,-0.183,1749095
0.008,0.313,0.944,-0.183,1749099
0.008,0.313,0.944,-0.183,1749103
0.008,0.313,0.945,-0.183,1749107
0.008,0.313,0.945,-0.244,1749111
0.008,0.312,0.945,-0.183,1749115
0.008,0.312,0.945,-0.183,1749119
0.008,0.312,0.945,-0.183,1749123
0.01,0.312,0.945,-0.366,1749127
0.01,0.312,0.945,-0.061,1749131
0.008,0.313,0.946,-0.366,1749135
0.008,0.313,0.946,-0.244,1749139
0.008,0.313,0.946,-0.244,1749143
0.007,0.312,0.945,-0.122,1749147
0.007,0.312,0.945,-0.244,1749151
0.007,0.313,0.946,-0.244,1749155
0.007,0.313,0.946,-0.183,1749159
0.007,0.313,0.946,-0.183,1749163
0.009,0.313,0.946,-0.183,1749167
0.009,0.313,0.946,-0.122,1749171
0.007,0.313,0.944,-0.122,1749175
0.007,0.313,0.944,-0.244,1749179
0.007,0.313,0.944,-0.122,1749183
0.007,0.313,0.944,-0.122,1749187
0.007,0.313,0.944,-0.183,1749191
0.01,0.313,0.946,-0.183,1749195
0.01,0.313,0.946,-0.122,1749199
0.008,0.313,0.947,-0.244,1749203
0.008,0.313,0.947,-0.244,1749207
0.008,0.313,0.947,-0.183,1749211
0.009,0.314,0.947,-0.122,1749215
0.009,0.314,0.947,-0.122,1749219
0.01,0.313,0.945,-0.244,1749223
0.01,0.313,0.945,-0.244,1749227
0.01,0.313,0.945,-0.244,1749231
0.008,0.313,0.946,-0.244,1749235
0.008,0.313,0.946,-0.244,1749239
0.009,0.313,0.946,0.0,1749243
0.009,0.313,0.946,0.0,1749247
0.009,0.313,0.946,-0.183,1749251
0.008,0.312,0.945,-0.183,1749255
0.008,0.312,0.945,-0.183,1749259
0.007,0.314,0.945,-0.122,1749263
0.007,0.314,0.945,-0.122,1749267
0.007,0.314,0.945,-0.305,1749271
0.007,0.313,0.948,-0.183,1749275
0.007,0.313,0.948,-0.183,1749279
0.008,0.312,0.945,-0.183,1749283
0.008,0.312,0.945,-0.183,1749287
0.008,0.312,0.945,-0.183,1749291
0.007,0.312,0.946,-0.183,1749295
0.007,0.312,0.946,-0.244,1749299
0.009,0.313,0.946,-0.183,1749303
0.009,0.313,0.946,-0.183,1749307
0.009,0.313,0.946,0.0,1749311
0.007,0.313,0.945,-0.366,1749315
0.007,0.313,0.945,-0.366,1749319
0.009,0.314,0.945,-0.183,1749323
0.009,0.314,0.945,-0.183,1749327
0.009,0.314,0.945,-0.183,1749330
0.008,0.313,0.944,-0.366,1749334
0.008,0.313,0.944,-0.305,1749338
0.008,0.313,0.945,-0.244,1749342
0.008,0.313,0.945,-0.244,1749346
0.008,0.313,0.945,-0.183,1749350
0.01,0.313,0.945,-0.183,1749354
0.01,0.313,0.945,-0.183,1749358
0.007,0.312,0.945,-0.122,1749362
0.007,0.312,0.945,-0.122,1749366
0.007,0.312,0.945,-0.122,1749370
0.006,0.312,0.946,-0.183,1749374
0.006,0.312,0.946,-0.183,1749378
0.008,0.313,0.945,-0.183,1749382
0.008,0.313,0.945,-0.183,1749386
0.008,0.313,0.945,-0.122,1749390
0.009,0.313,0.945,-0.122,1749394
0.009,0.313,0.945,-0.061,1749398
0.009,0.313,0.945,-0.061,1749402
0.009,0.313,0.945,-0.061,1749406
0.009,0.313,0.945,0.0,1749410
0.009,0.315,0.945,-0.244,1749414
0.009,0.315,0.945,-0.427,1749418
0.008,0.314,0.945,-0.183,1749422
0.008,0.314,0.945,-0.183,1749426
0.008,0.314,0.945,-0.183,1749430
0.008,0.314,0.945,-0.244,1749434
0.008,0.314,0.945,-0.244,1749438
0.01,0.312,0.946,-0.122,1749442
0.01,0.312,0.946,-0.122,1749446
0.01,0.312,0.946,-0.183,1749450
0.006,0.313,0.946,-0.183,1749454
0.006,0.313,0.946,-0.183,1749458
0.008,0.313,0.945,-0.305,1749462
0.008,0.313,0.945,-0.305,1749466
0.008,0.313,0.945,-0.061,1749470
0.009,0.312,0.945,-0.244,1749474
0.009,0.312,0.945,-0.244,1749478
0.009,0.313,0.944,-0.427,1749482
0.009,0.313,0.944,-0.305,1749486
0.009,0.313,0.944,-0.305,1749490
0.008,0.313,0.944,-0.183,1749494
0.008,0.313,0.944,-0.305,1749498
0.008,0.312,0.944,-0.183,1749502
0.008,0.312,0.944,-0.244,1749506
0.008,0.312,0.944,-0.244,1749510
0.007,0.314,0.946,-0.122,1749514
0.007,0.314,0.946,-0.122,1749518
0.008,0.312,0.945,-0.183,1749521
0.008,0.312,0.945,-0.244,1749525
0.008,0.312,0.945,-0.244,1749529
0.009,0.313,0.944,-0.244,1749533
0.009,0.313,0.944,-0.183,1749537
0.006,0.314,0.944,-0.244,1749541
0.006,0.314,0.944,-0.183,1749545
0.006,0.314,0.944,-0.183,1749549
0.007,0.312,0.943,-0.061,1749553
0.007,0.312,0.943,-0.244,1749557
0.007,0.312,0.945,-0.122,1749561
0.007,0.312,0.945,-0.122,1749565
0.007,0.312,0.945,-0.122,1749569
0.008,0.312,0.946,-0.183,1749573
0.008,0.312,0.946,-0.305,1749577
0.008,0.313,0.945,-0.183,1749581
0.008,0.313,0.945,-0.244,1749585
0.008,0.313,0.945,-0.244,1749589
0.009,0.313,0.945,-0.183,1749593
0.009,0.313,0.945,-0.305,1749597
0.008,0.312,0.945,-0.366,1749601
0.008,0.312,0.945,-0.122,1749605
0.008,0.312,0.945,-0.122,1749609
0.009,0.314,0.947,-0.183,1749613
0.009,0.314,0.947,-0.244,1749617
0.009,0.313,0.945,-0.244,1749621
0.009,0.313,0.945,-0.183,1749625
0.009,0.313,0.945,-0.183,1749629
0.009,0.313,0.944,-0.183,1749633
0.009,0.313,0.944,-0.122,1749637
0.007,0.313,0.945,-0.183,1749641
0.007,0.313,0.945,0.0,1749645
0.007,0.313,0.945,0.0,1749649
0.007,0.313,0.945,-0.061,1749653
0.007,0.313,0.945,-0.366,1749657
0.009,0.313,0.944,-0.366,1749661
0.009,0.313,0.944,-0.183,1749665
0.009,0.313,0.944,-0.183,1749669
0.009,0.313,0.945,-0.183,1749673
0.009,0.313,0.945,-0.122,1749677
0.008,0.311,0.946,-0.183,1749681
0.008,0.311,0.946,-0.183,1749685
0.008,0.311,0.946,-0.183,1749689
0.008,0.312,0.945,-0.183,1749693
0.008,0.312,0.945,-0.183,1749697
0.008,0.313,0.944,-0.305,1749701
0.008,0.313,0.944,-0.183,1749705
0.008,0.313,0.944,-0.183,1749709
0.009,0.313,0.945,-0.183,1749713
0.009,0.313,0.945,-0.244,1749717
0.007,0.313,0.945,-0.244,1749721
0.007,0.313,0.945,-0.183,1749725
0.007,0.313,0.945,-0.183,1749728
0.008,0.314,0.946,-0.122,1749732
0.008,0.314,0.946,-0.244,1749736
0.008,0.313,0.945,-0.305,1749740
0.008,0.313,0.945,-0.122,1749744
0.008,0.313,0.945,-0.122,1749748
0.008,0.313,0.944,-0.244,1749752
0.008,0.313,0.944,-0.305,1749756
0.008,0.313,0.944,-0.244,1749760
0.008,0.313,0.944,-0.244,1749764
0.008,0.313,0.944,-0.244,1749768
0.008,0.313,0.945,-0.183,1749772
0.008,0.313,0.945,-0.183,1749776
0.008,0.313,0.947,-0.183,1749780
0.008,0.313,0.947,-0.183,1749784
0.009,0.313,0.946,-0.122,1749788
0.009,0.313,0.946,-0.122,1749792
0.009,0.313,0.946,-0.122,1749796
0.007,0.312,0.945,-0.244,1749800
0.007,0.312,0.945,-0.183,1749804
0.008,0.312,0.944,-0.183,1749808
0.008,0.312,0.944,-0.183,1749812
0.008,0.312,0.944,-0.366,1749816
0.009,0.312,0.945,-0.183,1749820
0.009,0.312,0.945,-0.183,1749824
0.009,0.312,0.945,-0.183,1749828
0.009,0.312,0.945,-0.183,1749832
0.009,0.312,0.945,-0.122,1749836
0.008,0.312,0.946,-0.122,1749840
0.008,0.312,0.946,-0.183,1749844
0.008,0.314,0.945,-0.305,1749848
0.008,0.314,0.945,-0.305,1749852
0.008,0.314,0.945,-0.427,1749856
0.008,0.313,0.945,-0.183,1749860
0.008,0.313,0.945,-0.183,1749864
0.009,0.313,0.946,-0.244,1749868
0.009,0.313,0.946,-0.244,1749872
0.009,0.313,0.946,-0.244,1749876
0.008,0.312,0.946,-0.244,1749880
0.008,0.312,0.946,-0.183,1749884
0.008,0.312,0.945,-0.183,1749888
0.008,0.312,0.945,-0.183,1749892
0.008,0.312,0.945,-0.183,1749896
0.008,0.312,0.947,-0.183,1749900
0.008,0.312,0.947,-0.183,1749904
0.009,0.311,0.944,-0.244,1749908
0.009,0.311,0.944,-0.244,1749912
0.009,0.311,0.944,-0.366,1749916
0.009,0.312,0.946,-0.183,1749920
0.009,0.312,0.946,-0.183,1749924
0.007,0.312,0.945,-0.366,1749928
0.007,0.312,0.945,-0.366,1749932
0.007,0.312,0.945,-0.183,1749936
0.008,0.312,0.945,-0.244,1749940
0.008,0.312,0.945,-0.305,1749944
0.008,0.314,0.946,-0.244,1749948
0.008,0.314,0.946,-0.244,1749952
0.008,0.314,0.946,-0.244,1749956
0.006,0.312,0.944,-0.366,1749960
0.006,0.312,0.944,-0.244,1749964
0.008,0.312,0.944,-0.244,1749968
0.008,0.312,0.944,-0.244,1749972
0.008,0.312,0.944,-0.183,1749976
0.008,0.312,0.944,-0.183,1749980
0.008,0.312,0.944,-0.305,1749984
0.006,0.314,0.945,-0.183,1749988
0.006,0.314,0.945,-0.122,1749992
0.006,0.314,0.945,-0.122,1749996
0.008,0.314,0.944,-0.122,1750000
0.008,0.314,0.944,-0.244,1750004
0.009,0.313,0.944,-0.244,1750008
0.009,0.313,0.944,-0.183,1750012
0.009,0.313,0.944,-0.183,1750016
0.009,0.312,0.946,-0.122,1750020
0.009,0.312,0.946,-0.183,1750024
0.009,0.314,0.945,-0.244,1750027
0.009,0.314,0.945,-0.122,1750031
0.009,0.314,0.945,-0.122,1750035
0.008,0.313,0.946,-0.244,1750039
0.008,0.313,0.946,-0.244,1750043
0.008,0.314,0.946,-0.244,1750047
0.008,0.314,0.946,-0.061,1750051
0.008,0.314,0.946,-0.061,1750055
0.009,0.312,0.947,-0.122,1750059
0.009,0.312,0.947,-0.244,1750063
0.008,0.311,0.945,-0.183,1750067
0.008,0.311,0.945,-0.183,1750071
0.008,0.311,0.945,-0.183,1750075
0.008,0.313,0.945,-0.244,1750079
0.008,0.313,0.945,-0.305,1750083
0.01,0.313,0.946,-0.183,1750087
0.01,0.313,0.946,-0.122,1750091
0.01,0.313,0.946,-0.122,1750095
0.008,0.313,0.946,-0.183,1750099
0.008,0.313,0.946,-0.244,1750103
0.008,0.313,0.946,-0.244,1750107
0.008,0.313,0.946,-0.183,1750111
0.008,0.313,0.946,-0.183,1750115
0.007,0.313,0.946,0.061,1750119
0.007,0.313,0.946,-0.061,1750123
0.007,0.313,0.946,-0.244,1750127
0.007,0.313,0.946,-0.183,1750131
0.007,0.313,0.946,-0.183,1750135
0.008,0.313,0.945,-0.244,1750139
0.008,0.313,0.945,-0.366,1750143
0.008,0.312,0.945,-0.183,1750147
0.008,0.312,0.945,-0.122,1750151
0.008,0.312,0.945,-0.122,1750155
0.008,0.312,0.945,-0.122,1750159
0.008,0.312,0.945,-0.244,1750163
0.007,0.313,0.944,-0.183,1750167
0.007,0.313,0.944,-0.061,1750171
0.007,0.313,0.944,-0.061,1750175
0.008,0.315,0.945,-0.122,1750179
0.008,0.315,0.945,-0.305,1750183
0.009,0.314,0.948,-0.244,1750187
0.009,0.314,0.948,-0.244,1750191
0.009,0.314,0.948,-0.244,1750195
0.007,0.313,0.944,-0.122,1750199
0.007,0.313,0.944,-0.183,1750203
0.007,0.315,0.946,-0.305,1750207
0.007,0.315,0.946,-0.244,1750211
0.007,0.315,0.946,-0.244,1750215
0.008,0.313,0.947,-0.122,1750219
0.008,0.313,0.947,-0.244,1750223
0.009,0.312,0.945,-0.305,1750227
0.009,0.312,0.945,-0.183,1750231
0.009,0.312,0.945,-0.244,1750235
0.009,0.312,0.945,-0.244,1750239
0.009,0.312,0.945,-0.183,1750243
0.009,0.313,0.947,-0.122,1750247
0.009,0.313,0.947,-0.244,1750251
0.008,0.312,0.945,-0.183,1750255
0.008,0.312,0.945,-0.183,1750259
0.008,0.312,0.945,-0.183,1750263
0.007,0.313,0.945,-0.305,1750267
0.007,0.313,0.945,-0.183,1750271
0.005,0.313,0.947,-0.244,1750275
0.005,0.313,0.947,-0.244,1750279
0.005,0.313,0.947,-0.366,1750283
0.01,0.313,0.946,-0.183,1750287
0.01,0.313,0.946,-0.244,1750291
0.008,0.312,0.946,-0.244,1750294
0.008,0.312,0.946,-0.244,1750298
0.008,0.312,0.946,-0.244,1750302
0.007,0.313,0.946,-0.305,1750306
0.007,0.313,0.946,-0.244,1750310
0.01,0.314,0.945,-0.244,1750314
0.01,0.314,0.945,-0.244,1750318
0.01,0.314,0.945,-0.183,1750322
0.008,0.312,0.946,-0.183,1750326
0.008,0.312,0.946,-0.244,1750330
0.007,0.313,0.947,-0.244,1750334
0.007,0.313,0.947,-0.244,1750338
0.007,0.313,0.947,-0.183,1750342
0.008,0.313,0.944,-0.183,1750346
0.008,0.313,0.944,-0.244,1750350
0.008,0.313,0.944,-0.244,1750354
0.008,0.313,0.944,-0.244,1750358
0.008,0.313,0.944,-0.305,1750362
0.009,0.312,0.945,-0.122,1750366
0.009,0.312,0.945,-0.122,1750370
0.01,0.312,0.945,-0.183,1750374
0.01,0.312,0.945,-0.183,1750378
0.01,0.312,0.945,-0.122,1750382
0.008,0.312,0.946,-0.244,1750386
0.008,0.312,0.946,-0.244,1750390
0.009,0.313,0.945,-0.183,1750394
0.009,0.313,0.945,-0.183,1750398
0.009,0.313,0.945,-0.183,1750402
0.009,0.312,0.944,-0.244,1750406
0.009,0.312,0.944,-0.305,1750410
0.008,0.312,0.945,-0.244,1750414
0.008,0.312,0.945,-0.244,1750418
0.008,0.312,0.945,-0.122,1750422
0.009,0.313,0.945,-0.183,1750426
0.009,0.313,0.945,-0.122,1750430
0.008,0.313,0.945,-0.244,1750434
0.008,0.313,0.945,-0.244,1750438
0.008,0.313,0.945,-0.244,1750442
0.009,0.313,0.944,-0.244,1750446
0.009,0.313,0.944,-0.244,1750450
0.008,0.314,0.943,-0.183,1750454
0.008,0.314,0.943,-0.244,1750458
0.008,0.314,0.943,-0.244,1750462
0.009,0.313,0.946,-0.244,1750466
0.009,0.313,0.946,-0.122,1750470
0.008,0.314,0.944,-0.061,1750474
0.008,0.314,0.944,-0.061,1750478
0.008,0.314,0.944,-0.061,1750482
0.007,0.312,0.946,-0.183,1750486
0.007,0.312,0.946,-0.305,1750490
0.008,0.311,0.948,-0.305,1750494
0.008,0.311,0.948,-0.183,1750498
0.008,0.311,0.948,-0.183,1750502
0.008,0.313,0.947,-0.122,1750506
0.008,0.313,0.947,-0.122,1750510
0.008,0.312,0.944,-0.183,1750514
0.008,0.312,0.944,-0.122,1750518
0.008,0.312,0.944,-0.122,1750522
0.009,0.311,0.944,-0.183,1750525
0.009,0.311,0.944,-0.122,1750529
0.008,0.313,0.946,-0.183,1750533
0.008,0.313,0.946,-0.183,1750537
0.008,0.313,0.946,-0.183,1750541
0.008,0.313,0.946,-0.183,1750545
0.008,0.313,0.946,-0.183,1750549
0.008,0.312,0.945,0.0,1750553
0.008,0.312,0.945,-0.244,1750557
0.008,0.312,0.945,-0.244,1750561
0.008,0.313,0.944,-0.122,1750565
0.008,0.313,0.944,-0.122,1750569
0.011,0.313,0.946,-0.244,1750573
0.011,0.313,0.946,-0.305,1750577
0.011,0.313,0.946,-0.305,1750581
0.008,0.312,0.946,-0.183,1750585
0.008,0.312,0.946,-0.183,1750589
0.007,0.312,0.944,-0.244,1750593
0.007,0.312,0.944,-0.122,1750597
0.007,0.312,0.944,-0.122,1750601
0.008,0.313,0.947,-0.122,1750605
0.008,0.313,0.947,-0.244,1750609
0.009,0.313,0.946,-0.183,1750613
0.009,0.313,0.946,-0.183,1750617
0.009,0.313,0.946,-0.183,1750621
0.007,0.313,0.945,-0.183,1750625
0.007,0.313,0.945,-0.061,1750629
0.008,0.313,0.944,-0.244,1750633
0.008,0.313,0.944,-0.122,1750637
0.008,0.313,0.944,-0.122,1750641
0.01,0.314,0.945,-0.183,1750645
0.01,0.314,0.945,-0.244,1750649
0.01,0.315,0.946,-0.183,1750653
0.01,0.315,0.946,-0.244,1750657
0.01,0.315,0.946,-0.244,1750661
0.008,0.314,0.945,-0.122,1750665
0.008,0.314,0.945,-0.183,1750669
0.008,0.312,0.946,-0.122,1750673
0.008,0.312,0.946,-0.183,1750677
0.008,0.312,0.946,-0.183,1750681
0.008,0.312,0.948,-0.183,1750685
0.008,0.312,0.948,-0.244,1750689
0.009,0.312,0.946,-0.244,1750693
0.009,0.312,0.946,-0.244,1750697
0.009,0.312,0.946,-0.244,1750701
0.009,0.312,0.946,-0.244,1750705
0.009,0.312,0.946,-0.305,1750709
0.009,0.312,0.944,-0.244,1750713
0.009,0.312,0.944,-0.244,1750717
0.006,0.314,0.945,-0.244,1750721
0.006,0.314,0.945,-0.244,1750725
0.006,0.314,0.945,-0.122,1750729
0.007,0.313,0.945,-0.366,1750733
0.007,0.313,0.945,-0.305,1750737
0.006,0.312,0.944,-0.244,1750741
0.006,0.312,0.944,-0.244,1750745
0.006,0.312,0.944,-0.244,1750749
0.008,0.313,0.945,-0.183,1750753
0.008,0.313,0.945,-0.183,1750757
0.008,0.313,0.945,-0.183,1750761
0.008,0.313,0.945,-0.183,1750764
0.008,0.313,0.945,-0.122,1750768
0.008,0.314,0.945,-0.183,1750772
0.008,0.314,0.945,-0.122,1750776
0.009,0.313,0.945,-0.183,1750780
0.009,0.313,0.945,-0.183,1750784
0.009,0.313,0.945,-0.305,1750788
0.009,0.315,0.946,-0.244,1750792
0.009,0.315,0.946,-0.061,1750796
0.008,0.313,0.945,-0.061,1750800
0.008,0.313,0.945,-0.061,1750804
0.008,0.313,0.945,-0.244,1750808
0.008,0.312,0.944,-0.244,1750812
0.008,0.312,0.944,-0.244,1750816
0.008,0.314,0.944,-0.305,1750820
0.008,0.314,0.944,-0.305,1750824
0.008,0.314,0.944,-0.183,1750828
0.008,0.313,0.945,-0.305,1750832
0.008,0.313,0.945,-0.305,1750836
0.007,0.313,0.947,-0.244,1750840
0.007,0.313,0.947,-0.244,1750844
0.007,0.313,0.947,-0.183,1750848
0.008,0.312,0.945,-0.122,1750852
0.008,0.312,0.945,-0.183,1750856
0.01,0.313,0.945,-0.244,1750860
0.01,0.313,0.945,-0.244,1750864
0.01,0.313,0.945,-0.244,1750868
0.01,0.312,0.945,-0.183,1750872
0.01,0.312,0.945,-0.305,1750876
0.007,0.312,0.946,-0.183,1750880
0.007,0.312,0.946,-0.183,1750884
0.007,0.312,0.946,-0.061,1750888
0.009,0.311,0.948,-0.183,1750892
0.009,0.311,0.948,-0.061,1750896
0.007,0.312,0.947,-0.183,1750900
0.007,0.312,0.947,-0.183,1750904
0.007,0.312,0.947,-0.122,1750908
0.008,0.312,0.944,-0.061,1750912
0.008,0.312,0.944,-0.122,1750916
0.009,0.312,0.945,-0.244,1750920
0.009,0.312,0.945,-0.244,1750924
0.009,0.312,0.945,-0.244,1750928
0.009,0.313,0.948,-0.305,1750932
0.009,0.313,0.948,-0.183,1750936
0.01,0.314,0.947,-0.122,1750940
0.01,0.314,0.947,-0.122,1750944
0.01,0.314,0.947,-0.183,1750948
0.009,0.313,0.946,-0.244,1750952
0.009,0.313,0.946,-0.122,1750956
0.007,0.314,0.944,-0.244,1750960
0.007,0.314,0.944,-0.244,1750964
0.007,0.314,0.944,-0.305,1750968
0.007,0.313,0.946,-0.183,1750971
0.007,0.313,0.946,-0.183,1750975
0.007,0.313,0.944,-0.122,1750979
0.007,0.313,0.944,-0.305,1750983
0.007,0.313,0.944,-0.305,1750987
0.006,0.313,0.946,-0.122,1750991
0.006,0.313,0.946,-0.122,1750995
0.009,0.311,0.947,-0.122,1750999
0.009,0.311,0.947,-0.122,1751003
0.009,0.311,0.947,-0.122,1751007
0.007,0.313,0.943,-0.244,1751011
0.007,0.313,0.943,-0.305,1751015
0.007,0.314,0.945,-0.183,1751019
0.007,0.314,0.945,-0.122,1751023
0.007,0.314,0.945,-0.122,1751027
0.008,0.314,0.947,-0.183,1751031
0.008,0.314,0.947,-0.244,1751035
0.008,0.314,0.944,-0.244,1751039
0.008,0.314,0.944,-0.244,1751043
0.008,0.314,0.944,-0.244,1751047
0.009,0.314,0.943,-0.366,1751051
0.009,0.314,0.943,-0.122,1751055
0.008,0.312,0.946,-0.305,1751059
0.008,0.312,0.946,-0.183,1751063
0.008,0.312,0.946,-0.183,1751067
0.009,0.312,0.945,-0.305,1751071
0.009,0.312,0.945,-0.244,1751075
0.007,0.314,0.944,0.0,1751079
0.007,0.314,0.944,-0.122,1751083
0.007,0.314,0.944,-0.122,1751087
0.009,0.312,0.945,-0.244,1751091
0.009,0.312,0.945,-0.305,1751095
0.009,0.312,0.945,-0.122,1751099
0.009,0.312,0.945,-0.183,1751103
0.009,0.312,0.945,-0.183,1751107
0.009,0.312,0.944,-0.244,1751111
0.009,0.312,0.944,-0.244,1751115
0.008,0.312,0.947,-0.122,1751119
0.008,0.312,0.947,-0.183,1751123
0.008,0.312,0.947,-0.183,1751127
0.009,0.314,0.946,-0.061,1751131
0.009,0.314,0.946,-0.244,1751135
0.008,0.312,0.946,-0.183,1751139
0.008,0.312,0.946,-0.305,1751143
0.008,0.312,0.946,-0.305,1751147
0.009,0.312,0.948,-0.305,1751151
0.009,0.312,0.948,-0.183,1751155
0.009,0.313,0.944,-0.122,1751159
0.009,0.313,0.944,-0.366,1751163
0.009,0.313,0.944,-0.366,1751167
0.007,0.312,0.945,-0.305,1751171
0.007,0.312,0.945,-0.122,1751175
0.009,0.314,0.945,-0.244,1751179
0.009,0.314,0.945,-0.244,1751183
0.009,0.314,0.945,-0.244,1751187
0.008,0.313,0.943,-0.305,1751191
0.008,0.313,0.943,-0.183,1751195
0.01,0.312,0.946,-0.244,1751199
0.01,0.312,0.946,-0.244,1751203
0.01,0.312,0.946,-0.244,1751207
0.01,0.313,0.946,-0.305,1751211
0.01,0.313,0.946,-0.122,1751215
0.008,0.313,0.945,-0.183,1751219
0.008,0.313,0.945,-0.183,1751223
0.008,0.312,0.944,-0.183,1751227
0.008,0.312,0.944,-0.183,1751231
0.008,0.312,0.944,-0.061,1751234
0.009,0.312,0.946,-0.183,1751238
0.009,0.312,0.946,-0.244,1751242
0.009,0.314,0.946,-0.305,1751246
0.009,0.314,0.946,-0.305,1751250
0.009,0.314,0.946,-0.183,1751254
0.01,0.313,0.945,-0.183,1751258
0.01,0.313,0.945,-0.244,1751262
0.008,0.313,0.947,-0.122,1751266
0.008,0.313,0.947,-0.122,1751270
0.008,0.313,0.947,-0.061,1751274
0.01,0.313,0.945,-0.122,1751278
0.01,0.313,0.945,-0.122,1751282
0.009,0.313,0.947,-0.244,1751286
0.009,0.313,0.947,-0.244,1751290
0.009,0.313,0.947,-0.244,1751294
0.007,0.312,0.945,-0.183,1751298
0.007,0.312,0.945,-0.183,1751302
0.007,0.313,0.945,-0.183,1751306
0.007,0.313,0.945,-0.183,1751310
0.007,0.313,0.945,-0.183,1751314
0.007,0.313,0.944,-0.122,1751318
0.007,0.313,0.944,-0.122,1751322
0.008,0.313,0.945,-0.244,1751326
0.008,0.313,0.945,-0.244,1751330
0.008,0.313,0.945,0.0,1751334
0.009,0.314,0.945,-0.244,1751338
0.009,0.314,0.945,-0.366,1751342
0.009,0.313,0.945,-0.244,1751346
0.009,0.313,0.945,-0.244,1751350
0.009,0.313,0.945,-0.305,1751354
0.009,0.312,0.944,-0.305,1751358
0.009,0.312,0.944,-0.244,1751362
0.009,0.312,0.944,-0.244,1751366
0.009,0.312,0.944,-0.244,1751370
0.009,0.312,0.944,-0.183,1751374
0.008,0.313,0.944,-0.183,1751378
0.008,0.313,0.944,-0.122,1751382
0.009,0.314,0.946,-0.122,1751386
0.009,0.314,0.946,-0.122,1751390
0.009,0.314,0.946,-0.183,1751394
0.008,0.314,0.945,-0.122,1751398
0.008,0.314,0.945,-0.244,1751402
0.009,0.313,0.943,-0.244,1751406
0.009,0.313,0.943,-0.244,1751410
0.009,0.313,0.943,-0.183,1751414
0.01,0.313,0.944,-0.122,1751418
0.01,0.313,0.944,-0.122,1751422
0.009,0.313,0.944,-0.244,1751426
0.009,0.313,0.944,-0.244,1751430
0.009,0.313,0.944,-0.183,1751434
0.008,0.314,0.946,-0.122,1751438
0.008,0.314,0.946,-0.305,1751442
0.008,0.313,0.946,-0.244,1751446
0.008,0.313,0.946,-0.122,1751450
0.008,0.313,0.946,-0.122,1751454
0.01,0.313,0.947,-0.183,1751458
0.01,0.313,0.947,-0.244,1751462
0.009,0.311,0.946,-0.183,1751466
0.009,0.311,0.946,-0.183,1751470
0.009,0.311,0.946,-0.183,1751474
0.009,0.313,0.946,-0.244,1751478
0.009,0.313,0.946,-0.244,1751482
0.008,0.313,0.946,-0.183,1751486
0.008,0.313,0.946,-0.183,1751489
0.008,0.313,0.946,-0.183,1751493
0.007,0.312,0.945,-0.183,1751497
0.007,0.312,0.945,-0.366,1751501
0.008,0.312,0.944,-0.183,1751505
0.008,0.312,0.944,-0.183,1751509
0.008,0.312,0.944,-0.183,1751513
0.007,0.312,0.944,-0.183,1751517
0.007,0.312,0.944,-0.183,1751521
0.008,0.313,0.946,-0.244,1751525
0.008,0.313,0.946,-0.183,1751529
0.008,0.313,0.946,-0.183,1751533
0.008,0.312,0.944,-0.122,1751537
0.008,0.312,0.944,-0.244,1751541
0.008,0.311,0.946,-0.305,1751545
0.008,0.311,0.946,-0.122,1751549
0.008,0.311,0.946,-0.122,1751553
0.007,0.312,0.945,-0.183,1751557
0.007,0.312,0.945,-0.183,1751561
0.009,0.314,0.945,-0.183,1751565
0.009,0.314,0.945,-0.244,1751569
0.009,0.314,0.945,-0.244,1751573
0.009,0.312,0.943,-0.183,1751577
0.009,0.312,0.943,-0.183,1751581
0.01,0.313,0.944,-0.305,1751585
0.01,0.313,0.944,-0.183,1751589
0.01,0.313,0.944,-0.183,1751593
0.007,0.317,0.944,-0.244,1751597
0.007,0.317,0.944,-0.244,1751601
0.008,0.314,0.945,-0.122,1751605
0.008,0.314,0.945,-0.061,1751609
0.008,0.314,0.945,-0.061,1751613
0.009,0.314,0.945,-0.183,1751617
