Acc_X,Acc_Y,Acc_Z,Rot_Z,Millis
-0.005,0.052,0.999,0.0,1900508
-0.005,0.052,0.999,0.0,1900512
-0.003,0.052,0.999,-0.244,1900516
-0.003,0.052,0.999,-0.244,1900520
-0.003,0.051,0.998,-0.244,1900524
-0.003,0.051,0.998,-0.183,1900528
-0.003,0.051,0.998,-0.183,1900532
-0.004,0.054,1.0,-0.122,1900536
-0.004,0.054,1.0,-0.244,1900540
-0.006,0.052,0.999,-0.244,1900544
-0.006,0.052,0.999,-0.183,1900548
-0.006,0.052,0.999,-0.183,1900552
-0.005,0.052,0.999,-0.183,1900556
-0.005,0.052,0.999,-0.183,1900560
-0.005,0.054,0.999,-0.244,1900564
-0.005,0.054,0.999,-0.122,1900568
-0.005,0.054,0.999,-0.122,1900572
-0.004,0.053,0.999,-0.183,1900576
-0.004,0.053,0.999,-0.183,1900580
-0.004,0.054,0.997,-0.061,1900584
-0.004,0.054,0.997,-0.122,1900588
-0.004,0.054,0.997,-0.122,1900592
-0.003,0.053,0.999,-0.183,1900596
-0.003,0.053,0.999,-0.183,1900600
-0.003,0.052,0.999,-0.305,1900604
-0.003,0.052,0.999,-0.244,1900608
-0.003,0.052,0.999,-0.244,1900611
-0.004,0.053,0.998,-0.183,1900615
-0.004,0.053,0.998,-0.061,1900619
-0.002,0.052,1.002,-0.183,1900623
-0.002,0.052,1.002,-0.305,1900627
-0.002,0.052,1.002,-0.305,1900631
-0.004,0.053,0.998,-0.183,1900635
-0.004,0.053,0.998,-0.244,1900639
-0.006,0.053,0.999,-0.122,1900643
-0.006,0.053,0.999,-0.244,1900647
-0.006,0.053,0.999,-0.244,1900651
-0.004,0.052,0.999,-0.183,1900655
-0.004,0.052,0.999,-0.122,1900659
-0.004,0.052,0.997,-0.183,1900663
-0.004,0.052,0.997,-0.305,1900667
-0.004,0.052,0.997,-0.305,1900671
-0.002,0.052,1.0,-0.244,1900675
-0.002,0.052,1.0,-0.122,1900679
-0.003,0.052,0.999,-0.061,1900683
-0.003,0.052,0.999,-0.183,1900687
-0.003,0.052,0.999,-0.183,1900691
-0.003,0.053,1.001,-0.183,1900695
-0.003,0.053,1.001,-0.183,1900699
-0.003,0.051,1.0,-0.183,1900703
-0.003,0.051,1.0,-0.244,1900707
-0.003,0.051,1.0,-0.244,1900711
-0.003,0.052,0.999,-0.366,1900715
-0.003,0.052,0.999,-0.305,1900719
-0.005,0.052,1.0,-0.122,1900723
-0.005,0.052,1.0,-0.305,1900727
-0.005,0.052,1.0,-0.305,1900731
-0.004,0.053,1.0,-0.183,1900735
-0.004,0.053,1.0,-0.183,1900738
-0.002,0.052,0.999,-0.122,1900742
-0.002,0.052,0.999,-0.122,1900746
-0.002,0.052,0.999,-0.122,1900750
-0.003,0.052,0.999,-0.244,1900754
-0.003,0.052,0.999,-0.122,1900758
-0.002,0.051,0.997,-0.122,1900762
-0.002,0.051,0.997,-0.122,1900766
-0.002,0.051,0.997,-0.122,1900770
-0.003,0.053,0.998,-0.244,1900774
-0.003,0.053,0.998,-0.183,1900778
-0.003,0.053,1.0,-0.061,1900782
-0.003,0.053,1.0,-0.183,1900786
-0.003,0.053,1.0,-0.183,1900790
-0.003,0.053,0.999,-0.183,1900794
-0.003,0.053,0.999,-0.122,1900798
-0.004,0.053,0.998,-0.122,1900802
-0.004,0.053,0.998,-0.122,1900806
-0.004,0.053,0.998,-0.122,1900810
-0.004,0.054,0.999,-0.244,1900814
-0.004,0.054,0.999,-0.305,1900818
-0.004,0.054,0.998,-0.305,1900822
-0.004,0.054,0.998,-0.183,1900826
-0.004,0.054,0.998,-0.183,1900830
-0.003,0.055,0.999,-0.183,1900834
-0.003,0.055,0.999,-0.122,1900838
-0.004,0.055,0.998,-0.183,1900842
-0.004,0.055,0.998,-0.122,1900846
-0.004,0.055,0.998,-0.122,1900850
-0.004,0.053,1.0,-0.244,1900854
-0.004,0.053,1.0,-0.366,1900858
-0.005,0.051,1.0,-0.244,1900862
-0.005,0.051,1.0,-0.122,1900866
-0.005,0.051,1.0,-0.122,1900870
-0.005,0.053,0.999,-0.061,1900874
-0.005,0.053,0.999,-0.183,1900877
-0.004,0.053,1.0,-0.305,1900881
-0.004,0.053,1.0,-0.183,1900885
-0.004,0.053,1.0,-0.183,1900889
-0.006,0.052,0.998,-0.244,1900893
-0.006,0.052,0.998,-0.244,1900897
-0.004,0.053,0.999,-0.244,1900901
-0.004,0.053,0.999,-0.061,1900905
-0.004,0.053,0.999,-0.061,1900909
-0.005,0.052,0.999,-0.183,1900913
-0.005,0.052,0.999,-0.244,1900917
-0.005,0.054,1.0,-0.061,1900921
-0.005,0.054,1.0,0.0,1900925
-0.005,0.054,1.0,0.0,1900929
-0.002,0.052,0.997,-0.183,1900933
-0.002,0.052,0.997,-0.244,1900937
-0.003,0.051,1.0,-0.122,1900941
-0.003,0.051,1.0,-0.122,1900945
-0.003,0.051,1.0,-0.122,1900949
-0.005,0.052,1.0,-0.183,1900953
-0.005,0.052,1.0,-0.244,1900957
-0.003,0.052,1.0,-0.244,1900961
-0.003,0.052,1.0,-0.305,1900965
-0.003,0.052,1.0,-0.305,1900969
-0.003,0.052,1.0,-0.061,1900973
-0.003,0.052,1.0,-0.061,1900977
-0.003,0.052,1.0,-0.244,1900981
-0.003,0.052,1.0,-0.183,1900985
-0.003,0.052,1.0,-0.183,1900989
-0.002,0.053,1.0,-0.122,1900992
-0.002,0.053,1.0,-0.122,1900996
-0.005,0.053,1.0,-0.122,1901000
-0.005,0.053,1.0,-0.244,1901004
-0.005,0.053,1.0,-0.244,1901008
-0.004,0.051,0.998,-0.244,1901012
-0.004,0.051,0.998,-0.122,1901016
-0.005,0.053,0.998,-0.122,1901020
-0.005,0.053,0.998,-0.122,1901024
-0.005,0.053,0.998,-0.122,1901028
-0.003,0.055,1.0,-0.122,1901032
-0.003,0.055,1.0,-0.122,1901036
-0.004,0.053,0.997,-0.244,1901040
-0.004,0.053,0.997,-0.183,1901044
-0.004,0.053,0.997,-0.183,1901048
-0.005,0.052,0.999,-0.061,1901052
-0.005,0.052,0.999,-0.305,1901056
-0.004,0.052,1.0,-0.305,1901060
-0.004,0.052,1.0,-0.061,1901064
-0.004,0.052,1.0,-0.061,1901068
-0.004,0.053,0.999,-0.244,1901072
-0.004,0.053,0.999,-0.183,1901076
-0.006,0.052,0.998,-0.122,1901080
-0.006,0.052,0.998,-0.183,1901084
-0.006,0.052,0.998,-0.183,1901088
-0.005,0.054,0.998,-0.244,1901092
-0.005,0.054,0.998,-0.122,1901096
-0.003,0.052,0.999,-0.244,1901100
-0.003,0.052,0.999,-0.183,1901104
-0.003,0.052,0.999,-0.183,1901108
-0.006,0.053,0.999,-0.244,1901112
-0.006,0.053,0.999,-0.183,1901116
-0.005,0.053,1.0,-0.183,1901120
-0.005,0.053,1.0,-0.122,1901124
-0.005,0.053,1.0,-0.122,1901128
-0.003,0.053,1.0,-0.183,1901131
-0.003,0.053,1.0,-0.366,1901135
-0.004,0.053,1.0,-0.305,1901139
-0.004,0.053,1.0,-0.183,1901143
-0.004,0.053,1.0,-0.183,1901147
-0.003,0.052,1.0,-0.183,1901151
-0.003,0.052,1.0,-0.244,1901155
-0.006,0.051,0.998,-0.183,1901159
-0.006,0.051,0.998,-0.122,1901163
-0.006,0.051,0.998,-0.122,1901167
-0.006,0.052,1.0,-0.244,1901171
-0.006,0.052,1.0,-0.244,1901175
-0.005,0.053,1.0,-0.244,1901179
-0.005,0.053,1.0,-0.183,1901183
-0.005,0.053,1.0,-0.183,1901187
-0.005,0.053,0.999,-0.122,1901191
-0.005,0.053,0.999,-0.061,1901195
-0.004,0.054,1.0,-0.183,1901199
-0.004,0.054,1.0,-0.305,1901203
-0.004,0.054,1.0,-0.305,1901207
-0.003,0.054,0.999,-0.183,1901211
-0.003,0.054,0.999,-0.183,1901215
-0.003,0.052,1.0,-0.244,1901219
-0.003,0.052,1.0,-0.183,1901223
-0.003,0.052,1.0,-0.183,1901227
-0.002,0.052,0.999,-0.244,1901231
-0.002,0.052,0.999,-0.244,1901235
-0.003,0.054,0.999,-0.122,1901239
-0.003,0.054,0.999,-0.122,1901243
-0.003,0.054,0.999,-0.122,1901247
-0.003,0.053,0.999,-0.244,1901250
-0.003,0.053,0.999,-0.122,1901254
-0.003,0.052,1.001,-0.183,1901258
-0.003,0.052,1.001,-0.244,1901262
-0.003,0.052,1.001,-0.244,1901266
-0.002,0.052,1.0,-0.122,1901270
-0.002,0.052,1.0,-0.244,1901274
-0.003,0.053,0.999,-0.183,1901278
-0.003,0.053,0.999,-0.244,1901282
-0.003,0.053,0.999,-0.244,1901286
-0.004,0.054,0.998,-0.122,1901290
-0.004,0.054,0.998,-0.183,1901294
-0.005,0.052,0.998,-0.183,1901298
-0.005,0.052,0.998,-0.244,1901302
-0.005,0.052,0.998,-0.244,1901306
-0.004,0.052,0.999,-0.183,1901310
-0.004,0.052,0.999,-0.061,1901314
-0.003,0.053,0.999,-0.183,1901318
-0.003,0.053,0.999,-0.122,1901322
-0.003,0.053,0.999,-0.122,1901326
-0.004,0.053,0.999,-0.244,1901330
-0.004,0.053,0.999,-0.183,1901334
-0.004,0.053,0.999,-0.122,1901338
-0.004,0.053,0.999,-0.244,1901342
-0.004,0.053,0.999,-0.244,1901346
-0.004,0.052,0.999,-0.122,1901350
-0.004,0.052,0.999,-0.183,1901354
-0.003,0.051,0.998,-0.061,1901358
-0.003,0.051,0.998,-0.061,1901362
-0.003,0.051,0.998,-0.061,1901366
-0.005,0.053,0.999,-0.122,1901370
-0.005,0.053,0.999,-0.122,1901374
-0.006,0.052,0.999,-0.183,1901378
-0.006,0.052,0.999,-0.122,1901381
-0.006,0.052,0.999,-0.122,1901385
-0.004,0.052,0.999,-0.183,1901389
-0.004,0.052,0.999,-0.244,1901393
-0.004,0.052,1.0,-0.244,1901397
-0.004,0.052,1.0,-0.183,1901401
-0.004,0.052,1.0,-0.183,1901405
-0.005,0.052,0.998,-0.183,1901409
-0.005,0.052,0.998,-0.183,1901413
-0.004,0.052,0.999,-0.366,1901417
-0.004,0.052,0.999,-0.305,1901421
-0.004,0.052,0.999,-0.305,1901425
-0.005,0.055,0.999,-0.305,1901429
-0.005,0.055,0.999,-0.305,1901433
-0.003,0.054,0.999,-0.244,1901437
-0.003,0.054,0.999,-0.183,1901441
-0.003,0.054,0.999,-0.183,1901445
-0.003,0.053,0.998,-0.183,1901449
-0.003,0.053,0.998,-0.244,1901453
-0.004,0.052,0.999,-0.244,1901457
-0.004,0.052,0.999,-0.244,1901461
-0.004,0.052,0.999,-0.244,1901465
-0.002,0.053,0.999,-0.244,1901469
-0.002,0.053,0.999,-0.183,1901473
-0.004,0.052,0.999,-0.061,1901477
-0.004,0.052,0.999,-0.122,1901481
-0.004,0.052,0.999,-0.122,1901485
-0.004,0.051,0.999,-0.183,1901489
-0.004,0.051,0.999,-0.122,1901493
-0.005,0.051,0.998,-0.183,1901497
-0.005,0.051,0.998,-0.366,1901501
-0.005,0.051,0.998,-0.366,1901505
-0.003,0.053,0.999,-0.122,1901509
-0.003,0.053,0.999,-0.244,1901513
-0.005,0.052,1.0,-0.305,1901517
-0.005,0.052,1.0,-0.305,1901521
-0.005,0.052,1.0,-0.305,1901524
-0.003,0.052,0.999,-0.183,1901528
-0.003,0.052,0.999,-0.183,1901532
-0.003,0.053,0.999,-0.122,1901536
-0.003,0.053,0.999,-0.061,1901540
-0.003,0.053,0.999,-0.061,1901544
-0.006,0.053,1.0,-0.183,1901548
-0.006,0.053,1.0,-0.183,1901552
-0.003,0.052,0.998,-0.122,1901556
-0.003,0.052,0.998,-0.061,1901560
-0.003,0.052,0.998,-0.061,1901564
-0.003,0.052,0.998,-0.122,1901568
-0.003,0.052,0.998,-0.183,1901572
-0.003,0.053,1.0,-0.061,1901576
-0.003,0.053,1.0,-0.183,1901580
-0.003,0.053,1.0,-0.183,1901584
-0.004,0.052,1.0,-0.122,1901588
-0.004,0.052,1.0,-0.183,1901592
-0.004,0.052,0.998,-0.122,1901596
-0.004,0.052,0.998,-0.122,1901600
-0.004,0.052,0.998,-0.122,1901604
-0.003,0.052,0.998,-0.183,1901608
-0.003,0.052,0.998,-0.122,1901612
-0.002,0.053,0.998,-0.122,1901616
-0.002,0.053,0.998,-0.122,1901620
-0.002,0.053,0.998,-0.122,1901624
-0.005,0.054,1.0,-0.122,1901628
-0.005,0.054,1.0,-0.183,1901632
-0.004,0.053,0.998,-0.122,1901636
-0.004,0.053,0.998,-0.183,1901640
-0.004,0.053,0.998,-0.183,1901644
-0.005,0.052,0.999,-0.244,1901648
-0.005,0.052,0.999,-0.305,1901652
-0.004,0.054,1.0,-0.122,1901655
-0.004,0.054,1.0,-0.183,1901659
-0.004,0.054,1.0,-0.183,1901663
-0.003,0.053,0.999,-0.244,1901667
-0.003,0.053,0.999,-0.183,1901671
-0.005,0.053,0.999,-0.244,1901675
-0.005,0.053,0.999,-0.305,1901679
-0.005,0.053,0.999,-0.305,1901683
-0.002,0.052,0.998,-0.183,1901687
-0.002,0.052,0.998,-0.244,1901691
-0.003,0.053,0.999,-0.244,1901695
-0.003,0.053,0.999,-0.183,1901699
-0.003,0.053,0.999,-0.183,1901703
-0.003,0.053,0.999,-0.305,1901707
-0.003,0.053,0.999,-0.183,1901711
-0.003,0.053,1.0,-0.183,1901715
-0.003,0.053,1.0,-0.183,1901719
-0.003,0.053,1.0,-0.183,1901723
-0.002,0.052,0.999,-0.305,1901727
-0.002,0.052,0.999,-0.244,1901731
-0.003,0.052,1.0,-0.305,1901735
-0.003,0.052,1.0,-0.183,1901739
-0.003,0.052,1.0,-0.183,1901743
-0.004,0.053,0.998,-0.061,1901747
-0.004,0.053,0.998,-0.061,1901751
-0.004,0.052,0.998,-0.244,1901755
-0.004,0.052,0.998,-0.122,1901759
-0.004,0.052,0.998,-0.122,1901763
-0.004,0.052,0.999,-0.305,1901767
-0.004,0.052,0.999,-0.427,1901771
-0.002,0.053,0.998,-0.122,1901775
-0.002,0.053,0.998,-0.122,1901779
-0.004,0.053,1.0,-0.305,1901783
-0.004,0.053,1.0,-0.305,1901787
-0.004,0.053,1.0,-0.244,1901791
-0.004,0.052,0.999,-0.122,1901794
-0.004,0.052,0.999,-0.183,1901798
-0.003,0.052,0.998,-0.244,1901802
-0.003,0.052,0.998,-0.244,1901806
-0.003,0.052,0.998,-0.244,1901810
-0.003,0.053,0.999,-0.244,1901814
-0.003,0.053,0.999,-0.244,1901818
-0.004,0.053,0.999,-0.305,1901822
-0.004,0.053,0.999,-0.305,1901826
-0.004,0.053,0.999,-0.305,1901830
-0.004,0.053,1.0,-0.183,1901834
-0.004,0.053,1.0,-0.122,1901838
-0.005,0.053,1.0,-0.122,1901842
-0.005,0.053,1.0,-0.122,1901846
-0.005,0.053,1.0,-0.305,1901850
-0.004,0.052,1.0,-0.183,1901854
-0.004,0.052,1.0,-0.305,1901858
-0.005,0.052,1.0,-0.366,1901862
-0.005,0.052,1.0,-0.366,1901866
-0.005,0.052,1.0,-0.305,1901870
-0.005,0.053,0.999,-0.244,1901874
-0.005,0.053,0.999,-0.244,1901878
-0.006,0.053,1.0,-0.183,1901882
-0.006,0.053,1.0,-0.183,1901886
-0.006,0.053,1.0,-0.122,1901890
-0.004,0.052,0.999,-0.122,1901894
-0.004,0.052,0.999,-0.244,1901898
-0.004,0.053,0.997,-0.244,1901902
-0.004,0.053,0.997,-0.244,1901906
-0.004,0.053,0.997,-0.183,1901910
-0.006,0.052,0.999,-0.122,1901914
-0.006,0.052,0.999,-0.183,1901918
-0.004,0.053,0.999,-0.183,1901922
-0.004,0.053,0.999,-0.183,1901926
-0.004,0.053,0.999,-0.366,1901929
-0.004,0.052,0.999,-0.305,1901933
-0.004,0.052,0.999,-0.183,1901937
-0.005,0.051,1.0,-0.183,1901941
-0.005,0.051,1.0,-0.183,1901945
-0.005,0.051,1.0,-0.305,1901949
-0.004,0.052,0.999,-0.183,1901953
-0.004,0.052,0.999,-0.122,1901957
-0.004,0.052,0.999,-0.305,1901961
-0.004,0.052,0.999,-0.305,1901965
-0.004,0.052,0.999,-0.305,1901969
-0.003,0.053,1.001,-0.183,1901973
-0.003,0.053,1.001,-0.183,1901977
-0.003,0.051,0.999,-0.183,1901981
-0.003,0.051,0.999,-0.183,1901985
-0.003,0.051,0.999,-0.183,1901989
-0.005,0.052,1.0,-0.122,1901993
-0.005,0.052,1.0,-0.244,1901997
-0.004,0.053,0.999,-0.244,1902001
-0.004,0.053,0.999,-0.244,1902005
-0.004,0.053,0.999,-0.122,1902009
-0.004,0.054,1.0,-0.183,1902013
-0.004,0.054,1.0,-0.183,1902017
-0.003,0.054,0.999,-0.244,1902021
-0.003,0.054,0.999,-0.244,1902025
-0.003,0.054,0.999,-0.305,1902029
-0.002,0.053,0.999,-0.183,1902033
-0.002,0.053,0.999,-0.183,1902037
-0.004,0.053,0.999,-0.183,1902041
-0.004,0.053,0.999,-0.183,1902045
-0.004,0.053,0.999,-0.122,1902049
-0.005,0.053,1.0,-0.183,1902053
-0.005,0.053,1.0,-0.244,1902057
-0.003,0.053,0.999,-0.183,1902060
-0.003,0.053,0.999,-0.183,1902064
-0.003,0.053,0.999,-0.183,1902068
-0.005,0.052,0.997,-0.244,1902072
-0.005,0.052,0.997,-0.183,1902076
-0.005,0.052,0.999,-0.122,1902080
-0.005,0.052,0.999,-0.122,1902084
-0.005,0.052,0.999,-0.244,1902088
-0.005,0.052,1.0,0.0,1902092
-0.005,0.052,1.0,-0.122,1902096
-0.005,0.052,1.0,-0.366,1902100
-0.005,0.052,1.0,-0.366,1902104
-0.005,0.052,1.0,-0.183,1902108
-0.005,0.054,0.998,0.122,1902112
-0.005,0.054,0.998,-0.061,1902116
-0.004,0.053,1.0,-0.244,1902120
-0.004,0.053,1.0,-0.244,1902124
-0.004,0.053,1.0,-0.183,1902128
-0.004,0.053,0.999,-0.244,1902132
-0.004,0.053,0.999,-0.122,1902136
-0.004,0.052,0.998,-0.244,1902140
-0.004,0.052,0.998,-0.244,1902144
-0.004,0.052,0.998,-0.183,1902148
-0.006,0.053,0.998,-0.122,1902152
-0.006,0.053,0.998,-0.183,1902156
-0.003,0.052,0.998,-0.183,1902160
-0.003,0.052,0.998,-0.183,1902164
-0.003,0.052,0.998,-0.061,1902168
-0.004,0.053,1.001,-0.183,1902172
-0.004,0.053,1.001,-0.122,1902175
-0.003,0.054,1.0,-0.244,1902179
-0.003,0.054,1.0,-0.244,1902183
-0.003,0.054,1.0,-0.244,1902187
-0.002,0.054,0.999,-0.305,1902191
-0.002,0.054,0.999,-0.183,1902195
-0.003,0.053,1.001,0.061,1902199
-0.003,0.053,1.001,0.061,1902203
-0.003,0.053,1.001,-0.061,1902207
-0.003,0.053,0.999,-0.305,1902211
-0.003,0.053,0.999,-0.183,1902215
-0.006,0.053,0.998,-0.244,1902219
-0.006,0.053,0.998,-0.244,1902223
-0.006,0.053,0.998,-0.244,1902227
-0.004,0.053,0.998,-0.244,1902231
-0.004,0.053,0.998,-0.183,1902235
-0.004,0.053,0.999,-0.244,1902239
-0.004,0.053,0.999,-0.244,1902243
-0.004,0.053,0.999,-0.244,1902247
-0.004,0.053,0.999,-0.122,1902251
-0.004,0.053,0.999,-0.183,1902255
-0.005,0.053,0.998,-0.244,1902259
-0.005,0.053,0.998,-0.244,1902263
-0.005,0.053,0.998,-0.061,1902267
-0.005,0.052,0.998,-0.244,1902271
-0.005,0.052,0.998,-0.244,1902275
-0.004,0.053,1.0,-0.122,1902279
-0.004,0.053,1.0,-0.122,1902283
-0.004,0.053,1.0,-0.061,1902287
-0.003,0.053,1.0,-0.183,1902291
-0.003,0.053,1.0,-0.366,1902294
-0.003,0.053,1.0,-0.244,1902298
-0.003,0.053,1.0,-0.244,1902302
-0.003,0.053,1.0,-0.305,1902306
-0.006,0.053,0.999,-0.244,1902310
-0.006,0.053,0.999,-0.122,1902314
-0.003,0.052,0.998,-0.122,1902318
-0.003,0.052,0.998,-0.122,1902322
-0.003,0.052,0.998,-0.122,1902326
-0.002,0.053,1.0,-0.183,1902330
-0.002,0.053,1.0,-0.122,1902334
-0.003,0.053,0.998,-0.244,1902338
-0.003,0.053,0.998,-0.244,1902342
-0.003,0.053,0.998,-0.244,1902346
-0.003,0.052,0.998,-0.183,1902350
-0.003,0.052,0.998,-0.183,1902354
-0.004,0.051,0.998,-0.305,1902358
-0.004,0.051,0.998,-0.305,1902362
-0.004,0.051,0.998,-0.244,1902366
-0.004,0.052,1.0,-0.061,1902370
-0.004,0.052,1.0,-0.122,1902374
-0.002,0.052,1.0,-0.244,1902378
-0.002,0.052,1.0,-0.244,1902382
-0.002,0.052,1.0,-0.122,1902386
-0.004,0.052,0.999,-0.244,1902390
-0.004,0.052,0.999,-0.183,1902394
-0.005,0.053,0.999,-0.122,1902398
-0.005,0.053,0.999,-0.122,1902402
-0.005,0.053,0.999,-0.183,1902406
-0.004,0.053,0.999,-0.183,1902410
-0.004,0.053,0.999,-0.183,1902414
-0.003,0.053,0.998,-0.183,1902418
-0.003,0.053,0.998,-0.183,1902422
-0.003,0.053,0.998,-0.183,1902426
-0.004,0.053,0.998,-0.183,1902430
-0.004,0.053,0.998,-0.183,1902433
-0.004,0.054,0.998,-0.061,1902437
-0.004,0.054,0.998,-0.061,1902441
-0.004,0.054,0.998,-0.122,1902445
-0.003,0.052,1.0,-0.183,1902449
-0.003,0.052,1.0,-0.183,1902453
-0.004,0.052,1.0,-0.122,1902457
-0.004,0.052,1.0,-0.122,1902461
-0.004,0.052,1.0,-0.122,1902465
-0.003,0.052,0.999,-0.183,1902469
-0.003,0.052,0.999,-0.244,1902473
-0.004,0.052,0.999,-0.244,1902477
-0.004,0.052,0.999,-0.244,1902481
-0.004,0.052,0.999,-0.122,1902485
-0.005,0.052,0.999,-0.183,1902489
-0.005,0.052,0.999,-0.183,1902493
-0.003,0.052,1.0,-0.122,1902497
-0.003,0.052,1.0,-0.122,1902501
-0.003,0.052,1.0,-0.244,1902505
-0.005,0.052,1.001,-0.244,1902509
-0.005,0.052,1.001,-0.183,1902513
-0.003,0.052,1.0,-0.122,1902517
-0.003,0.052,1.0,-0.122,1902521
-0.003,0.052,1.0,-0.183,1902525
-0.004,0.052,1.0,-0.183,1902529
-0.004,0.052,1.0,-0.183,1902533
-0.005,0.052,1.0,-0.305,1902537
-0.005,0.052,1.0,-0.305,1902541
-0.005,0.052,1.0,-0.366,1902545
-0.003,0.052,1.0,-0.488,1902549
-0.003,0.052,1.0,-0.244,1902553
-0.004,0.053,1.0,-0.183,1902557
-0.004,0.053,1.0,-0.183,1902560
-0.004,0.053,1.0,-0.183,1902564
-0.004,0.053,0.999,-0.244,1902568
-0.004,0.053,0.999,-0.305,1902572
-0.004,0.054,1.0,-0.183,1902576
-0.004,0.054,1.0,-0.183,1902580
-0.004,0.054,1.0,-0.183,1902584
-0.003,0.053,0.998,-0.183,1902588
-0.003,0.053,0.998,-0.183,1902592
-0.004,0.052,0.998,-0.244,1902596
-0.004,0.052,0.998,-0.244,1902600
-0.004,0.052,0.998,-0.244,1902604
-0.004,0.052,0.999,-0.061,1902608
-0.004,0.052,0.999,-0.183,1902612
-0.004,0.054,0.999,-0.183,1902616
-0.004,0.054,0.999,-0.183,1902620
-0.004,0.054,0.999,-0.061,1902624
-0.003,0.054,0.999,-0.061,1902628
-0.003,0.054,0.999,-0.305,1902632
-0.004,0.053,0.999,-0.183,1902636
-0.004,0.053,0.999,-0.183,1902640
-0.004,0.053,0.999,-0.244,1902644
-0.004,0.054,1.001,-0.244,1902648
-0.004,0.054,1.001,-0.122,1902652
-0.002,0.053,1.001,-0.183,1902656
-0.002,0.053,1.001,-0.183,1902660
-0.002,0.053,1.001,-0.244,1902664
-0.004,0.052,0.999,-0.061,1902668
-0.004,0.052,0.999,-0.183,1902672
-0.005,0.053,0.997,-0.244,1902676
-0.005,0.053,0.997,-0.244,1902680
-0.005,0.053,0.997,-0.183,1902684
-0.005,0.053,1.0,-0.244,1902688
-0.005,0.053,1.0,-0.244,1902692
-0.005,0.052,1.001,-0.183,1902695
-0.005,0.052,1.001,-0.183,1902699
-0.005,0.052,1.001,-0.244,1902703
-0.003,0.052,1.0,-0.122,1902707
-0.003,0.052,1.0,-0.122,1902711
-0.003,0.052,1.0,-0.122,1902715
-0.003,0.052,1.0,-0.122,1902719
-0.003,0.052,1.0,-0.244,1902723
-0.003,0.053,0.999,-0.427,1902727
-0.003,0.053,0.999,-0.305,1902731
-0.003,0.052,0.999,-0.244,1902735
-0.003,0.052,0.999,-0.244,1902739
-0.003,0.052,0.999,-0.183,1902743
-0.003,0.053,1.001,-0.183,1902747
-0.003,0.053,1.001,-0.122,1902751
-0.003,0.053,0.999,-0.122,1902755
-0.003,0.053,0.999,-0.122,1902759
-0.003,0.053,0.999,-0.244,1902763
-0.003,0.053,0.997,-0.244,1902767
-0.003,0.053,0.997,-0.244,1902771
-0.004,0.052,0.999,-0.183,1902775
-0.004,0.052,0.999,-0.183,1902779
-0.004,0.052,0.999,-0.122,1902783
-0.005,0.053,1.0,-0.183,1902787
-0.005,0.053,1.0,-0.183,1902791
-0.005,0.053,0.999,-0.305,1902795
-0.005,0.053,0.999,-0.305,1902799
-0.005,0.053,0.999,-0.305,1902803
-0.006,0.055,0.997,-0.122,1902807
-0.006,0.055,0.997,-0.061,1902811
-0.003,0.052,1.0,-0.122,1902815
-0.003,0.052,1.0,-0.122,1902818
-0.003,0.052,1.0,-0.122,1902822
-0.003,0.052,0.998,-0.061,1902826
-0.003,0.052,0.998,-0.122,1902830
-0.004,0.052,0.999,-0.244,1902834
-0.004,0.052,0.999,-0.244,1902838
-0.004,0.052,0.999,-0.183,1902842
-0.004,0.054,0.999,-0.183,1902846
-0.004,0.054,0.999,-0.061,1902850
-0.004,0.053,1.0,-0.244,1902854
-0.004,0.053,1.0,-0.244,1902858
-0.004,0.053,1.0,-0.183,1902862
-0.005,0.054,1.0,-0.061,1902866
-0.005,0.054,1.0,0.0,1902870
-0.006,0.052,1.0,-0.122,1902874
-0.006,0.052,1.0,-0.122,1902878
-0.006,0.052,1.0,-0.061,1902882
-0.006,0.053,0.998,-0.122,1902886
-0.006,0.053,0.998,-0.244,1902890
-0.003,0.053,0.999,-0.183,1902894
-0.003,0.053,0.999,-0.183,1902898
-0.003,0.053,0.999,-0.122,1902902
-0.004,0.052,0.999,-0.061,1902906
-0.004,0.052,0.999,-0.183,1902910
-0.003,0.053,0.998,-0.183,1902914
-0.003,0.053,0.998,-0.183,1902918
-0.003,0.053,0.998,-0.183,1902922
-0.005,0.052,0.999,-0.183,1902926
-0.005,0.052,0.999,-0.183,1902930
-0.003,0.052,0.999,-0.305,1902934
-0.003,0.052,0.999,-0.305,1902938
-0.003,0.052,0.999,-0.122,1902941
-0.004,0.052,1.0,-0.244,1902945
-0.004,0.052,1.0,-0.183,1902949
-0.004,0.052,0.999,-0.122,1902953
-0.004,0.052,0.999,-0.122,1902957
-0.004,0.052,0.999,-0.183,1902961
-0.002,0.053,0.999,-0.183,1902965
-0.002,0.053,0.999,-0.366,1902969
-0.005,0.053,1.0,-0.427,1902973
-0.005,0.053,1.0,-0.427,1902977
-0.005,0.053,1.0,-0.366,1902981
-0.005,0.054,0.999,-0.244,1902985
-0.005,0.054,0.999,-0.061,1902989
-0.004,0.053,0.999,-0.122,1902993
-0.004,0.053,0.999,-0.122,1902997
-0.004,0.053,0.999,-0.061,1903001
-0.003,0.053,0.998,-0.122,1903005
-0.003,0.053,0.998,-0.183,1903009
-0.004,0.054,1.0,-0.244,1903013
-0.004,0.054,1.0,-0.244,1903017
-0.004,0.054,1.0,-0.305,1903021
-0.002,0.054,0.999,-0.183,1903025
-0.002,0.054,0.999,-0.183,1903029
-0.003,0.053,1.0,-0.061,1903033
-0.003,0.053,1.0,-0.061,1903037
-0.003,0.053,1.0,0.0,1903041
-0.005,0.053,0.999,-0.122,1903045
-0.005,0.053,0.999,-0.305,1903049
-0.003,0.053,1.0,-0.244,1903053
-0.003,0.053,1.0,-0.244,1903057
-0.003,0.053,1.0,-0.122,1903061
-0.005,0.052,1.0,-0.122,1903064
-0.005,0.052,1.0,-0.122,1903068
-0.003,0.053,0.998,-0.122,1903072
-0.003,0.053,0.998,-0.122,1903076
-0.003,0.053,0.998,-0.122,1903080
-0.003,0.053,1.0,-0.183,1903084
-0.003,0.053,1.0,-0.244,1903088
-0.003,0.052,1.0,-0.122,1903092
-0.003,0.052,1.0,-0.122,1903096
-0.003,0.052,1.0,-0.244,1903100
-0.005,0.052,0.998,-0.305,1903104
-0.005,0.052,0.998,-0.183,1903108
-0.004,0.051,0.999,-0.366,1903112
-0.004,0.051,0.999,-0.366,1903116
-0.004,0.051,0.999,-0.305,1903120
-0.005,0.052,1.0,-0.244,1903124
-0.005,0.052,1.0,-0.183,1903128
-0.004,0.053,0.999,-0.183,1903132
-0.004,0.053,0.999,-0.183,1903136
-0.004,0.053,0.999,-0.061,1903140
-0.004,0.052,1.0,-0.244,1903144
-0.004,0.052,1.0,-0.244,1903148
-0.003,0.053,0.999,-0.183,1903152
-0.003,0.053,0.999,-0.183,1903156
-0.003,0.053,0.999,-0.183,1903160
-0.005,0.052,0.998,-0.122,1903164
-0.005,0.052,0.998,-0.122,1903168
-0.004,0.053,0.998,-0.183,1903172
-0.004,0.053,0.998,-0.183,1903176
-0.004,0.053,0.998,-0.183,1903180
-0.003,0.053,0.999,-0.122,1903184
-0.003,0.053,0.999,-0.122,1903188
-0.006,0.053,1.0,-0.244,1903192
-0.006,0.053,1.0,-0.244,1903195
-0.006,0.053,1.0,-0.183,1903199
-0.003,0.053,0.997,-0.122,1903203
-0.003,0.053,0.997,-0.244,1903207
-0.003,0.053,0.998,-0.244,1903211
-0.003,0.053,0.998,-0.244,1903215
-0.003,0.053,0.998,-0.122,1903219
-0.005,0.054,1.0,-0.122,1903223
-0.005,0.054,1.0,-0.366,1903227
-0.004,0.053,0.999,-0.183,1903231
-0.004,0.053,0.999,-0.183,1903235
-0.004,0.053,0.999,-0.244,1903239
-0.004,0.051,0.999,-0.244,1903243
-0.004,0.051,0.999,0.0,1903247
-0.004,0.052,1.0,-0.183,1903251
-0.004,0.052,1.0,-0.183,1903255
-0.004,0.052,1.0,-0.061,1903259
-0.003,0.054,1.0,-0.122,1903263
-0.003,0.054,1.0,-0.244,1903267
-0.004,0.053,0.998,-0.183,1903271
-0.004,0.053,0.998,-0.183,1903275
-0.004,0.053,0.998,-0.122,1903279
-0.004,0.053,1.001,-0.244,1903283
-0.004,0.053,1.001,-0.183,1903287
-0.004,0.055,0.999,-0.122,1903291
-0.004,0.055,0.999,-0.122,1903295
-0.004,0.055,0.999,-0.061,1903299
-0.004,0.053,0.999,-0.122,1903303
-0.004,0.053,0.999,-0.183,1903307
-0.004,0.052,0.999,-0.183,1903311
-0.004,0.052,0.999,-0.183,1903315
-0.004,0.052,0.999,-0.244,1903319
-0.003,0.053,0.999,-0.122,1903323
-0.003,0.053,0.999,-0.122,1903326
-0.003,0.053,0.999,-0.061,1903330
-0.003,0.053,0.999,-0.061,1903334
-0.003,0.053,0.999,-0.122,1903338
-0.003,0.054,1.0,-0.183,1903342
-0.003,0.054,1.0,-0.183,1903346
-0.002,0.054,1.0,-0.305,1903350
-0.002,0.054,1.0,-0.305,1903354
-0.002,0.054,1.0,-0.183,1903358
-0.002,0.053,1.0,-0.183,1903362
-0.002,0.053,1.0,-0.183,1903366
-0.002,0.053,0.999,-0.244,1903370
-0.002,0.053,0.999,-0.244,1903374
-0.002,0.053,0.999,-0.305,1903378
-0.002,0.054,0.999,-0.244,1903382
-0.002,0.054,0.999,-0.122,1903386
-0.004,0.054,1.0,-0.061,1903390
-0.004,0.054,1.0,-0.061,1903394
-0.004,0.054,1.0,-0.183,1903398
-0.004,0.052,0.998,-0.305,1903402
-0.004,0.052,0.998,-0.244,1903406
-0.004,0.052,1.0,-0.244,1903410
-0.004,0.052,1.0,-0.244,1903414
-0.004,0.052,1.0,-0.183,1903418
-0.004,0.052,1.001,-0.244,1903422
-0.004,0.052,1.001,-0.122,1903426
-0.004,0.053,0.998,-0.122,1903430
-0.004,0.053,0.998,-0.122,1903434
-0.004,0.053,0.998,-0.183,1903438
-0.002,0.053,0.998,-0.244,1903442
-0.002,0.053,0.998,-0.183,1903446
-0.003,0.053,1.001,-0.122,1903449
-0.003,0.053,1.001,-0.122,1903453
-0.003,0.053,1.001,-0.122,1903457
-0.006,0.054,1.0,-0.183,1903461
-0.006,0.054,1.0,-0.183,1903465
-0.004,0.054,1.0,-0.244,1903469
-0.004,0.054,1.0,-0.244,1903473
-0.004,0.054,1.0,-0.244,1903477
-0.003,0.054,1.0,-0.183,1903481
-0.003,0.054,1.0,-0.183,1903485
-0.004,0.053,1.0,-0.122,1903489
-0.004,0.053,1.0,-0.122,1903493
-0.004,0.053,1.0,-0.122,1903497
-0.004,0.053,0.998,-0.305,1903501
-0.004,0.053,0.998,-0.183,1903505
-0.004,0.053,0.999,-0.244,1903509
-0.004,0.053,0.999,-0.244,1903513
-0.004,0.053,0.999,-0.244,1903517
-0.004,0.053,0.998,-0.183,1903521
-0.004,0.053,0.998,-0.183,1903525
-0.004,0.053,1.0,-0.244,1903529
-0.004,0.053,1.0,-0.244,1903533
-0.004,0.053,1.0,-0.061,1903537
-0.003,0.052,0.998,-0.183,1903541
-0.003,0.052,0.998,-0.122,1903545
-0.003,0.053,0.999,-0.183,1903549
-0.003,0.053,0.999,-0.183,1903553
-0.003,0.053,0.999,-0.244,1903557
-0.003,0.053,0.998,-0.122,1903561
-0.003,0.053,0.998,-0.122,1903565
-0.004,0.053,0.998,-0.183,1903569
-0.004,0.053,0.998,-0.183,1903573
-0.004,0.053,0.998,-0.244,1903577
-0.003,0.054,0.999,-0.244,1903581
-0.003,0.054,0.999,-0.244,1903585
-0.004,0.053,0.998,-0.244,1903589
-0.004,0.053,0.998,-0.244,1903592
-0.004,0.053,0.998,-0.122,1903596
-0.004,0.053,0.998,-0.183,1903600
-0.004,0.053,0.998,-0.183,1903604
-0.004,0.053,0.999,-0.122,1903608
-0.004,0.053,0.999,-0.122,1903612
-0.004,0.053,0.999,-0.122,1903616
-0.004,0.052,0.999,-0.244,1903620
-0.004,0.052,0.999,-0.244,1903624
-0.005,0.053,0.999,-0.305,1903628
-0.005,0.053,0.999,-0.305,1903632
-0.005,0.053,0.999,-0.183,1903636
-0.006,0.052,0.999,-0.305,1903640
-0.006,0.052,0.999,-0.366,1903644
-0.004,0.052,1.0,-0.122,1903648
-0.004,0.052,1.0,-0.122,1903652
-0.004,0.052,1.0,-0.061,1903656
-0.004,0.052,0.997,-0.183,1903660
-0.004,0.052,0.997,-0.122,1903664
-0.004,0.053,0.999,-0.244,1903668
-0.004,0.053,0.999,-0.244,1903672
-0.004,0.053,0.999,-0.183,1903676
-0.004,0.052,1.0,-0.183,1903680
-0.004,0.052,1.0,-0.122,1903684
-0.005,0.053,0.999,-0.122,1903688
-0.005,0.053,0.999,-0.122,1903692
-0.005,0.053,0.999,-0.183,1903696
-0.003,0.053,1.001,-0.122,1903700
-0.003,0.053,1.001,-0.244,1903704
-0.004,0.052,0.998,-0.244,1903708
-0.004,0.052,0.998,-0.244,1903712
-0.004,0.052,0.998,-0.366,1903716
-0.004,0.053,0.999,-0.183,1903719
-0.004,0.053,0.999,-0.183,1903723
-0.003,0.054,1.0,-0.183,1903727
-0.003,0.054,1.0,-0.183,1903731
-0.003,0.054,1.0,-0.122,1903735
-0.004,0.052,0.999,-0.061,1903739
-0.004,0.052,0.999,-0.183,1903743
-0.005,0.052,0.999,-0.061,1903747
-0.005,0.052,0.999,-0.061,1903751
-0.005,0.052,0.999,-0.305,1903755
-0.004,0.052,1.0,-0.183,1903759
-0.004,0.052,1.0,-0.183,1903763
-0.003,0.052,0.998,-0.305,1903767
-0.003,0.052,0.998,-0.305,1903771
-0.003,0.052,0.998,-0.244,1903775
-0.003,0.053,1.0,-0.122,1903779
-0.003,0.053,1.0,-0.122,1903783
-0.004,0.052,1.0,-0.061,1903787
-0.004,0.052,1.0,-0.061,1903791
-0.004,0.052,1.0,-0.244,1903795
-0.003,0.052,1.0,-0.244,1903799
-0.003,0.052,1.0,-0.183,1903803
-0.003,0.052,0.999,-0.244,1903807
-0.003,0.052,0.999,-0.244,1903811
-0.003,0.052,0.999,-0.183,1903815
-0.004,0.051,1.0,-0.183,1903819
-0.004,0.051,1.0,-0.183,1903823
-0.005,0.051,1.001,-0.183,1903827
-0.005,0.051,1.001,-0.183,1903831
-0.005,0.051,1.001,-0.244,1903835
-0.004,0.053,0.998,-0.244,1903839
-0.004,0.053,0.998,0.0,1903843
-0.004,0.052,0.999,0.0,1903847
-0.004,0.052,0.999,0.0,1903850
-0.004,0.052,0.999,-0.244,1903854
-0.004,0.052,0.999,-0.122,1903858
-0.004,0.052,0.999,-0.122,1903862
-0.006,0.053,0.999,-0.183,1903866
-0.006,0.053,0.999,-0.183,1903870
-0.006,0.053,0.999,-0.183,1903874
-0.003,0.052,1.0,0.0,1903878
-0.003,0.052,1.0,-0.122,1903882
-0.002,0.053,1.0,-0.183,1903886
-0.002,0.053,1.0,-0.183,1903890
-0.002,0.053,1.0,-0.183,1903894
-0.004,0.054,0.998,-0.183,1903898
-0.004,0.054,0.998,-0.305,1903902
-0.005,0.053,1.0,-0.305,1903906
-0.005,0.053,1.0,-0.305,1903910
-0.005,0.053,1.0,-0.122,1903914
-0.004,0.054,0.999,-0.305,1903918
-0.004,0.054,0.999,-0.244,1903922
-0.006,0.054,0.999,-0.183,1903926
-0.006,0.054,0.999,-0.183,1903930
-0.006,0.054,0.999,-0.244,1903934
-0.004,0.054,1.0,-0.183,1903938
-0.004,0.054,1.0,-0.183,1903942
-0.002,0.052,1.0,-0.183,1903946
-0.002,0.052,1.0,-0.183,1903950
-0.002,0.052,1.0,-0.061,1903954
-0.002,0.052,0.999,-0.183,1903957
-0.002,0.052,0.999,-0.122,1903961
-0.004,0.052,1.0,-0.122,1903965
-0.004,0.052,1.0,-0.122,1903969
-0.004,0.052,1.0,-0.183,1903973
-0.004,0.052,0.998,-0.244,1903977
-0.004,0.052,0.998,-0.305,1903981
-0.004,0.052,0.999,-0.244,1903985
-0.004,0.052,0.999,-0.244,1903989
-0.004,0.052,0.999,-0.122,1903993
-0.004,0.052,1.0,-0.061,1903997
-0.004,0.052,1.0,-0.183,1904001
-0.005,0.052,1.0,-0.305,1904005
-0.005,0.052,1.0,-0.305,1904009
-0.005,0.052,1.0,-0.366,1904013
-0.003,0.052,0.999,-0.183,1904017
-0.003,0.052,0.999,-0.061,1904021
-0.002,0.052,0.997,-0.122,1904025
-0.002,0.052,0.997,-0.122,1904029
-0.002,0.052,0.997,-0.183,1904033
-0.003,0.052,1.0,-0.183,1904037
-0.003,0.052,1.0,-0.183,1904041
-0.003,0.052,0.999,-0.244,1904045
-0.003,0.052,0.999,-0.244,1904049
-0.003,0.052,0.999,-0.244,1904053
-0.003,0.052,0.998,-0.183,1904057
-0.003,0.052,0.998,-0.122,1904061
-0.004,0.052,0.999,-0.183,1904065
-0.004,0.052,0.999,-0.183,1904069
-0.004,0.052,0.999,-0.244,1904073
-0.002,0.053,1.001,-0.061,1904077
-0.002,0.053,1.001,-0.305,1904081
-0.003,0.052,1.0,-0.244,1904085
-0.003,0.052,1.0,-0.244,1904089
-0.003,0.052,1.0,-0.183,1904092
-0.003,0.052,1.0,-0.183,1904096
-0.003,0.052,1.0,-0.061,1904100
-0.004,0.053,0.999,-0.183,1904104
-0.004,0.053,0.999,-0.183,1904108
-0.004,0.053,0.999,-0.244,1904112
-0.005,0.054,1.0,-0.305,1904116
-0.005,0.054,1.0,-0.183,1904120
-0.005,0.055,0.999,-0.183,1904124
-0.005,0.055,0.999,-0.183,1904128
-0.005,0.055,0.999,-0.122,1904132
-0.004,0.054,0.997,-0.061,1904136
-0.004,0.054,0.997,-0.183,1904140
-0.002,0.055,0.998,-0.183,1904144
-0.002,0.055,0.998,-0.183,1904148
-0.002,0.055,0.998,-0.061,1904152
-0.005,0.053,0.999,-0.122,1904156
-0.005,0.053,0.999,-0.183,1904160
-0.004,0.053,0.998,-0.366,1904164
-0.004,0.053,0.998,-0.366,1904168
-0.004,0.053,0.998,-0.061,1904172
-0.004,0.052,0.999,-0.183,1904176
-0.004,0.052,0.999,-0.244,1904180
-0.003,0.053,1.0,-0.244,1904184
-0.003,0.053,1.0,-0.244,1904188
-0.003,0.053,1.0,-0.122,1904192
-0.003,0.055,0.999,-0.122,1904196
-0.003,0.055,0.999,-0.183,1904200
-0.003,0.054,0.998,-0.183,1904204
-0.003,0.054,0.998,-0.183,1904208
-0.003,0.054,0.998,-0.244,1904212
-0.003,0.053,0.999,-0.366,1904216
-0.003,0.053,0.999,-0.122,1904220
-0.006,0.054,0.999,-0.122,1904224
-0.006,0.054,0.999,-0.122,1904228
-0.006,0.054,0.999,-0.122,1904232
-0.005,0.053,0.998,-0.122,1904236
-0.005,0.053,0.998,-0.366,1904240
-0.004,0.053,0.997,-0.244,1904243
-0.004,0.053,0.997,-0.244,1904247
-0.004,0.053,0.997,-0.183,1904251
-0.003,0.053,0.999,-0.244,1904255
-0.003,0.053,0.999,-0.305,1904259
-0.003,0.053,0.998,-0.122,1904263
-0.003,0.053,0.998,-0.122,1904267
-0.003,0.053,0.998,-0.244,1904271
-0.002,0.052,0.997,-0.122,1904275
-0.002,0.052,0.997,-0.061,1904279
-0.004,0.052,0.999,-0.244,1904283
-0.004,0.052,0.999,-0.244,1904287
-0.004,0.052,0.999,-0.244,1904291
-0.003,0.052,1.0,-0.122,1904295
-0.003,0.052,1.0,-0.183,1904299
-0.005,0.053,0.999,-0.183,1904303
-0.005,0.053,0.999,-0.183,1904307
-0.005,0.053,0.999,-0.183,1904311
-0.004,0.053,1.0,-0.122,1904315
-0.004,0.053,1.0,-0.061,1904319
-0.004,0.052,1.0,-0.305,1904323
-0.004,0.052,1.0,-0.305,1904327
-0.004,0.052,1.0,-0.244,1904331
-0.003,0.051,0.999,-0.244,1904335
-0.003,0.051,0.999,-0.061,1904339
-0.004,0.053,0.999,-0.122,1904343
-0.004,0.053,0.999,-0.122,1904347
-0.004,0.053,0.999,-0.244,1904351
-0.004,0.054,0.999,-0.244,1904355
-0.004,0.054,0.999,-0.305,1904359
-0.004,0.052,1.0,-0.122,1904363
-0.004,0.052,1.0,-0.122,1904367
-0.004,0.052,1.0,-0.183,1904371
-0.006,0.052,0.999,-0.183,1904374
-0.006,0.052,0.999,-0.183,1904378
-0.006,0.052,0.999,-0.061,1904382
-0.006,0.052,0.999,-0.061,1904386
-0.006,0.052,0.999,-0.122,1904390
-0.005,0.051,0.999,-0.061,1904394
-0.005,0.051,0.999,-0.122,1904398
-0.005,0.052,1.0,-0.183,1904402
-0.005,0.052,1.0,-0.183,1904406
-0.005,0.052,1.0,-0.244,1904410
-0.005,0.052,0.999,-0.183,1904414
-0.005,0.052,0.999,-0.244,1904418
-0.005,0.053,0.998,-0.244,1904422
-0.005,0.053,0.998,-0.244,1904426
-0.005,0.053,0.998,-0.183,1904430
-0.003,0.053,1.0,-0.183,1904434
-0.003,0.053,1.0,-0.122,1904438
-0.004,0.053,0.998,-0.122,1904442
-0.004,0.053,0.998,-0.122,1904446
-0.004,0.053,0.998,-0.061,1904450
-0.003,0.053,0.998,-0.244,1904454
-0.003,0.053,0.998,-0.061,1904458
-0.005,0.054,0.998,-0.122,1904462
-0.005,0.054,0.998,-0.122,1904466
-0.005,0.054,0.998,-0.122,1904470
-0.004,0.054,0.999,-0.183,1904474
-0.004,0.054,0.999,-0.305,1904478
-0.004,0.053,0.999,-0.061,1904482
-0.004,0.053,0.999,-0.061,1904486
-0.004,0.053,0.999,-0.122,1904490
-0.003,0.053,1.0,-0.183,1904494
-0.003,0.053,1.0,-0.183,1904498
-0.004,0.053,0.999,-0.183,1904502
-0.004,0.053,0.999,-0.183,1904506
-0.004,0.053,0.999,-0.244,1904509
-0.003,0.053,0.999,-0.305,1904513
-0.003,0.053,0.999,-0.183,1904517
-0.004,0.052,0.997,-0.183,1904521
-0.004,0.052,0.997,-0.183,1904525
-0.004,0.052,0.997,-0.183,1904529
-0.004,0.053,0.999,-0.244,1904533
-0.004,0.053,0.999,-0.244,1904537
-0.004,0.052,0.999,-0.122,1904541
-0.004,0.052,0.999,-0.122,1904545
-0.004,0.052,0.999,-0.183,1904549
-0.003,0.052,1.001,-0.183,1904553
-0.003,0.052,1.001,-0.244,1904557
-0.004,0.053,0.999,-0.244,1904561
-0.004,0.053,0.999,-0.244,1904565
-0.004,0.053,0.999,-0.244,1904569
-0.004,0.053,1.0,-0.305,1904573
-0.004,0.053,1.0,-0.122,1904577
-0.005,0.052,0.998,-0.183,1904581
-0.005,0.052,0.998,-0.183,1904585
-0.005,0.052,0.998,-0.183,1904589
-0.002,0.051,1.0,-0.122,1904593
-0.002,0.051,1.0,-0.061,1904597
-0.004,0.052,1.0,-0.183,1904601
-0.004,0.052,1.0,-0.183,1904605
-0.004,0.052,1.0,-0.244,1904609
-0.007,0.053,0.999,-0.244,1904613
-0.007,0.053,0.999,-0.183,1904617
-0.005,0.052,1.001,-0.183,1904621
-0.005,0.052,1.001,-0.183,1904625
-0.005,0.052,1.001,-0.183,1904629
-0.006,0.051,0.997,-0.122,1904633
-0.006,0.051,0.997,-0.122,1904637
-0.004,0.052,0.999,-0.183,1904641
-0.004,0.052,0.999,-0.183,1904645
-0.004,0.052,0.999,-0.183,1904648
-0.003,0.052,1.0,-0.183,1904652
-0.003,0.052,1.0,-0.244,1904656
-0.004,0.054,0.998,-0.183,1904660
-0.004,0.054,0.998,-0.183,1904664
-0.004,0.054,0.998,-0.183,1904668
-0.004,0.054,0.999,-0.244,1904672
-0.004,0.054,0.999,-0.183,1904676
-0.003,0.053,0.999,0.0,1904680
-0.003,0.053,0.999,0.0,1904684
-0.003,0.053,0.999,-0.244,1904688
-0.003,0.053,0.999,-0.244,1904692
-0.003,0.053,0.999,-0.244,1904696
-0.005,0.052,1.0,-0.122,1904700
-0.005,0.052,1.0,-0.122,1904704
-0.005,0.052,1.0,-0.366,1904708
-0.003,0.053,1.001,-0.244,1904712
-0.003,0.053,1.001,-0.244,1904716
-0.002,0.052,0.999,-0.244,1904720
-0.002,0.052,0.999,-0.244,1904724
-0.002,0.052,0.999,-0.244,1904728
-0.003,0.052,1.0,-0.183,1904732
-0.003,0.052,1.0,-0.122,1904736
-0.003,0.052,0.999,0.0,1904740
-0.003,0.052,0.999,0.0,1904743
-0.003,0.052,0.999,-0.061,1904747
-0.004,0.052,1.0,-0.183,1904751
-0.004,0.052,1.0,-0.244,1904755
-0.005,0.054,1.0,-0.122,1904759
-0.005,0.054,1.0,-0.122,1904763
-0.005,0.054,1.0,-0.122,1904767
-0.005,0.053,1.0,-0.061,1904771
-0.005,0.053,1.0,-0.183,1904775
-0.005,0.052,1.0,-0.305,1904779
-0.005,0.052,1.0,-0.305,1904783
-0.005,0.052,1.0,-0.305,1904787
-0.005,0.053,1.0,-0.244,1904791
-0.005,0.053,1.0,-0.061,1904795
-0.003,0.053,1.0,-0.061,1904799
-0.003,0.053,1.0,-0.061,1904803
-0.003,0.053,1.0,-0.183,1904807
-0.004,0.054,1.0,-0.244,1904811
-0.004,0.054,1.0,-0.183,1904815
-0.005,0.053,0.999,-0.183,1904819
-0.005,0.053,0.999,-0.183,1904823
-0.005,0.053,0.999,-0.122,1904827
-0.006,0.052,1.0,-0.366,1904831
-0.006,0.052,1.0,-0.122,1904835
-0.005,0.053,0.997,-0.244,1904839
-0.005,0.053,0.997,-0.244,1904843
-0.005,0.053,0.997,-0.366,1904847
-0.003,0.053,0.998,-0.366,1904851
-0.003,0.053,0.998,-0.305,1904855
-0.003,0.052,0.999,-0.122,1904859
-0.003,0.052,0.999,-0.122,1904863
-0.003,0.052,0.999,-0.244,1904867
-0.003,0.052,0.999,-0.305,1904871
-0.003,0.052,0.999,-0.244,1904875
-0.004,0.053,1.0,-0.305,1904879
-0.004,0.053,1.0,-0.305,1904883
-0.004,0.053,1.0,-0.183,1904886
-0.004,0.052,0.999,-0.183,1904890
-0.004,0.052,0.999,-0.122,1904894
-0.004,0.052,1.0,-0.183,1904898
-0.004,0.052,1.0,-0.183,1904902
-0.004,0.052,1.0,-0.122,1904906
-0.003,0.052,0.999,-0.244,1904910
-0.003,0.052,0.999,-0.122,1904914
-0.003,0.052,0.997,-0.244,1904918
-0.003,0.052,0.997,-0.244,1904922
-0.003,0.052,0.997,-0.183,1904926
-0.003,0.052,0.999,-0.183,1904930
-0.003,0.052,0.999,-0.305,1904934
-0.002,0.051,1.0,-0.305,1904938
-0.002,0.051,1.0,-0.305,1904942
-0.002,0.051,1.0,-0.122,1904946
-0.004,0.052,0.999,-0.061,1904950
-0.004,0.052,0.999,-0.122,1904954
-0.002,0.054,1.0,-0.183,1904958
-0.002,0.054,1.0,-0.183,1904962
-0.002,0.054,1.0,-0.183,1904966
-0.004,0.054,1.0,-0.244,1904970
-0.004,0.054,1.0,-0.061,1904974
-0.004,0.052,1.0,-0.122,1904978
-0.004,0.052,1.0,-0.122,1904982
-0.004,0.052,1.0,-0.183,1904986
-0.002,0.051,1.0,-0.183,1904990
-0.002,0.051,1.0,-0.183,1904994
-0.003,0.054,0.999,-0.183,1904998
-0.003,0.054,0.999,-0.183,1905002
-0.003,0.054,0.999,-0.122,1905006
-0.004,0.052,0.999,-0.122,1905010
-0.004,0.052,0.999,-0.244,1905014
-0.005,0.053,1.0,-0.183,1905018
-0.005,0.053,1.0,-0.183,1905021
-0.005,0.053,1.0,-0.183,1905025
-0.005,0.054,0.997,-0.183,1905029
-0.005,0.054,0.997,-0.244,1905033
-0.005,0.053,0.998,-0.244,1905037
-0.005,0.053,0.998,-0.244,1905041
-0.005,0.053,0.998,-0.244,1905045
-0.005,0.053,0.999,-0.183,1905049
-0.005,0.053,0.999,-0.183,1905053
-0.005,0.054,0.997,-0.183,1905057
-0.005,0.054,0.997,-0.122,1905061
-0.005,0.054,0.997,-0.122,1905065
-0.004,0.053,0.998,-0.183,1905069
-0.004,0.053,0.998,-0.183,1905073
-0.002,0.053,0.998,-0.122,1905077
-0.002,0.053,0.998,-0.183,1905081
-0.002,0.053,0.998,-0.183,1905085
-0.003,0.054,0.999,0.0,1905089
-0.003,0.054,0.999,-0.061,1905093
-0.006,0.052,1.0,-0.183,1905097
-0.006,0.052,1.0,-0.061,1905101
-0.006,0.052,1.0,-0.061,1905105
-0.003,0.052,0.999,-0.305,1905109
-0.003,0.052,0.999,-0.244,1905113
-0.006,0.052,0.998,-0.061,1905117
-0.006,0.052,0.998,-0.122,1905121
-0.006,0.052,0.998,-0.122,1905125
-0.005,0.053,1.0,-0.061,1905129
-0.005,0.053,1.0,-0.061,1905133
-0.003,0.053,1.0,-0.244,1905137
-0.003,0.053,1.0,-0.061,1905141
-0.003,0.053,1.0,-0.061,1905145
-0.002,0.052,1.0,-0.244,1905148
-0.002,0.052,1.0,-0.183,1905152
-0.003,0.052,1.001,-0.122,1905156
-0.003,0.052,1.001,-0.183,1905160
-0.003,0.052,1.001,-0.183,1905164
-0.003,0.053,0.999,-0.305,1905168
-0.003,0.053,0.999,-0.183,1905172
-0.004,0.054,0.999,-0.122,1905176
-0.004,0.054,0.999,-0.183,1905180
-0.004,0.054,0.999,-0.183,1905184
-0.003,0.052,1.0,-0.122,1905188
-0.003,0.052,1.0,-0.061,1905192
-0.004,0.052,1.0,-0.122,1905196
-0.004,0.052,1.0,-0.183,1905200
-0.004,0.052,1.0,-0.183,1905204
-0.004,0.053,0.998,-0.305,1905208
-0.004,0.053,0.998,-0.305,1905212
-0.003,0.052,0.998,-0.244,1905216
-0.003,0.052,0.998,-0.244,1905220
-0.003,0.052,0.998,-0.244,1905224
-0.003,0.053,1.0,-0.244,1905228
-0.003,0.053,1.0,-0.305,1905232
-0.003,0.053,0.999,-0.183,1905236
-0.003,0.053,0.999,-0.122,1905240
-0.003,0.053,0.999,-0.122,1905244
-0.003,0.054,0.998,-0.183,1905248
-0.003,0.054,0.998,-0.183,1905252
-0.003,0.054,1.0,-0.183,1905256
-0.003,0.054,1.0,-0.244,1905260
-0.003,0.054,1.0,-0.244,1905264
-0.004,0.053,1.0,-0.366,1905268
-0.004,0.053,1.0,-0.305,1905271
-0.004,0.053,0.999,-0.183,1905275
-0.004,0.053,0.999,-0.122,1905279
-0.004,0.053,0.999,-0.122,1905283
-0.005,0.052,1.0,-0.244,1905287
-0.005,0.052,1.0,0.0,1905291
-0.004,0.052,1.0,0.0,1905295
-0.004,0.052,1.0,0.0,1905299
-0.004,0.052,1.0,-0.183,1905303
-0.005,0.054,0.999,-0.183,1905307
-0.005,0.054,0.999,-0.122,1905311
-0.006,0.054,0.999,-0.183,1905315
-0.006,0.054,0.999,-0.183,1905319
-0.006,0.054,0.999,-0.305,1905323
-0.005,0.053,0.998,-0.122,1905327
-0.005,0.053,0.998,-0.122,1905331
-0.006,0.054,0.998,-0.305,1905335
-0.006,0.054,0.998,-0.305,1905339
-0.006,0.054,0.998,-0.122,1905343
-0.004,0.051,0.999,-0.122,1905347
-0.004,0.051,0.999,-0.244,1905351
-0.003,0.052,0.999,-0.183,1905355
-0.003,0.052,0.999,-0.183,1905359
-0.003,0.052,0.999,-0.305,1905363
-0.004,0.053,0.999,-0.244,1905367
-0.004,0.053,0.999,-0.305,1905371
-0.004,0.053,1.0,-0.244,1905375
-0.004,0.053,1.0,-0.244,1905379
-0.004,0.053,1.0,-0.183,1905383
-0.004,0.053,1.0,-0.122,1905386
-0.004,0.053,1.0,-0.183,1905390
-0.005,0.052,0.998,-0.122,1905394
-0.005,0.052,0.998,-0.122,1905398
-0.005,0.052,0.998,-0.122,1905402
-0.003,0.053,0.998,-0.122,1905406
-0.003,0.053,0.998,-0.122,1905410
-0.003,0.052,1.0,-0.244,1905414
-0.003,0.052,1.0,-0.244,1905418
-0.003,0.052,1.0,-0.183,1905422
-0.004,0.052,0.999,-0.183,1905426
-0.004,0.052,0.999,-0.305,1905430
-0.003,0.053,1.0,-0.183,1905434
-0.003,0.053,1.0,-0.183,1905438
-0.003,0.053,1.0,-0.061,1905442
-0.005,0.053,1.0,-0.244,1905446
-0.005,0.053,1.0,-0.244,1905450
-0.002,0.053,0.999,-0.244,1905454
-0.002,0.053,0.999,-0.244,1905458
-0.002,0.053,0.999,-0.183,1905462
-0.003,0.052,0.997,-0.183,1905466
-0.003,0.052,0.997,-0.061,1905470
-0.005,0.052,1.0,-0.122,1905474
-0.005,0.052,1.0,-0.122,1905478
-0.005,0.052,1.0,-0.122,1905482
-0.003,0.053,0.998,-0.244,1905486
-0.003,0.053,0.998,-0.244,1905490
-0.003,0.052,0.999,-0.183,1905494
-0.003,0.052,0.999,-0.183,1905498
-0.003,0.052,0.999,-0.244,1905502
-0.004,0.052,0.999,-0.183,1905506
-0.004,0.052,0.999,-0.183,1905510
-0.003,0.053,0.999,-0.244,1905514
-0.003,0.053,0.999,-0.244,1905517
-0.003,0.053,0.999,-0.244,1905521
-0.005,0.053,0.999,-0.183,1905525
-0.005,0.053,0.999,-0.061,1905529
-0.003,0.052,0.999,-0.122,1905533
-0.003,0.052,0.999,-0.305,1905537
-0.003,0.052,0.999,-0.305,1905541
-0.004,0.052,0.999,-0.244,1905545
-0.004,0.052,0.999,-0.244,1905549
-0.004,0.052,1.0,0.0,1905553
-0.004,0.052,1.0,-0.305,1905557
-0.004,0.052,1.0,-0.305,1905561
-0.003,0.053,0.999,-0.244,1905565
-0.003,0.053,0.999,-0.183,1905569
-0.005,0.053,0.998,-0.305,1905573
-0.005,0.053,0.998,-0.305,1905577
-0.005,0.053,0.998,-0.305,1905581
-0.004,0.052,1.0,-0.183,1905585
-0.004,0.052,1.0,-0.183,1905589
-0.002,0.054,0.998,-0.183,1905593
-0.002,0.054,0.998,-0.244,1905597
-0.002,0.054,0.998,-0.244,1905601
-0.003,0.052,0.996,-0.061,1905605
-0.003,0.052,0.996,-0.244,1905609
-0.004,0.053,0.999,-0.366,1905613
-0.004,0.053,0.999,-0.244,1905617
-0.004,0.053,0.999,-0.244,1905621
-0.004,0.052,0.999,-0.183,1905625
-0.004,0.052,0.999,-0.061,1905629
-0.005,0.054,0.997,-0.122,1905633
-0.005,0.054,0.997,-0.122,1905637
-0.005,0.054,0.997,-0.122,1905641
-0.006,0.053,0.999,-0.305,1905645
-0.006,0.053,0.999,-0.244,1905648
-0.002,0.052,0.999,-0.183,1905652
-0.002,0.052,0.999,-0.122,1905656
-0.002,0.052,0.999,-0.122,1905660
-0.003,0.052,0.999,-0.183,1905664
-0.003,0.052,0.999,-0.244,1905668
-0.005,0.052,0.998,-0.244,1905672
-0.005,0.052,0.998,-0.183,1905676
-0.005,0.052,0.998,-0.183,1905680
-0.005,0.053,1.0,-0.183,1905684
-0.005,0.053,1.0,-0.183,1905688
-0.004,0.054,0.999,-0.183,1905692
-0.004,0.054,0.999,-0.305,1905696
-0.004,0.054,0.999,-0.305,1905700
-0.004,0.053,1.0,-0.244,1905704
-0.004,0.053,1.0,-0.183,1905708
-0.003,0.053,0.999,-0.244,1905712
-0.003,0.053,0.999,-0.061,1905716
-0.003,0.053,0.999,-0.061,1905720
-0.005,0.052,1.0,-0.183,1905724
-0.005,0.052,1.0,-0.183,1905728
-0.004,0.052,0.999,-0.061,1905732
-0.004,0.052,0.999,-0.183,1905736
-0.004,0.052,0.999,-0.183,1905740
-0.003,0.054,1.0,-0.183,1905744
-0.003,0.054,1.0,-0.244,1905748
-0.004,0.054,1.001,-0.183,1905752
-0.004,0.054,1.001,-0.122,1905756
-0.004,0.054,1.001,-0.122,1905760
-0.004,0.053,1.0,-0.366,1905764
-0.004,0.053,1.0,-0.183,1905767
-0.004,0.053,1.0,-0.183,1905771
-0.004,0.053,1.0,-0.244,1905775
-0.004,0.053,1.0,-0.244,1905779
-0.004,0.052,1.0,-0.244,1905783
-0.004,0.052,1.0,-0.122,1905787
-0.004,0.053,0.999,-0.244,1905791
-0.004,0.053,0.999,-0.183,1905795
-0.004,0.053,0.999,-0.183,1905799
-0.005,0.053,0.999,0.0,1905803
-0.005,0.053,0.999,-0.305,1905807
-0.003,0.053,0.999,-0.244,1905811
-0.003,0.053,0.999,-0.244,1905815
-0.003,0.053,0.999,-0.061,1905819
-0.005,0.051,0.998,-0.183,1905823
-0.005,0.051,0.998,-0.366,1905827
-0.003,0.052,0.999,-0.305,1905831
-0.003,0.052,0.999,-0.183,1905835
-0.003,0.052,0.999,-0.183,1905839
-0.005,0.053,0.998,-0.183,1905843
-0.005,0.053,0.998,-0.183,1905847
-0.004,0.052,0.999,-0.305,1905851
-0.004,0.052,0.999,-0.244,1905855
-0.004,0.052,0.999,-0.244,1905859
-0.005,0.052,0.999,-0.244,1905863
-0.005,0.052,0.999,-0.183,1905867
-0.004,0.052,0.998,-0.244,1905871
-0.004,0.052,0.998,-0.183,1905875
-0.004,0.052,0.998,-0.183,1905879
-0.005,0.053,1.0,-0.122,1905883
-0.005,0.053,1.0,-0.122,1905887
-0.004,0.054,1.0,-0.244,1905891
-0.004,0.054,1.0,-0.244,1905895
-0.004,0.054,1.0,-0.244,1905899
-0.002,0.052,0.998,-0.305,1905902
-0.002,0.052,0.998,-0.122,1905906
-0.004,0.052,1.001,-0.305,1905910
-0.004,0.052,1.001,-0.244,1905914
-0.004,0.052,1.001,-0.244,1905918
-0.003,0.052,1.0,-0.244,1905922
-0.003,0.052,1.0,-0.183,1905926
-0.004,0.052,0.999,-0.061,1905930
-0.004,0.052,0.999,-0.122,1905934
-0.004,0.052,0.999,-0.122,1905938
-0.006,0.052,0.999,-0.061,1905942
-0.006,0.052,0.999,-0.244,1905946
-0.005,0.053,0.999,-0.183,1905950
-0.005,0.053,0.999,-0.061,1905954
-0.005,0.053,0.999,-0.061,1905958
-0.002,0.052,1.0,-0.122,1905962
-0.002,0.052,1.0,-0.305,1905966
-0.003,0.053,0.999,-0.305,1905970
-0.003,0.053,0.999,-0.122,1905974
-0.003,0.053,0.999,-0.122,1905978
-0.003,0.053,0.998,-0.122,1905982
-0.003,0.053,0.998,-0.122,1905986
-0.004,0.054,1.0,-0.244,1905990
-0.004,0.054,1.0,-0.244,1905994
-0.004,0.054,1.0,-0.244,1905998
-0.002,0.053,0.999,-0.244,1906002
-0.002,0.053,0.999,-0.305,1906006
-0.001,0.052,1.0,-0.305,1906010
-0.001,0.052,1.0,-0.305,1906014
-0.001,0.052,1.0,-0.305,1906018
-0.004,0.052,1.0,-0.183,1906022
-0.004,0.052,1.0,-0.122,1906026
-0.004,0.052,1.0,-0.122,1906029
-0.004,0.052,1.0,-0.244,1906033
-0.004,0.052,1.0,-0.244,1906037
-0.005,0.053,0.999,-0.305,1906041
-0.005,0.053,0.999,-0.183,1906045
-0.004,0.052,0.998,-0.183,1906049
-0.004,0.052,0.998,-0.061,1906053
-0.004,0.052,0.998,-0.061,1906057
-0.004,0.052,0.999,-0.244,1906061
-0.004,0.052,0.999,-0.244,1906065
-0.002,0.053,0.999,-0.183,1906069
-0.002,0.053,0.999,-0.305,1906073
-0.002,0.053,0.999,-0.305,1906077
-0.002,0.052,0.998,-0.122,1906081
-0.002,0.052,0.998,-0.183,1906085
-0.005,0.052,1.002,-0.244,1906089
-0.005,0.052,1.002,-0.122,1906093
-0.005,0.052,1.002,-0.122,1906097
-0.003,0.053,1.0,-0.244,1906101
-0.003,0.053,1.0,-0.183,1906105
-0.004,0.054,0.998,-0.183,1906109
-0.004,0.054,0.998,-0.183,1906113
-0.004,0.054,0.998,-0.183,1906117
-0.004,0.054,0.997,-0.183,1906121
-0.004,0.054,0.997,-0.122,1906125
-0.002,0.053,0.998,-0.122,1906129
-0.002,0.053,0.998,-0.244,1906133
-0.002,0.053,0.998,-0.244,1906137
-0.005,0.052,0.999,-0.244,1906141
-0.005,0.052,0.999,-0.183,1906145
-0.004,0.053,1.0,-0.122,1906149
-0.004,0.053,1.0,-0.183,1906153
-0.004,0.053,1.0,-0.183,1906157
-0.005,0.054,0.999,-0.122,1906161
-0.005,0.054,0.999,-0.122,1906165
-0.005,0.053,0.998,-0.122,1906169
-0.005,0.053,0.998,-0.183,1906173
-0.005,0.053,0.998,-0.183,1906176
-0.004,0.054,1.0,-0.305,1906180
-0.004,0.054,1.0,-0.244,1906184
-0.004,0.052,0.999,-0.244,1906188
-0.004,0.052,0.999,-0.122,1906192
-0.004,0.052,0.999,-0.122,1906196
-0.004,0.052,1.0,-0.183,1906200
-0.004,0.052,1.0,-0.244,1906204
-0.005,0.053,1.0,-0.244,1906208
-0.005,0.053,1.0,-0.244,1906212
-0.005,0.053,1.0,-0.244,1906216
-0.004,0.054,1.0,0.0,1906220
-0.004,0.054,1.0,-0.061,1906224
-0.003,0.052,1.001,-0.183,1906228
-0.003,0.052,1.001,-0.244,1906232
-0.003,0.052,1.001,-0.244,1906236
-0.001,0.052,1.001,-0.061,1906240
-0.001,0.052,1.001,-0.122,1906244
-0.004,0.052,0.999,-0.061,1906248
-0.004,0.052,0.999,-0.122,1906252
-0.004,0.052,0.999,-0.122,1906256
-0.006,0.053,0.998,-0.305,1906260
-0.006,0.053,0.998,-0.305,1906264
-0.005,0.053,0.999,0.0,1906268
-0.005,0.053,0.999,-0.183,1906272
-0.005,0.053,0.999,-0.183,1906276
-0.004,0.052,1.001,-0.244,1906279
-0.004,0.052,1.001,-0.244,1906283
-0.002,0.052,1.0,-0.183,1906287
-0.002,0.052,1.0,-0.122,1906291
-0.002,0.052,1.0,-0.122,1906295
-0.003,0.053,1.0,-0.183,1906299
-0.003,0.053,1.0,-0.122,1906303
-0.004,0.053,1.0,-0.122,1906307
-0.004,0.053,1.0,-0.061,1906311
-0.004,0.053,1.0,-0.061,1906315
-0.004,0.053,0.998,-0.305,1906319
-0.004,0.053,0.998,-0.122,1906323
-0.004,0.053,0.998,-0.244,1906327
-0.004,0.053,0.998,-0.244,1906331
-0.004,0.053,0.998,-0.244,1906335
-0.004,0.052,0.998,-0.244,1906339
-0.004,0.052,0.998,-0.183,1906343
-0.003,0.053,0.998,-0.122,1906347
-0.003,0.053,0.998,-0.244,1906351
-0.003,0.053,0.998,-0.244,1906355
-0.005,0.052,0.998,-0.183,1906359
-0.005,0.052,0.998,-0.183,1906363
-0.004,0.054,1.001,-0.244,1906367
-0.004,0.054,1.001,-0.183,1906371
-0.004,0.054,1.001,-0.183,1906375
-0.003,0.053,1.0,-0.244,1906379
-0.003,0.053,1.0,-0.183,1906383
-0.002,0.053,1.0,-0.183,1906387
-0.002,0.053,1.0,-0.244,1906391
-0.002,0.053,1.0,-0.244,1906395
-0.005,0.052,1.001,-0.183,1906399
-0.005,0.052,1.001,-0.183,1906402
-0.006,0.054,0.999,-0.244,1906406
-0.006,0.054,0.999,-0.244,1906410
-0.006,0.054,0.999,-0.244,1906414
-0.006,0.052,1.0,-0.305,1906418
-0.006,0.052,1.0,-0.122,1906422
-0.004,0.052,0.999,-0.244,1906426
-0.004,0.052,0.999,-0.305,1906430
-0.004,0.052,0.999,-0.305,1906434
-0.005,0.053,0.998,-0.122,1906438
-0.005,0.053,0.998,-0.122,1906442
-0.005,0.054,1.0,-0.183,1906446
-0.005,0.054,1.0,-0.244,1906450
-0.005,0.054,1.0,-0.244,1906454
-0.005,0.052,1.001,-0.244,1906458
-0.005,0.052,1.001,-0.183,1906462
-0.004,0.053,0.999,-0.122,1906466
-0.004,0.053,0.999,-0.183,1906470
-0.004,0.053,0.999,-0.183,1906474
-0.004,0.053,0.999,-0.183,1906478
-0.004,0.053,0.999,-0.244,1906482
-0.004,0.052,1.0,-0.244,1906486
-0.004,0.052,1.0,-0.183,1906490
-0.004,0.052,1.0,-0.183,1906494
-0.003,0.051,0.999,-0.183,1906498
-0.003,0.051,0.999,-0.183,1906502
-0.003,0.053,0.999,-0.244,1906506
-0.003,0.053,0.999,-0.305,1906510
-0.003,0.053,0.999,-0.305,1906514
-0.005,0.053,0.999,-0.305,1906518
-0.005,0.053,0.999,-0.366,1906522
-0.002,0.056,0.999,-0.183,1906526
-0.002,0.056,0.999,-0.122,1906530
-0.002,0.056,0.999,-0.122,1906533
-0.004,0.054,0.998,-0.244,1906537
-0.004,0.054,0.998,-0.244,1906541
-0.004,0.053,0.999,-0.305,1906545
-0.004,0.053,0.999,-0.183,1906549
-0.004,0.053,0.999,-0.183,1906553
-0.004,0.053,0.999,-0.183,1906557
-0.004,0.053,0.999,-0.183,1906561
-0.005,0.055,0.999,-0.244,1906565
-0.005,0.055,0.999,-0.183,1906569
-0.005,0.055,0.999,-0.183,1906573
-0.005,0.054,1.0,-0.305,1906577
-0.005,0.054,1.0,-0.244,1906581
-0.005,0.051,0.998,-0.183,1906585
-0.005,0.051,0.998,-0.305,1906589
-0.005,0.051,0.998,-0.305,1906593
-0.003,0.052,0.998,-0.366,1906597
-0.003,0.052,0.998,-0.305,1906601
-0.003,0.052,1.0,-0.305,1906605
-0.003,0.052,1.0,-0.183,1906609
-0.003,0.052,1.0,-0.183,1906613
-0.006,0.052,1.0,-0.061,1906617
-0.006,0.052,1.0,-0.061,1906621
-0.005,0.054,1.0,-0.244,1906625
-0.005,0.054,1.0,-0.183,1906629
-0.005,0.054,1.0,-0.183,1906633
-0.002,0.053,0.999,-0.244,1906637
-0.002,0.053,0.999,-0.183,1906641
-0.004,0.053,0.999,-0.122,1906645
-0.004,0.053,0.999,-0.122,1906649
-0.004,0.053,0.999,-0.122,1906653
-0.004,0.053,0.999,-0.122,1906657
-0.004,0.053,0.999,-0.122,1906661
-0.002,0.053,1.001,-0.183,1906665
-0.002,0.053,1.001,-0.183,1906669
-0.002,0.053,1.001,-0.183,1906672
-0.003,0.053,1.001,-0.305,1906676
-0.003,0.053,1.001,-0.183,1906680
-0.003,0.053,1.0,-0.183,1906684
-0.003,0.053,1.0,-0.244,1906688
-0.003,0.053,1.0,-0.244,1906692
-0.004,0.054,1.0,-0.122,1906696
-0.004,0.054,1.0,-0.244,1906700
-0.002,0.052,1.0,-0.244,1906704
-0.002,0.052,1.0,-0.244,1906708
-0.002,0.052,1.0,-0.244,1906712
-0.004,0.053,0.998,-0.244,1906716
-0.004,0.053,0.998,-0.122,1906720
-0.003,0.052,0.999,-0.122,1906724
-0.003,0.052,0.999,-0.061,1906728
-0.003,0.052,0.999,-0.061,1906732
-0.004,0.053,0.998,-0.122,1906736
-0.004,0.053,0.998,-0.244,1906740
-0.005,0.053,1.0,-0.122,1906744
-0.005,0.053,1.0,-0.183,1906748
-0.005,0.053,1.0,-0.183,1906752
-0.004,0.053,1.0,-0.183,1906756
-0.004,0.053,1.0,-0.183,1906760
-0.004,0.054,0.998,-0.183,1906764
-0.004,0.054,0.998,-0.244,1906768
-0.004,0.054,0.998,-0.244,1906772
-0.004,0.052,0.999,-0.183,1906776
-0.004,0.052,0.999,-0.061,1906780
-0.006,0.052,0.998,-0.122,1906784
-0.006,0.052,0.998,-0.183,1906788
-0.006,0.052,0.998,-0.183,1906792
-0.006,0.051,0.998,-0.183,1906796
-0.006,0.051,0.998,-0.183,1906800
-0.005,0.052,0.998,-0.122,1906804
-0.005,0.052,0.998,-0.183,1906807
-0.005,0.052,0.998,-0.183,1906811
-0.006,0.053,0.998,-0.183,1906815
-0.006,0.053,0.998,-0.183,1906819
-0.005,0.051,1.0,-0.183,1906823
-0.005,0.051,1.0,-0.183,1906827
-0.005,0.051,1.0,-0.183,1906831
-0.002,0.051,0.998,-0.061,1906835
-0.002,0.051,0.998,-0.183,1906839
-0.003,0.053,0.999,-0.183,1906843
-0.003,0.053,0.999,-0.366,1906847
-0.003,0.053,0.999,-0.366,1906851
-0.004,0.052,0.998,-0.427,1906855
-0.004,0.052,0.998,-0.244,1906859
-0.004,0.052,0.998,0.061,1906863
-0.004,0.052,0.998,-0.244,1906867
-0.004,0.052,0.998,-0.244,1906871
-0.005,0.052,1.0,-0.427,1906875
-0.005,0.052,1.0,-0.183,1906879
-0.005,0.052,1.0,-0.122,1906883
-0.005,0.052,1.0,-0.122,1906887
-0.005,0.052,1.0,-0.122,1906891
-0.004,0.051,1.0,-0.183,1906895
-0.004,0.051,1.0,-0.122,1906899
-0.004,0.053,0.999,-0.122,1906903
-0.004,0.053,0.999,-0.122,1906907
-0.004,0.053,0.999,-0.122,1906911
-0.004,0.054,1.0,-0.061,1906915
-0.004,0.054,1.0,-0.244,1906919
-0.004,0.052,1.0,-0.244,1906923
-0.004,0.052,1.0,-0.183,1906927
-0.004,0.052,1.0,-0.183,1906931
-0.002,0.052,0.998,-0.122,1906935
-0.002,0.052,0.998,-0.061,1906939
-0.002,0.051,0.999,-0.183,1906943
-0.002,0.051,0.999,-0.183,1906946
-0.002,0.051,0.999,-0.183,1906950
-0.004,0.05,0.999,-0.244,1906954
-0.004,0.05,0.999,-0.305,1906958
-0.005,0.052,0.999,-0.244,1906962
-0.005,0.052,0.999,-0.183,1906966
-0.005,0.052,0.999,-0.183,1906970
-0.005,0.054,1.0,-0.244,1906974
-0.005,0.054,1.0,-0.122,1906978
-0.003,0.053,1.0,-0.183,1906982
-0.003,0.053,1.0,-0.244,1906986
-0.003,0.053,1.0,-0.244,1906990
-0.005,0.052,0.999,-0.183,1906994
-0.005,0.052,0.999,-0.122,1906998
-0.004,0.052,0.998,-0.122,1907002
-0.004,0.052,0.998,-0.305,1907006
-0.004,0.052,0.998,-0.305,1907010
-0.003,0.053,0.999,-0.183,1907014
-0.003,0.053,0.999,-0.061,1907018
-0.004,0.054,0.999,-0.122,1907022
-0.004,0.054,0.999,-0.122,1907026
-0.004,0.054,0.999,-0.122,1907030
-0.005,0.052,0.998,-0.244,1907034
-0.005,0.052,0.998,-0.305,1907038
-0.005,0.052,1.0,-0.183,1907042
-0.005,0.052,1.0,-0.244,1907046
-0.005,0.052,1.0,-0.244,1907050
-0.003,0.052,1.0,-0.244,1907054
-0.003,0.052,1.0,-0.244,1907058
-0.003,0.052,0.998,-0.183,1907062
-0.003,0.052,0.998,-0.183,1907066
-0.003,0.052,0.998,-0.183,1907070
-0.003,0.052,1.0,-0.122,1907074
-0.003,0.052,1.0,-0.122,1907078
-0.004,0.054,0.999,-0.122,1907081
-0.004,0.054,0.999,-0.061,1907085
-0.004,0.054,0.999,-0.061,1907089
-0.004,0.052,1.001,-0.122,1907093
-0.004,0.052,1.001,-0.366,1907097
-0.003,0.051,1.001,-0.244,1907101
-0.003,0.051,1.001,-0.244,1907105
-0.003,0.051,1.001,-0.244,1907109
-0.004,0.052,0.998,-0.244,1907113
-0.004,0.052,0.998,-0.244,1907117
-0.005,0.051,0.998,-0.244,1907121
-0.005,0.051,0.998,-0.122,1907125
-0.005,0.051,0.998,-0.122,1907129
-0.004,0.052,1.0,-0.244,1907133
-0.004,0.052,1.0,-0.183,1907137
-0.003,0.053,0.998,-0.244,1907141
-0.003,0.053,0.998,-0.244,1907145
-0.003,0.053,0.998,-0.244,1907149
-0.002,0.052,0.999,-0.183,1907153
-0.002,0.052,0.999,-0.061,1907157
-0.004,0.052,1.0,-0.183,1907161
-0.004,0.052,1.0,-0.244,1907165
-0.004,0.052,1.0,-0.244,1907169
-0.005,0.053,1.0,-0.244,1907173
-0.005,0.053,1.0,-0.305,1907177
-0.003,0.052,0.999,-0.305,1907181
-0.003,0.052,0.999,-0.244,1907185
-0.003,0.052,0.999,-0.244,1907189
-0.005,0.053,1.0,-0.183,1907193
-0.005,0.053,1.0,-0.183,1907197
-0.005,0.052,0.999,-0.122,1907201
-0.005,0.052,0.999,-0.122,1907205
-0.005,0.052,0.999,-0.122,1907209
-0.004,0.052,0.998,-0.366,1907212
-0.004,0.052,0.998,-0.122,1907216
-0.006,0.054,1.0,-0.061,1907220
-0.006,0.054,1.0,-0.183,1907224
-0.006,0.054,1.0,-0.183,1907228
-0.005,0.053,1.0,-0.183,1907232
-0.005,0.053,1.0,-0.183,1907236
-0.004,0.052,0.999,-0.366,1907240
-0.004,0.052,0.999,-0.305,1907244
-0.004,0.052,0.999,-0.305,1907248
-0.004,0.054,0.999,-0.244,1907252
-0.004,0.054,0.999,-0.122,1907256
-0.004,0.052,1.0,-0.122,1907260
-0.004,0.052,1.0,-0.122,1907264
-0.004,0.052,1.0,-0.122,1907268
-0.004,0.052,0.998,-0.183,1907272
-0.004,0.052,0.998,-0.122,1907276
-0.005,0.053,0.997,-0.061,1907280
-0.005,0.053,0.997,-0.122,1907284
-0.005,0.053,0.997,-0.122,1907288
-0.004,0.052,0.999,-0.244,1907292
-0.004,0.052,0.999,-0.244,1907296
-0.003,0.052,1.0,-0.305,1907300
-0.003,0.052,1.0,-0.183,1907304
-0.003,0.052,1.0,-0.183,1907308
-0.002,0.052,0.999,-0.244,1907312
-0.002,0.052,0.999,-0.244,1907316
-0.003,0.052,1.0,-0.183,1907320
-0.003,0.052,1.0,-0.244,1907324
-0.003,0.052,1.0,-0.244,1907328
-0.005,0.052,1.0,-0.244,1907332
-0.005,0.052,1.0,-0.244,1907335
-0.004,0.052,0.998,-0.122,1907339
-0.004,0.052,0.998,-0.305,1907343
-0.004,0.052,0.998,-0.305,1907347
-0.004,0.052,0.999,-0.183,1907351
-0.004,0.052,0.999,0.0,1907355
-0.004,0.053,0.997,-0.122,1907359
-0.004,0.053,0.997,-0.122,1907363
-0.004,0.053,0.997,-0.122,1907367
-0.003,0.052,0.999,-0.061,1907371
-0.003,0.052,0.999,-0.244,1907375
-0.004,0.052,1.0,-0.244,1907379
-0.004,0.052,1.0,0.0,1907383
-0.004,0.052,1.0,0.0,1907387
-0.005,0.054,0.998,-0.122,1907391
-0.005,0.054,0.998,-0.305,1907395
-0.003,0.052,1.0,-0.183,1907399
-0.003,0.052,1.0,-0.244,1907403
-0.003,0.052,1.0,-0.244,1907407
-0.003,0.051,1.0,-0.244,1907411
-0.003,0.051,1.0,-0.122,1907415
-0.003,0.052,1.0,-0.244,1907419
-0.003,0.052,1.0,-0.244,1907423
-0.003,0.052,1.0,-0.244,1907427
-0.005,0.053,0.999,-0.122,1907431
-0.005,0.053,0.999,-0.183,1907435
-0.005,0.053,0.998,-0.183,1907439
-0.005,0.053,0.998,-0.244,1907443
-0.005,0.053,0.998,-0.244,1907446
-0.004,0.052,0.999,-0.061,1907450
-0.004,0.052,0.999,-0.244,1907454
-0.005,0.053,0.998,-0.183,1907458
-0.005,0.053,0.998,-0.305,1907462
-0.005,0.053,0.998,-0.305,1907466
-0.004,0.053,0.999,-0.122,1907470
-0.004,0.053,0.999,-0.183,1907474
-0.003,0.053,1.0,-0.244,1907478
-0.003,0.053,1.0,-0.183,1907482
-0.003,0.053,1.0,-0.183,1907486
-0.005,0.055,0.999,-0.183,1907490
-0.005,0.055,0.999,-0.305,1907494
-0.007,0.053,0.999,-0.183,1907498
-0.007,0.053,0.999,-0.122,1907502
-0.007,0.053,0.999,-0.122,1907506
-0.004,0.052,0.998,-0.122,1907510
-0.004,0.052,0.998,-0.183,1907514
-0.003,0.051,1.0,-0.122,1907518
-0.003,0.051,1.0,-0.183,1907522
-0.003,0.051,1.0,-0.183,1907526
-0.006,0.052,0.999,-0.183,1907530
-0.006,0.052,0.999,-0.122,1907534
-0.003,0.053,0.999,-0.122,1907538
-0.003,0.053,0.999,0.0,1907542
-0.003,0.053,0.999,0.0,1907546
-0.004,0.053,1.0,-0.122,1907549
-0.004,0.053,1.0,-0.183,1907553
-0.005,0.053,1.0,-0.244,1907557
-0.005,0.053,1.0,-0.122,1907561
-0.005,0.053,1.0,-0.122,1907565
-0.003,0.053,1.001,-0.244,1907569
-0.003,0.053,1.001,-0.183,1907573
-0.004,0.054,1.0,-0.183,1907577
-0.004,0.054,1.0,-0.183,1907581
-0.004,0.054,1.0,-0.183,1907585
-0.004,0.053,0.999,-0.183,1907589
-0.004,0.053,0.999,-0.122,1907593
-0.004,0.053,1.0,-0.183,1907597
-0.004,0.053,1.0,-0.244,1907601
-0.004,0.053,1.0,-0.244,1907605
-0.003,0.052,0.999,-0.183,1907609
-0.003,0.052,0.999,0.0,1907613
-0.002,0.052,0.996,-0.122,1907617
-0.002,0.052,0.996,-0.244,1907621
-0.002,0.052,0.996,-0.244,1907625
-0.002,0.053,0.999,-0.183,1907629
-0.002,0.053,0.999,-0.366,1907633
-0.005,0.052,0.999,-0.183,1907637
-0.005,0.052,0.999,-0.183,1907641
-0.005,0.052,0.999,-0.183,1907645
-0.005,0.052,1.0,-0.244,1907649
-0.005,0.052,1.0,-0.183,1907653
-0.003,0.053,1.0,-0.244,1907657
-0.003,0.053,1.0,-0.244,1907661
-0.003,0.053,1.0,-0.244,1907665
-0.005,0.055,0.998,-0.122,1907668
-0.005,0.055,0.998,-0.244,1907672
-0.005,0.055,1.001,-0.183,1907676
-0.005,0.055,1.001,-0.183,1907680
-0.005,0.055,1.001,-0.183,1907684
-0.004,0.052,0.999,-0.305,1907688
-0.004,0.052,0.999,-0.183,1907692
-0.005,0.053,0.999,-0.244,1907696
-0.005,0.053,0.999,-0.244,1907700
-0.005,0.053,0.999,-0.244,1907704
-0.005,0.054,0.999,-0.244,1907708
-0.005,0.054,0.999,-0.183,1907712
-0.004,0.052,0.999,-0.122,1907716
-0.004,0.052,0.999,-0.244,1907720
-0.004,0.052,0.999,-0.244,1907724
-0.004,0.052,1.0,-0.244,1907728
-0.004,0.052,1.0,-0.244,1907732
-0.003,0.052,1.0,-0.244,1907736
-0.003,0.052,1.0,-0.183,1907740
-0.003,0.052,1.0,-0.183,1907744
-0.003,0.052,0.999,-0.183,1907748
-0.003,0.052,0.999,-0.244,1907752
-0.004,0.052,1.0,-0.244,1907756
-0.004,0.052,1.0,-0.183,1907760
-0.004,0.052,1.0,-0.183,1907764
-0.004,0.052,1.0,-0.244,1907768
-0.004,0.052,1.0,-0.244,1907772
-0.002,0.053,1.0,-0.122,1907776
-0.002,0.053,1.0,-0.183,1907780
-0.002,0.053,1.0,-0.183,1907784
-0.002,0.053,0.998,-0.244,1907788
-0.002,0.053,0.998,-0.244,1907792
-0.004,0.053,0.999,-0.305,1907796
-0.004,0.053,0.999,-0.244,1907800
-0.004,0.053,0.999,-0.244,1907803
-0.003,0.052,1.001,-0.122,1907807
-0.003,0.052,1.001,-0.183,1907811
-0.004,0.053,1.0,-0.366,1907815
-0.004,0.053,1.0,-0.244,1907819
-0.004,0.053,1.0,-0.244,1907823
-0.003,0.053,0.999,-0.061,1907827
-0.003,0.053,0.999,-0.183,1907831
-0.001,0.053,1.0,-0.183,1907835
-0.001,0.053,1.0,-0.244,1907839
-0.001,0.053,1.0,-0.244,1907843
-0.003,0.052,1.001,-0.122,1907847
-0.003,0.052,1.001,-0.122,1907851
-0.003,0.054,0.997,-0.122,1907855
-0.003,0.054,0.997,-0.122,1907859
-0.003,0.054,0.997,-0.122,1907863
-0.003,0.053,0.998,-0.183,1907867
-0.003,0.053,0.998,-0.183,1907871
-0.004,0.052,1.0,-0.244,1907875
-0.004,0.052,1.0,-0.122,1907879
-0.004,0.052,1.0,-0.122,1907883
-0.005,0.054,1.0,-0.244,1907887
-0.005,0.054,1.0,-0.244,1907891
-0.005,0.053,0.998,-0.183,1907895
-0.005,0.053,0.998,-0.244,1907899
-0.005,0.053,0.998,-0.244,1907903
-0.004,0.051,0.999,-0.183,1907907
-0.004,0.051,0.999,-0.305,1907911
-0.004,0.052,1.0,-0.183,1907915
-0.004,0.052,1.0,-0.122,1907919
-0.004,0.052,1.0,-0.122,1907923
-0.005,0.052,0.999,-0.244,1907927
-0.005,0.052,0.999,-0.122,1907931
-0.004,0.053,0.999,-0.183,1907935
-0.004,0.053,0.999,-0.183,1907938
-0.004,0.053,0.999,-0.183,1907942
-0.004,0.053,0.999,-0.122,1907946
-0.004,0.053,0.999,-0.183,1907950
-0.002,0.053,1.0,-0.183,1907954
-0.002,0.053,1.0,-0.183,1907958
-0.002,0.053,1.0,-0.183,1907962
-0.005,0.055,1.0,-0.061,1907966
-0.005,0.055,1.0,-0.061,1907970
-0.004,0.053,1.001,-0.183,1907974
-0.004,0.053,1.001,-0.122,1907978
-0.004,0.053,1.001,-0.122,1907982
-0.003,0.053,1.0,-0.305,1907986
-0.003,0.053,1.0,-0.244,1907990
-0.006,0.053,0.998,-0.305,1907994
-0.006,0.053,0.998,-0.183,1907998
-0.006,0.053,0.998,-0.183,1908002
-0.004,0.053,0.998,-0.061,1908006
-0.004,0.053,0.998,-0.183,1908010
-0.003,0.052,1.0,-0.244,1908014
-0.003,0.052,1.0,-0.061,1908018
-0.003,0.052,1.0,-0.061,1908022
-0.004,0.053,1.002,-0.183,1908026
-0.004,0.053,1.002,-0.183,1908030
-0.004,0.052,0.998,-0.183,1908034
-0.004,0.052,0.998,-0.183,1908038
-0.004,0.052,0.998,-0.183,1908042
-0.001,0.052,0.998,-0.061,1908046
-0.001,0.052,0.998,-0.122,1908050
-0.003,0.051,1.0,-0.183,1908054
-0.003,0.051,1.0,-0.061,1908058
-0.003,0.051,1.0,-0.061,1908062
-0.005,0.053,1.001,-0.183,1908066
-0.005,0.053,1.001,-0.183,1908069
-0.006,0.052,1.0,-0.061,1908073
-0.006,0.052,1.0,-0.183,1908077
-0.006,0.052,1.0,-0.183,1908081
-0.004,0.052,0.998,-0.183,1908085
-0.004,0.052,0.998,-0.244,1908089
-0.004,0.053,1.0,-0.244,1908093
-0.004,0.053,1.0,-0.183,1908097
-0.004,0.053,1.0,-0.183,1908101
-0.004,0.053,1.0,-0.122,1908105
-0.004,0.053,1.0,-0.183,1908109
-0.004,0.052,0.999,-0.244,1908113
-0.004,0.052,0.999,-0.061,1908117
-0.004,0.052,0.999,-0.061,1908121
-0.004,0.052,1.001,-0.061,1908125
-0.004,0.052,1.001,-0.183,1908129
-0.005,0.051,1.0,-0.122,1908133
-0.005,0.051,1.0,-0.122,1908137
-0.005,0.051,1.0,-0.122,1908141
-0.003,0.052,0.998,-0.061,1908145
-0.003,0.052,0.998,-0.122,1908149
-0.005,0.053,0.998,-0.183,1908153
-0.005,0.053,0.998,-0.305,1908157
-0.005,0.053,0.998,-0.305,1908161
-0.006,0.054,0.998,-0.305,1908165
-0.006,0.054,0.998,-0.244,1908169
-0.005,0.052,1.0,-0.305,1908173
-0.005,0.052,1.0,-0.305,1908177
-0.005,0.052,1.0,-0.305,1908181
-0.004,0.052,0.999,-0.244,1908185
-0.004,0.052,0.999,-0.244,1908189
-0.002,0.053,0.998,-0.183,1908192
-0.002,0.053,0.998,-0.183,1908196
-0.002,0.053,0.998,-0.183,1908200
-0.004,0.053,1.0,-0.305,1908204
-0.004,0.053,1.0,-0.244,1908208
-0.003,0.053,1.0,-0.122,1908212
-0.003,0.053,1.0,-0.122,1908216
-0.003,0.053,1.0,-0.122,1908220
-0.003,0.052,0.997,-0.244,1908224
-0.003,0.052,0.997,-0.061,1908228
-0.004,0.052,0.997,-0.183,1908232
-0.004,0.052,0.997,-0.244,1908236
-0.004,0.052,0.997,-0.244,1908240
-0.002,0.052,0.999,-0.183,1908244
-0.002,0.052,0.999,-0.183,1908248
-0.001,0.052,1.0,-0.305,1908252
-0.001,0.052,1.0,-0.122,1908256
-0.001,0.052,1.0,-0.122,1908260
-0.004,0.052,0.999,-0.122,1908264
-0.004,0.052,0.999,-0.244,1908268
-0.003,0.053,1.0,-0.305,1908272
-0.003,0.053,1.0,-0.183,1908276
-0.003,0.053,1.0,-0.183,1908280
-0.004,0.051,1.0,-0.183,1908284
-0.004,0.051,1.0,-0.183,1908288
-0.006,0.053,0.999,-0.183,1908292
-0.006,0.053,0.999,-0.183,1908296
-0.006,0.053,0.999,-0.183,1908300
-0.003,0.053,1.0,-0.183,1908304
-0.003,0.053,1.0,-0.244,1908308
-0.003,0.054,1.001,-0.122,1908312
-0.003,0.054,1.001,-0.183,1908316
-0.003,0.054,1.001,-0.183,1908320
-0.004,0.054,0.997,-0.061,1908324
-0.004,0.054,0.997,-0.183,1908328
-0.004,0.053,0.999,-0.183,1908331
-0.004,0.053,0.999,-0.244,1908335
-0.004,0.053,0.999,-0.244,1908339
-0.005,0.053,0.999,-0.183,1908343
-0.005,0.053,0.999,-0.122,1908347
-0.004,0.053,0.999,-0.305,1908351
-0.004,0.053,0.999,-0.183,1908355
-0.004,0.053,0.999,-0.183,1908359
-0.003,0.052,0.999,-0.183,1908363
-0.003,0.052,0.999,-0.183,1908367
-0.004,0.052,0.998,-0.183,1908371
-0.004,0.052,0.998,-0.122,1908375
-0.004,0.052,0.998,-0.122,1908379
-0.005,0.052,0.999,-0.122,1908383
-0.005,0.052,0.999,-0.183,1908387
-0.005,0.053,0.998,-0.122,1908391
-0.005,0.053,0.998,-0.122,1908395
-0.005,0.053,0.998,-0.122,1908399
-0.005,0.053,0.999,-0.122,1908403
-0.005,0.053,0.999,-0.183,1908407
-0.003,0.053,0.999,-0.061,1908411
-0.003,0.053,0.999,-0.183,1908415
-0.003,0.053,0.999,-0.183,1908419
-0.005,0.054,0.998,-0.183,1908423
-0.005,0.054,0.998,-0.183,1908427
-0.006,0.052,0.998,-0.183,1908431
-0.006,0.052,0.998,-0.244,1908435
-0.006,0.052,0.998,-0.244,1908439
-0.004,0.05,1.0,-0.183,1908443
-0.004,0.05,1.0,-0.122,1908447
-0.003,0.051,0.999,-0.183,1908451
-0.003,0.051,0.999,-0.183,1908455
-0.003,0.051,0.999,-0.183,1908459
-0.005,0.051,1.001,-0.122,1908463
-0.005,0.051,1.001,-0.122,1908466
-0.004,0.052,0.999,-0.244,1908470
-0.004,0.052,0.999,-0.183,1908474
-0.004,0.052,0.999,-0.183,1908478
-0.004,0.055,0.997,-0.183,1908482
-0.004,0.055,0.997,-0.061,1908486
-0.004,0.052,1.001,-0.183,1908490
-0.004,0.052,1.001,-0.183,1908494
-0.004,0.052,1.001,-0.183,1908498
-0.005,0.052,0.999,-0.183,1908502
-0.005,0.052,0.999,-0.061,1908506
-0.002,0.052,0.999,-0.183,1908510
-0.002,0.052,0.999,-0.244,1908514
-0.002,0.052,0.999,-0.244,1908518
-0.003,0.054,0.999,-0.122,1908522
-0.003,0.054,0.999,-0.183,1908526
-0.005,0.053,1.0,-0.183,1908530
-0.005,0.053,1.0,-0.183,1908534
-0.005,0.053,1.0,-0.183,1908538
-0.003,0.053,0.999,-0.183,1908542
-0.003,0.053,0.999,-0.183,1908546
-0.003,0.053,0.999,-0.244,1908550
-0.003,0.053,0.999,-0.183,1908554
-0.003,0.053,0.999,-0.183,1908558
-0.004,0.054,0.997,-0.122,1908562
-0.004,0.054,0.997,-0.122,1908566
-0.004,0.053,0.999,-0.244,1908570
-0.004,0.053,0.999,-0.305,1908574
-0.004,0.053,0.999,-0.305,1908578
-0.003,0.054,1.0,-0.122,1908582
-0.003,0.054,1.0,-0.183,1908586
-0.004,0.052,0.999,-0.244,1908590
-0.004,0.052,0.999,-0.244,1908594
-0.004,0.052,0.999,-0.244,1908598
-0.005,0.052,1.0,-0.122,1908601
-0.005,0.052,1.0,-0.122,1908605
-0.007,0.052,0.999,-0.183,1908609
-0.007,0.052,0.999,-0.244,1908613
-0.007,0.052,0.999,-0.244,1908617
-0.005,0.052,0.999,-0.244,1908621
-0.005,0.052,0.999,-0.122,1908625
-0.005,0.052,0.999,-0.061,1908629
-0.005,0.052,0.999,-0.183,1908633
-0.005,0.052,0.999,-0.183,1908637
-0.003,0.052,0.999,-0.122,1908641
-0.003,0.052,0.999,-0.122,1908645
-0.004,0.052,0.999,-0.244,1908649
-0.004,0.052,0.999,-0.183,1908653
-0.004,0.052,0.999,-0.183,1908657
-0.006,0.052,0.999,-0.183,1908661
-0.006,0.052,0.999,-0.183,1908665
-0.004,0.052,0.998,-0.183,1908669
-0.004,0.052,0.998,-0.183,1908673
-0.004,0.052,0.998,-0.183,1908677
-0.005,0.053,0.997,-0.061,1908681
-0.005,0.053,0.997,-0.183,1908685
-0.005,0.053,0.997,-0.244,1908689
-0.005,0.053,0.997,-0.122,1908693
-0.005,0.053,0.997,-0.122,1908697
-0.003,0.054,1.002,-0.183,1908701
-0.003,0.054,1.002,-0.244,1908705
-0.004,0.053,1.0,-0.183,1908709
-0.004,0.053,1.0,-0.183,1908713
-0.004,0.053,1.0,-0.183,1908717
-0.004,0.054,0.998,-0.244,1908721
-0.004,0.054,0.998,-0.122,1908725
-0.003,0.052,1.0,-0.122,1908729
-0.003,0.052,1.0,-0.244,1908733
-0.003,0.052,1.0,-0.244,1908736
-0.002,0.053,1.0,-0.244,1908740
-0.002,0.053,1.0,-0.061,1908744
-0.003,0.052,0.998,-0.183,1908748
-0.003,0.052,0.998,-0.122,1908752
-0.002,0.053,0.999,-0.305,1908756
-0.002,0.053,0.999,-0.305,1908760
-0.002,0.053,0.999,-0.122,1908764
-0.005,0.054,0.999,-0.183,1908768
-0.005,0.054,0.999,-0.183,1908772
-0.004,0.052,0.998,-0.183,1908776
-0.004,0.052,0.998,-0.183,1908780
-0.004,0.052,0.998,-0.183,1908784
-0.005,0.052,1.0,-0.183,1908788
-0.005,0.052,1.0,-0.183,1908792
-0.005,0.052,1.0,-0.122,1908796
-0.005,0.052,1.0,-0.122,1908800
-0.005,0.052,1.0,-0.244,1908804
-0.005,0.052,1.0,-0.122,1908808
-0.005,0.052,1.0,-0.244,1908812
-0.004,0.052,0.998,-0.122,1908816
-0.004,0.052,0.998,-0.122,1908820
-0.004,0.052,0.998,-0.183,1908824
-0.004,0.051,0.998,-0.244,1908828
-0.004,0.051,0.998,-0.183,1908832
-0.004,0.052,0.999,-0.244,1908836
-0.004,0.052,0.999,-0.244,1908840
-0.004,0.052,0.999,-0.122,1908844
-0.004,0.052,0.999,-0.061,1908848
-0.004,0.052,0.999,-0.244,1908852
-0.003,0.052,1.0,-0.183,1908856
-0.003,0.052,1.0,-0.183,1908860
-0.003,0.052,1.0,-0.061,1908864
-0.004,0.052,0.999,-0.183,1908868
-0.004,0.052,0.999,-0.244,1908872
-0.004,0.052,1.0,-0.183,1908876
-0.004,0.052,1.0,-0.183,1908880
-0.004,0.052,1.0,-0.183,1908883
-0.003,0.052,1.0,-0.183,1908887
-0.003,0.052,1.0,-0.122,1908891
-0.004,0.053,0.998,-0.122,1908895
-0.004,0.053,0.998,-0.122,1908899
-0.004,0.053,0.998,-0.244,1908903
-0.004,0.052,0.999,-0.122,1908907
-0.004,0.052,0.999,-0.244,1908911
-0.003,0.053,0.999,-0.183,1908915
-0.003,0.053,0.999,-0.183,1908919
-0.003,0.053,0.999,-0.122,1908923
-0.003,0.053,1.0,-0.244,1908927
-0.003,0.053,1.0,-0.305,1908931
-0.004,0.052,0.999,-0.244,1908935
-0.004,0.052,0.999,-0.244,1908939
-0.004,0.052,0.999,-0.122,1908943
-0.006,0.052,0.999,-0.244,1908947
-0.006,0.052,0.999,-0.183,1908951
-0.003,0.053,0.998,-0.183,1908955
-0.003,0.053,0.998,-0.183,1908959
-0.003,0.053,0.998,-0.122,1908963
-0.002,0.053,1.0,-0.183,1908967
-0.002,0.053,1.0,-0.183,1908971
-0.005,0.052,0.998,-0.183,1908975
-0.005,0.052,0.998,-0.183,1908979
-0.005,0.052,0.998,-0.122,1908983
-0.005,0.055,0.999,-0.183,1908987
-0.005,0.055,0.999,-0.305,1908991
-0.004,0.053,0.998,-0.122,1908995
-0.004,0.053,0.998,-0.122,1908999
-0.004,0.053,0.998,0.122,1909003
-0.005,0.053,0.999,-0.061,1909007
-0.005,0.053,0.999,-0.244,1909011
-0.005,0.052,1.0,-0.244,1909015
-0.005,0.052,1.0,-0.244,1909019
-0.005,0.052,1.0,-0.183,1909022
-0.003,0.053,0.999,-0.183,1909026
-0.003,0.053,0.999,-0.244,1909030
-0.006,0.052,0.999,-0.244,1909034
-0.006,0.052,0.999,-0.244,1909038
-0.006,0.052,0.999,-0.183,1909042
-0.006,0.053,0.998,-0.183,1909046
-0.006,0.053,0.998,-0.183,1909050
-0.003,0.052,0.999,-0.061,1909054
-0.003,0.052,0.999,-0.061,1909058
-0.003,0.052,0.999,-0.122,1909062
-0.002,0.051,1.0,-0.305,1909066
-0.002,0.051,1.0,-0.366,1909070
-0.002,0.052,0.999,-0.122,1909074
-0.002,0.052,0.999,-0.122,1909078
-0.002,0.052,0.999,-0.122,1909082
-0.002,0.053,1.0,-0.183,1909086
-0.002,0.053,1.0,-0.244,1909090
-0.003,0.052,0.999,-0.305,1909094
-0.003,0.052,0.999,-0.305,1909098
-0.003,0.052,0.999,-0.183,1909102
-0.004,0.052,0.999,-0.183,1909106
-0.004,0.052,0.999,-0.122,1909110
-0.004,0.052,1.001,-0.183,1909114
-0.004,0.052,1.001,-0.183,1909118
-0.004,0.052,1.001,-0.244,1909122
-0.004,0.052,1.001,-0.305,1909126
-0.004,0.052,1.001,-0.305,1909130
-0.002,0.053,0.998,-0.244,1909134
-0.002,0.053,0.998,-0.244,1909138
-0.002,0.053,0.998,-0.244,1909142
-0.003,0.053,0.999,-0.183,1909146
-0.003,0.053,0.999,-0.061,1909150
-0.005,0.054,1.0,-0.061,1909153
-0.005,0.054,1.0,-0.061,1909157
-0.005,0.054,1.0,-0.122,1909161
-0.006,0.053,1.0,-0.122,1909165
-0.006,0.053,1.0,-0.122,1909169
-0.003,0.053,0.999,-0.183,1909173
-0.003,0.053,0.999,-0.183,1909177
-0.003,0.053,0.999,-0.183,1909181
-0.004,0.051,1.0,-0.183,1909185
-0.004,0.051,1.0,-0.305,1909189
-0.003,0.052,0.998,-0.244,1909193
-0.003,0.052,0.998,-0.244,1909197
-0.003,0.052,0.998,-0.122,1909201
-0.003,0.053,0.996,-0.061,1909205
-0.003,0.053,0.996,-0.061,1909209
-0.004,0.052,0.999,-0.244,1909213
-0.004,0.052,0.999,-0.244,1909217
-0.004,0.052,0.999,-0.244,1909221
-0.004,0.052,1.0,-0.122,1909225
-0.004,0.052,1.0,-0.183,1909229
-0.003,0.052,0.999,-0.183,1909233
-0.003,0.052,0.999,-0.183,1909237
-0.003,0.052,0.999,-0.122,1909241
-0.003,0.052,0.998,-0.183,1909245
-0.003,0.052,0.998,-0.305,1909249
-0.005,0.052,0.997,-0.183,1909253
-0.005,0.052,0.997,-0.183,1909257
-0.005,0.052,0.997,-0.183,1909261
-0.004,0.052,1.001,-0.305,1909265
-0.004,0.052,1.001,-0.183,1909269
-0.002,0.054,1.0,-0.305,1909273
-0.002,0.054,1.0,-0.305,1909277
-0.002,0.054,1.0,-0.183,1909281
-0.004,0.052,0.999,-0.122,1909285
-0.004,0.052,0.999,-0.183,1909289
-0.004,0.052,0.999,-0.244,1909293
-0.004,0.052,0.999,-0.244,1909297
-0.004,0.052,0.999,-0.244,1909300
-0.006,0.053,0.999,-0.305,1909304
-0.006,0.053,0.999,-0.244,1909308
-0.004,0.051,0.999,-0.183,1909312
-0.004,0.051,0.999,-0.183,1909316
-0.004,0.051,0.999,-0.305,1909320
-0.003,0.052,0.999,-0.366,1909324
-0.003,0.052,0.999,-0.183,1909328
-0.003,0.053,0.999,-0.061,1909332
-0.003,0.053,0.999,-0.061,1909336
-0.003,0.053,0.999,-0.244,1909340
-0.003,0.053,0.999,-0.305,1909344
-0.003,0.053,0.999,-0.366,1909348
-0.004,0.053,0.999,-0.244,1909352
-0.004,0.053,0.999,-0.244,1909356
-0.004,0.053,0.999,-0.061,1909360
-0.004,0.052,1.0,-0.183,1909364
-0.004,0.052,1.0,-0.122,1909368
-0.003,0.053,1.0,-0.122,1909372
-0.003,0.053,1.0,-0.122,1909376
-0.003,0.053,1.0,-0.244,1909380
-0.004,0.053,0.998,-0.183,1909384
-0.004,0.053,0.998,-0.183,1909388
-0.003,0.053,0.999,-0.122,1909392
-0.003,0.053,0.999,-0.122,1909396
-0.003,0.053,0.999,-0.183,1909400
-0.005,0.053,0.998,-0.244,1909404
-0.005,0.053,0.998,-0.244,1909408
-0.003,0.052,0.999,-0.183,1909412
-0.003,0.052,0.999,-0.183,1909416
-0.003,0.052,0.999,-0.061,1909420
-0.005,0.051,1.0,-0.122,1909424
-0.005,0.051,1.0,-0.183,1909428
-0.005,0.052,0.999,-0.183,1909431
-0.005,0.052,0.999,-0.183,1909435
-0.005,0.052,0.999,0.0,1909439
-0.003,0.052,0.999,-0.305,1909443
-0.003,0.052,0.999,-0.305,1909447
-0.003,0.053,0.998,-0.122,1909451
-0.003,0.053,0.998,-0.122,1909455
-0.003,0.053,0.998,-0.366,1909459
-0.004,0.052,0.999,-0.366,1909463
-0.004,0.052,0.999,-0.244,1909467
-0.004,0.052,1.0,-0.183,1909471
-0.004,0.052,1.0,-0.183,1909475
-0.004,0.052,1.0,-0.122,1909479
-0.003,0.052,1.0,-0.183,1909483
-0.003,0.052,1.0,-0.183,1909487
-0.005,0.052,0.999,-0.122,1909491
-0.005,0.052,0.999,-0.122,1909495
-0.005,0.052,0.999,-0.183,1909499
-0.003,0.053,0.998,-0.244,1909503
-0.003,0.053,0.998,-0.061,1909507
-0.004,0.054,0.998,-0.244,1909511
-0.004,0.054,0.998,-0.244,1909515
-0.004,0.054,0.998,-0.183,1909519
-0.004,0.052,0.999,-0.183,1909523
-0.004,0.052,0.999,-0.244,1909527
-0.002,0.053,1.0,-0.122,1909531
-0.002,0.053,1.0,-0.122,1909535
-0.002,0.053,1.0,-0.183,1909539
-0.002,0.054,0.999,-0.305,1909543
-0.002,0.054,0.999,-0.122,1909547
-0.002,0.052,1.0,-0.183,1909551
-0.002,0.052,1.0,-0.183,1909555
-0.002,0.052,1.0,-0.122,1909559
-0.003,0.052,1.0,-0.122,1909562
-0.003,0.052,1.0,-0.183,1909566
-0.003,0.052,0.999,-0.183,1909570
-0.003,0.052,0.999,-0.183,1909574
-0.003,0.052,0.999,-0.244,1909578
-0.004,0.052,1.0,-0.122,1909582
-0.004,0.052,1.0,-0.183,1909586
-0.004,0.053,1.0,-0.061,1909590
-0.004,0.053,1.0,-0.061,1909594
-0.004,0.053,1.0,-0.244,1909598
-0.002,0.053,1.001,-0.366,1909602
-0.002,0.053,1.001,-0.305,1909606
-0.003,0.052,0.998,-0.244,1909610
-0.003,0.052,0.998,-0.244,1909614
-0.003,0.052,0.998,0.0,1909618
-0.004,0.052,0.997,-0.061,1909622
-0.004,0.052,0.997,0.0,1909626
-0.005,0.052,0.999,-0.305,1909630
-0.005,0.052,0.999,-0.305,1909634
-0.005,0.052,0.999,-0.305,1909638
-0.005,0.053,1.0,-0.183,1909642
-0.005,0.053,1.0,-0.183,1909646
-0.004,0.052,1.0,-0.122,1909650
-0.004,0.052,1.0,-0.122,1909654
-0.004,0.052,1.0,-0.183,1909658
-0.005,0.053,0.999,-0.305,1909662
-0.005,0.053,0.999,-0.122,1909666
-0.006,0.054,0.999,-0.122,1909670
-0.006,0.054,0.999,-0.122,1909674
-0.006,0.054,0.999,-0.183,1909678
-0.004,0.052,1.0,-0.305,1909681
-0.004,0.052,1.0,-0.305,1909685
-0.004,0.053,0.999,-0.183,1909689
-0.004,0.053,0.999,-0.183,1909693
-0.004,0.053,0.999,-0.061,1909697
-0.006,0.054,1.0,-0.244,1909701
-0.006,0.054,1.0,-0.244,1909705
-0.003,0.055,0.999,-0.183,1909709
-0.003,0.055,0.999,-0.183,1909713
-0.003,0.055,0.999,-0.183,1909717
-0.004,0.054,0.999,-0.183,1909721
-0.004,0.054,0.999,-0.183,1909725
-0.004,0.054,0.999,-0.183,1909729
-0.004,0.054,0.999,-0.183,1909733
-0.004,0.054,0.999,-0.122,1909737
-0.004,0.052,0.999,-0.122,1909741
-0.004,0.052,0.999,-0.183,1909745
-0.005,0.052,0.999,-0.122,1909749
-0.005,0.052,0.999,-0.122,1909753
-0.005,0.052,0.999,-0.244,1909757
-0.004,0.054,0.999,-0.183,1909761
-0.004,0.054,0.999,-0.061,1909765
-0.003,0.055,0.999,-0.183,1909769
-0.003,0.055,0.999,-0.183,1909773
-0.003,0.055,0.999,-0.122,1909777
-0.005,0.052,0.999,-0.122,1909781
-0.005,0.052,0.999,-0.122,1909785
-0.004,0.052,0.999,0.122,1909789
-0.004,0.052,0.999,0.122,1909793
-0.004,0.052,0.999,-0.061,1909797
-0.005,0.052,0.999,-0.244,1909801
-0.005,0.052,0.999,-0.244,1909805
-0.006,0.051,0.999,-0.244,1909809
-0.006,0.051,0.999,-0.244,1909813
-0.006,0.051,0.999,-0.122,1909816
-0.004,0.053,1.001,-0.061,1909820
-0.004,0.053,1.001,-0.183,1909824
-0.003,0.052,0.999,-0.244,1909828
-0.003,0.052,0.999,-0.244,1909832
-0.003,0.052,0.999,-0.122,1909836
-0.004,0.052,0.999,-0.061,1909840
-0.004,0.052,0.999,-0.183,1909844
-0.002,0.051,1.001,-0.305,1909848
-0.002,0.051,1.001,-0.305,1909852
-0.002,0.051,1.001,-0.244,1909856
-0.003,0.053,0.998,-0.183,1909860
-0.003,0.053,0.998,-0.061,1909864
-0.003,0.053,1.0,-0.183,1909868
-0.003,0.053,1.0,-0.183,1909872
-0.003,0.053,1.0,-0.183,1909876
-0.003,0.053,1.0,-0.061,1909880
-0.003,0.053,1.0,-0.122,1909884
-0.004,0.054,0.999,-0.122,1909888
-0.004,0.054,0.999,-0.122,1909892
-0.004,0.054,0.999,-0.183,1909896
-0.005,0.053,0.999,-0.244,1909900
-0.005,0.053,0.999,-0.244,1909904
-0.004,0.053,1.0,-0.183,1909908
-0.004,0.053,1.0,-0.183,1909912
-0.004,0.053,1.0,-0.244,1909916
-0.003,0.053,0.998,-0.183,1909920
-0.003,0.053,0.998,-0.183,1909924
-0.002,0.053,0.998,-0.244,1909928
-0.002,0.053,0.998,-0.244,1909932
-0.002,0.053,0.998,-0.183,1909936
-0.002,0.055,1.0,-0.183,1909940
-0.002,0.055,1.0,-0.183,1909943
-0.004,0.054,1.0,-0.183,1909947
-0.004,0.054,1.0,-0.183,1909951
-0.004,0.054,1.0,-0.305,1909955
-0.005,0.052,0.999,-0.061,1909959
-0.005,0.052,0.999,0.0,1909963
-0.004,0.053,0.999,-0.244,1909967
-0.004,0.053,0.999,-0.244,1909971
-0.004,0.053,0.999,-0.183,1909975
-0.004,0.053,1.001,-0.305,1909979
-0.004,0.053,1.001,-0.183,1909983
-0.006,0.052,1.0,-0.244,1909987
-0.006,0.052,1.0,-0.244,1909991
-0.006,0.052,1.0,-0.183,1909995
-0.004,0.052,0.999,-0.183,1909999
-0.004,0.052,0.999,-0.305,1910003
-0.005,0.052,1.0,-0.183,1910007
-0.005,0.052,1.0,-0.183,1910011
-0.005,0.052,1.0,-0.183,1910015
-0.004,0.052,0.998,-0.244,1910019
-0.004,0.052,0.998,-0.305,1910023
-0.003,0.053,0.999,-0.305,1910027
-0.003,0.053,0.999,-0.305,1910031
-0.003,0.053,0.999,-0.183,1910035
-0.005,0.052,1.0,-0.244,1910039
-0.005,0.052,1.0,-0.061,1910043
-0.005,0.053,0.999,0.061,1910047
-0.005,0.053,0.999,0.061,1910050
-0.005,0.053,0.999,-0.183,1910054
-0.004,0.053,1.001,-0.122,1910058
-0.004,0.053,1.001,0.061,1910062
-0.003,0.053,1.0,-0.061,1910066
-0.003,0.053,1.0,-0.061,1910070
-0.003,0.053,1.0,-0.122,1910074
-0.002,0.053,0.998,-0.061,1910078
-0.002,0.053,0.998,-0.122,1910082
-0.003,0.054,0.999,-0.122,1910086
-0.003,0.054,0.999,-0.122,1910090
-0.003,0.054,0.999,-0.183,1910094
-0.003,0.053,1.0,-0.244,1910098
-0.003,0.053,1.0,-0.244,1910102
-0.002,0.053,0.999,-0.183,1910106
-0.002,0.053,0.999,-0.183,1910110
-0.002,0.053,0.999,-0.305,1910114
-0.003,0.052,0.999,-0.305,1910118
-0.003,0.052,0.999,-0.244,1910122
-0.005,0.054,1.001,-0.244,1910126
-0.005,0.054,1.001,-0.244,1910130
-0.005,0.054,1.001,-0.305,1910134
-0.005,0.053,1.0,-0.244,1910138
-0.005,0.053,1.0,-0.122,1910142
-0.006,0.051,0.999,-0.122,1910146
-0.006,0.051,0.999,-0.122,1910150
-0.006,0.051,0.999,-0.183,1910154
-0.004,0.053,0.999,-0.183,1910158
-0.004,0.053,0.999,-0.122,1910162
-0.003,0.052,0.998,-0.122,1910166
-0.003,0.052,0.998,-0.122,1910170
-0.003,0.052,0.998,-0.122,1910173
-0.006,0.053,0.999,-0.122,1910177
-0.006,0.053,0.999,-0.122,1910181
-0.005,0.053,1.001,-0.183,1910185
-0.005,0.053,1.001,-0.183,1910189
-0.005,0.053,1.001,-0.305,1910193
-0.003,0.053,1.0,-0.244,1910197
-0.003,0.053,1.0,-0.244,1910201
-0.004,0.052,0.998,-0.244,1910205
-0.004,0.052,0.998,-0.244,1910209
-0.004,0.052,0.998,0.0,1910213
-0.003,0.053,1.0,-0.183,1910217
-0.003,0.053,1.0,-0.183,1910221
-0.005,0.053,1.0,-0.122,1910225
-0.005,0.053,1.0,-0.122,1910229
-0.005,0.053,1.0,-0.183,1910233
-0.005,0.053,1.0,-0.183,1910237
-0.005,0.053,1.0,-0.244,1910241
-0.004,0.052,0.999,-0.244,1910245
-0.004,0.052,0.999,-0.244,1910249
-0.004,0.052,0.999,-0.122,1910253
-0.004,0.053,0.998,-0.122,1910257
-0.004,0.053,0.998,-0.183,1910261
-0.005,0.053,0.997,-0.183,1910265
-0.005,0.053,0.997,-0.183,1910269
-0.005,0.053,0.997,-0.305,1910273
-0.004,0.054,0.999,-0.305,1910277
-0.004,0.054,0.999,-0.183,1910281
-0.004,0.054,1.0,-0.305,1910284
-0.004,0.054,1.0,-0.305,1910288
-0.004,0.054,1.0,-0.122,1910292
-0.004,0.054,0.998,-0.244,1910296
-0.004,0.054,0.998,-0.183,1910300
-0.004,0.053,1.0,-0.183,1910304
-0.004,0.053,1.0,-0.183,1910308
-0.004,0.053,1.0,-0.244,1910312
-0.006,0.052,0.999,-0.122,1910316
-0.006,0.052,0.999,-0.244,1910320
-0.004,0.052,0.998,-0.122,1910324
-0.004,0.052,0.998,-0.122,1910328
-0.004,0.052,0.998,-0.244,1910332
-0.003,0.053,1.0,-0.183,1910336
-0.003,0.053,1.0,-0.244,1910340
-0.003,0.054,0.999,-0.183,1910344
-0.003,0.054,0.999,-0.183,1910348
-0.003,0.054,0.999,0.0,1910352
-0.003,0.052,1.0,-0.183,1910356
-0.003,0.052,1.0,-0.244,1910360
-0.003,0.053,0.999,-0.122,1910364
-0.003,0.053,0.999,-0.122,1910368
-0.003,0.053,0.999,-0.183,1910372
-0.004,0.052,1.0,-0.183,1910376
-0.004,0.052,1.0,-0.305,1910380
-0.004,0.052,0.997,-0.305,1910384
-0.004,0.052,0.997,-0.305,1910388
-0.004,0.052,0.997,-0.244,1910392
-0.003,0.053,0.999,-0.183,1910396
-0.003,0.053,0.999,-0.305,1910400
-0.003,0.052,0.998,-0.244,1910404
-0.003,0.052,0.998,-0.244,1910408
-0.003,0.052,0.998,-0.183,1910412
-0.003,0.053,0.999,-0.183,1910415
-0.003,0.053,0.999,-0.183,1910419
-0.002,0.053,1.001,-0.305,1910423
-0.002,0.053,1.001,-0.305,1910427
-0.002,0.053,1.001,-0.244,1910431
-0.003,0.054,0.998,-0.183,1910435
-0.003,0.054,0.998,-0.183,1910439
-0.005,0.052,0.999,-0.366,1910443
-0.005,0.052,0.999,-0.366,1910447
-0.005,0.052,0.999,-0.305,1910451
-0.004,0.052,0.999,-0.122,1910455
-0.004,0.052,0.999,-0.122,1910459
-0.004,0.055,0.998,-0.366,1910463
-0.004,0.055,0.998,-0.366,1910467
-0.004,0.055,0.998,-0.305,1910471
-0.004,0.055,1.001,-0.122,1910475
-0.004,0.055,1.001,-0.244,1910479
-0.003,0.054,0.998,-0.427,1910483
-0.003,0.054,0.998,-0.427,1910487
-0.003,0.054,0.998,-0.366,1910491
-0.003,0.053,0.998,-0.244,1910495
-0.003,0.053,0.998,-0.244,1910499
-0.004,0.052,0.999,-0.244,1910503
-0.004,0.052,0.999,-0.244,1910507
-0.004,0.052,0.999,-0.183,1910511
-0.005,0.053,0.997,-0.122,1910515
-0.005,0.053,0.997,-0.122,1910519
-0.005,0.054,0.999,-0.244,1910523
-0.005,0.054,0.999,-0.244,1910527
-0.005,0.054,0.999,-0.122,1910531
-0.003,0.052,0.999,-0.183,1910535
-0.003,0.052,0.999,-0.183,1910539
-0.004,0.052,0.999,-0.061,1910543
-0.004,0.052,0.999,-0.061,1910546
-0.004,0.052,0.999,-0.183,1910550
-0.004,0.052,1.0,-0.244,1910554
-0.004,0.052,1.0,-0.183,1910558
-0.005,0.052,0.999,-0.305,1910562
-0.005,0.052,0.999,-0.305,1910566
-0.005,0.052,0.999,-0.183,1910570
-0.004,0.053,1.0,-0.305,1910574
-0.004,0.053,1.0,-0.183,1910578
-0.002,0.052,1.0,-0.183,1910582
-0.002,0.052,1.0,-0.183,1910586
-0.002,0.052,1.0,-0.244,1910590
-0.005,0.052,0.999,-0.305,1910594
-0.005,0.052,0.999,-0.305,1910598
-0.004,0.052,0.999,-0.244,1910602
-0.004,0.052,0.999,-0.244,1910606
-0.004,0.052,0.999,-0.183,1910610
-0.003,0.052,1.0,-0.122,1910614
-0.003,0.052,1.0,-0.122,1910618
-0.003,0.052,1.0,-0.183,1910622
-0.003,0.052,1.0,-0.183,1910626
-0.003,0.052,1.0,-0.244,1910630
-0.004,0.054,1.0,-0.061,1910634
-0.004,0.054,1.0,-0.122,1910638
-0.005,0.053,1.001,-0.183,1910642
-0.005,0.053,1.001,-0.183,1910646
-0.005,0.053,1.001,-0.122,1910650
-0.003,0.052,0.999,-0.183,1910654
-0.003,0.052,0.999,-0.244,1910658
-0.003,0.053,1.0,-0.183,1910662
-0.003,0.053,1.0,-0.183,1910666
-0.003,0.053,1.0,-0.061,1910669
-0.004,0.054,0.999,-0.061,1910673
-0.004,0.054,0.999,-0.244,1910677
-0.003,0.053,0.998,-0.122,1910681
-0.003,0.053,0.998,-0.122,1910685
-0.003,0.053,0.998,-0.061,1910689
-0.003,0.053,0.999,-0.122,1910693
-0.003,0.053,0.999,-0.244,1910697
-0.003,0.054,0.998,-0.122,1910701
-0.003,0.054,0.998,-0.122,1910705
-0.003,0.054,0.998,-0.183,1910709
-0.003,0.053,1.0,-0.122,1910713
-0.003,0.053,1.0,-0.122,1910717
-0.002,0.052,1.0,-0.183,1910721
-0.002,0.052,1.0,-0.183,1910725
-0.002,0.052,1.0,-0.122,1910729
-0.005,0.052,0.999,-0.183,1910733
-0.005,0.052,0.999,-0.244,1910737
-0.004,0.052,0.999,-0.244,1910741
-0.004,0.052,0.999,-0.244,1910745
-0.004,0.052,0.999,-0.061,1910749
-0.005,0.054,0.999,-0.183,1910753
-0.005,0.054,0.999,-0.183,1910757
-0.006,0.054,0.999,-0.183,1910761
-0.006,0.054,0.999,-0.183,1910765
-0.006,0.054,0.999,-0.183,1910769
-0.004,0.052,0.997,-0.122,1910773
-0.004,0.052,0.997,-0.244,1910777
-0.006,0.052,0.998,-0.183,1910781
-0.006,0.052,0.998,-0.183,1910785
-0.006,0.052,0.998,0.0,1910788
-0.006,0.054,0.999,-0.061,1910792
-0.006,0.054,0.999,-0.122,1910796
-0.004,0.052,0.998,-0.244,1910800
-0.004,0.052,0.998,-0.244,1910804
-0.004,0.052,0.998,-0.305,1910808
-0.003,0.052,1.001,-0.244,1910812
-0.003,0.052,1.001,-0.122,1910816
-0.004,0.054,1.0,-0.183,1910820
-0.004,0.054,1.0,-0.183,1910824
-0.004,0.054,1.0,-0.122,1910828
-0.004,0.053,0.999,-0.244,1910832
-0.004,0.053,0.999,-0.244,1910836
-0.004,0.053,1.0,-0.183,1910840
-0.004,0.053,1.0,-0.183,1910844
-0.004,0.053,1.0,-0.122,1910848
-0.004,0.054,1.0,-0.183,1910852
-0.004,0.054,1.0,-0.122,1910856
-0.003,0.054,1.0,-0.122,1910860
-0.003,0.054,1.0,-0.122,1910864
-0.003,0.054,1.0,-0.183,1910868
-0.002,0.053,1.0,-0.244,1910872
-0.002,0.053,1.0,-0.244,1910876
-0.004,0.053,1.0,-0.183,1910880
-0.004,0.053,1.0,-0.183,1910884
-0.004,0.053,1.0,-0.122,1910888
-0.005,0.054,0.998,-0.305,1910892
-0.005,0.054,0.998,-0.122,1910896
-0.004,0.053,0.998,-0.183,1910900
-0.004,0.053,0.998,-0.183,1910904
-0.004,0.053,0.998,-0.305,1910907
-0.004,0.053,1.0,-0.366,1910911
-0.004,0.053,1.0,-0.427,1910915
-0.004,0.054,1.0,-0.244,1910919
-0.004,0.054,1.0,-0.244,1910923
-0.004,0.054,1.0,-0.183,1910927
-0.003,0.053,0.998,-0.122,1910931
-0.003,0.053,0.998,-0.244,1910935
-0.005,0.052,0.999,-0.183,1910939
-0.005,0.052,0.999,-0.183,1910943
-0.005,0.052,0.999,-0.183,1910947
-0.004,0.053,1.0,-0.244,1910951
-0.004,0.053,1.0,-0.305,1910955
-0.005,0.051,1.0,-0.183,1910959
-0.005,0.051,1.0,-0.183,1910963
-0.005,0.051,1.0,-0.122,1910967
-0.004,0.052,1.0,-0.061,1910971
-0.004,0.052,1.0,-0.305,1910975
-0.004,0.052,0.999,-0.366,1910979
-0.004,0.052,0.999,-0.366,1910983
-0.004,0.052,0.999,-0.366,1910987
-0.005,0.052,0.997,-0.183,1910991
-0.005,0.052,0.997,-0.183,1910995
-0.004,0.052,0.999,-0.061,1910999
-0.004,0.052,0.999,-0.061,1911003
-0.004,0.052,0.999,-0.183,1911007
-0.003,0.052,0.999,-0.122,1911011
-0.003,0.052,0.999,-0.061,1911015
-0.003,0.053,0.998,-0.061,1911019
-0.003,0.053,0.998,-0.061,1911023
-0.003,0.053,0.998,-0.061,1911027
-0.003,0.054,1.0,-0.183,1911031
-0.003,0.054,1.0,-0.122,1911035
-0.004,0.054,0.999,-0.183,1911039
-0.004,0.054,0.999,-0.183,1911043
-0.004,0.054,0.999,-0.183,1911046
-0.003,0.055,1.0,-0.244,1911050
-0.003,0.055,1.0,-0.122,1911054
-0.005,0.054,1.001,-0.244,1911058
-0.005,0.054,1.001,-0.244,1911062
-0.005,0.054,1.001,-0.183,1911066
-0.006,0.054,1.001,-0.183,1911070
-0.006,0.054,1.001,-0.183,1911074
-0.003,0.053,1.0,-0.244,1911078
-0.003,0.053,1.0,-0.244,1911082
-0.003,0.053,1.0,-0.183,1911086
-0.004,0.051,1.0,-0.183,1911090
-0.004,0.051,1.0,-0.122,1911094
-0.002,0.054,0.999,-0.183,1911098
-0.002,0.054,0.999,-0.183,1911102
-0.002,0.054,0.999,-0.183,1911106
-0.003,0.053,1.0,-0.183,1911110
-0.003,0.053,1.0,-0.122,1911114
-0.003,0.053,1.0,-0.244,1911118
-0.003,0.053,1.0,-0.244,1911122
-0.003,0.053,1.0,-0.244,1911126
-0.004,0.053,1.0,-0.183,1911130
-0.004,0.053,1.0,-0.244,1911134
-0.004,0.053,1.0,-0.244,1911138
-0.004,0.053,1.0,-0.244,1911142
-0.004,0.053,1.0,-0.061,1911146
-0.005,0.052,0.999,-0.061,1911150
-0.005,0.052,0.999,-0.244,1911154
-0.004,0.052,0.999,-0.244,1911158
-0.004,0.052,0.999,-0.244,1911162
-0.004,0.052,0.999,-0.244,1911166
-0.005,0.052,1.0,-0.244,1911170
-0.005,0.052,1.0,-0.183,1911173
-0.005,0.052,0.998,-0.244,1911177
-0.005,0.052,0.998,-0.244,1911181
-0.005,0.052,0.998,-0.183,1911185
-0.004,0.052,1.0,-0.305,1911189
-0.004,0.052,1.0,-0.305,1911193
-0.003,0.052,1.001,-0.244,1911197
-0.003,0.052,1.001,-0.244,1911201
-0.003,0.052,1.001,-0.122,1911205
-0.003,0.054,1.001,-0.183,1911209
-0.003,0.054,1.001,-0.183,1911213
-0.005,0.052,0.998,-0.183,1911217
-0.005,0.052,0.998,-0.183,1911221
-0.005,0.052,0.998,-0.305,1911225
-0.005,0.052,0.997,-0.244,1911229
-0.005,0.052,0.997,-0.366,1911233
-0.004,0.053,1.0,-0.366,1911237
-0.004,0.053,1.0,-0.366,1911241
-0.004,0.053,1.0,-0.366,1911245
-0.004,0.054,1.0,-0.183,1911249
-0.004,0.054,1.0,0.0,1911253
-0.005,0.052,0.999,-0.061,1911257
-0.005,0.052,0.999,-0.061,1911261
-0.005,0.052,0.999,-0.244,1911265
-0.005,0.053,1.0,-0.244,1911269
-0.005,0.053,1.0,-0.183,1911273
-0.004,0.053,0.998,-0.122,1911277
-0.004,0.053,0.998,-0.122,1911281
-0.004,0.053,0.998,-0.061,1911285
-0.004,0.053,0.998,-0.183,1911288
-0.004,0.053,0.998,-0.244,1911292
-0.004,0.053,0.998,-0.183,1911296
-0.004,0.053,0.998,-0.183,1911300
-0.004,0.053,0.998,-0.061,1911304
-0.003,0.053,0.998,-0.183,1911308
-0.003,0.053,0.998,-0.244,1911312
-0.004,0.052,0.999,-0.183,1911316
-0.004,0.052,0.999,-0.183,1911320
-0.004,0.052,0.999,-0.122,1911324
-0.004,0.052,1.0,-0.183,1911328
-0.004,0.052,1.0,-0.183,1911332
-0.005,0.053,1.0,-0.366,1911336
-0.005,0.053,1.0,-0.366,1911340
-0.005,0.053,1.0,-0.427,1911344
-0.006,0.052,0.999,-0.183,1911348
-0.006,0.052,0.999,-0.244,1911352
-0.004,0.052,0.999,-0.244,1911356
-0.004,0.052,0.999,-0.244,1911360
-0.004,0.052,0.999,-0.122,1911364
-0.003,0.052,1.0,-0.244,1911368
-0.003,0.052,1.0,-0.122,1911372
-0.003,0.052,0.998,-0.122,1911376
-0.003,0.052,0.998,-0.122,1911380
-0.003,0.052,0.998,-0.244,1911384
-0.005,0.052,0.998,-0.244,1911388
-0.005,0.052,0.998,-0.244,1911392
-0.004,0.053,0.999,-0.183,1911396
-0.004,0.053,0.999,-0.183,1911400
-0.004,0.053,0.999,-0.183,1911404
-0.004,0.055,0.999,-0.305,1911408
-0.004,0.055,0.999,-0.183,1911412
-0.004,0.055,0.999,-0.122,1911416
-0.004,0.055,0.999,-0.122,1911420
-0.004,0.055,0.999,-0.244,1911424
-0.003,0.055,0.999,-0.244,1911427
-0.003,0.055,0.999,-0.061,1911431
-0.003,0.053,1.0,-0.122,1911435
-0.003,0.053,1.0,-0.122,1911439
-0.003,0.053,1.0,-0.183,1911443
-0.002,0.053,1.0,-0.183,1911447
-0.002,0.053,1.0,-0.244,1911451
-0.004,0.052,1.0,-0.061,1911455
-0.004,0.052,1.0,-0.061,1911459
-0.004,0.052,1.0,-0.122,1911463
-0.003,0.052,1.0,-0.244,1911467
-0.003,0.052,1.0,-0.244,1911471
-0.002,0.054,1.0,-0.122,1911475
-0.002,0.054,1.0,-0.122,1911479
-0.002,0.054,1.0,-0.183,1911483
-0.002,0.053,1.001,-0.122,1911487
-0.002,0.053,1.001,-0.244,1911491
-0.003,0.052,1.0,-0.122,1911495
-0.003,0.052,1.0,-0.122,1911499
-0.003,0.052,1.0,-0.061,1911503
-0.004,0.054,0.998,-0.122,1911507
-0.004,0.054,0.998,-0.244,1911511
-0.003,0.052,0.998,-0.244,1911515
-0.003,0.052,0.998,-0.244,1911519
-0.003,0.052,0.998,-0.183,1911523
-0.005,0.052,1.0,-0.244,1911527
-0.005,0.052,1.0,-0.183,1911531
-0.007,0.052,1.0,-0.122,1911535
-0.007,0.052,1.0,-0.122,1911539
-0.007,0.052,1.0,-0.183,1911543
-0.005,0.051,0.998,-0.244,1911547
-0.005,0.051,0.998,-0.244,1911550
-0.005,0.052,1.002,-0.122,1911554
-0.005,0.052,1.002,-0.122,1911558
-0.005,0.052,1.002,-0.244,1911562
-0.004,0.052,1.001,-0.244,1911566
-0.004,0.052,1.001,-0.244,1911570
-0.003,0.053,0.998,-0.183,1911574
-0.003,0.053,0.998,-0.183,1911578
-0.003,0.053,0.998,-0.183,1911582
-0.002,0.052,1.001,-0.183,1911586
-0.002,0.052,1.001,-0.183,1911590
-0.004,0.054,0.998,-0.122,1911594
-0.004,0.054,0.998,-0.122,1911598
-0.004,0.054,0.998,-0.183,1911602
-0.004,0.053,0.998,-0.244,1911606
-0.004,0.053,0.998,-0.427,1911610
-0.004,0.053,1.0,-0.244,1911614
-0.004,0.053,1.0,-0.244,1911618
-0.004,0.053,1.0,-0.183,1911622
-0.005,0.053,1.001,-0.244,1911626
-0.005,0.053,1.001,-0.366,1911630
-0.004,0.053,1.0,-0.305,1911634
-0.004,0.053,1.0,-0.305,1911638
-0.004,0.053,1.0,-0.122,1911642
-0.004,0.053,1.0,-0.061,1911646
-0.004,0.053,1.0,-0.244,1911650
-0.004,0.053,0.998,-0.244,1911654
-0.004,0.053,0.998,-0.244,1911658
-0.004,0.053,0.998,-0.183,1911662
-0.005,0.053,0.998,0.061,1911666
-0.005,0.053,0.998,-0.183,1911670
-0.004,0.053,0.999,-0.244,1911674
-0.004,0.053,0.999,-0.244,1911678
-0.004,0.053,0.999,-0.183,1911681
-0.004,0.053,0.999,-0.183,1911685
-0.004,0.053,0.999,-0.183,1911689
-0.005,0.053,0.997,-0.366,1911693
-0.005,0.053,0.997,-0.366,1911697
-0.005,0.053,0.997,-0.305,1911701
-0.004,0.053,1.0,-0.244,1911705
-0.004,0.053,1.0,-0.183,1911709
-0.005,0.052,1.0,-0.183,1911713
-0.005,0.052,1.0,-0.183,1911717
-0.005,0.052,1.0,-0.244,1911721
-0.004,0.052,0.999,-0.183,1911725
-0.004,0.052,0.999,-0.183,1911729
-0.004,0.053,1.0,-0.183,1911733
-0.004,0.053,1.0,-0.183,1911737
-0.004,0.053,1.0,-0.244,1911741
-0.003,0.052,1.0,-0.305,1911745
-0.003,0.052,1.0,-0.183,1911749
-0.001,0.051,0.999,-0.183,1911753
-0.001,0.051,0.999,-0.183,1911757
-0.001,0.051,0.999,-0.061,1911761
-0.004,0.053,1.0,-0.244,1911765
-0.004,0.053,1.0,-0.183,1911769
-0.005,0.053,0.999,-0.183,1911773
-0.005,0.053,0.999,-0.183,1911777
-0.005,0.053,0.999,-0.305,1911781
-0.003,0.053,0.999,-0.183,1911785
-0.003,0.053,0.999,-0.061,1911789
-0.003,0.053,0.998,-0.061,1911793
-0.003,0.053,0.998,-0.061,1911797
-0.003,0.053,0.998,-0.244,1911800
-0.004,0.054,1.0,-0.183,1911804
-0.004,0.054,1.0,-0.183,1911808
-0.002,0.053,1.0,-0.122,1911812
-0.002,0.053,1.0,-0.122,1911816
-0.002,0.053,1.0,-0.122,1911820
-0.002,0.054,0.998,-0.183,1911824
-0.002,0.054,0.998,-0.305,1911828
-0.002,0.054,0.998,-0.183,1911832
-0.002,0.054,0.998,-0.183,1911836
-0.002,0.054,0.998,-0.061,1911840
-0.007,0.052,0.998,-0.122,1911844
-0.007,0.052,0.998,-0.183,1911848
-0.003,0.052,1.0,-0.305,1911852
-0.003,0.052,1.0,-0.305,1911856
-0.003,0.052,1.0,-0.122,1911860
-0.003,0.052,0.999,-0.122,1911864
-0.003,0.052,0.999,-0.244,1911868
-0.006,0.053,0.999,-0.244,1911872
-0.006,0.053,0.999,-0.244,1911876
-0.006,0.053,0.999,-0.122,1911880
-0.004,0.053,0.999,-0.122,1911884
-0.004,0.053,0.999,-0.244,1911888
-0.005,0.052,0.998,-0.122,1911892
-0.005,0.052,0.998,-0.122,1911896
-0.005,0.052,0.998,-0.305,1911900
-0.004,0.053,0.998,-0.244,1911904
-0.004,0.053,0.998,-0.122,1911908
-0.002,0.052,0.999,-0.183,1911912
-0.002,0.052,0.999,-0.183,1911916
-0.002,0.052,0.999,-0.183,1911920
-0.004,0.052,0.999,-0.122,1911924
-0.004,0.052,0.999,-0.244,1911928
-0.006,0.052,0.999,-0.122,1911932
-0.006,0.052,0.999,-0.122,1911936
-0.006,0.052,0.999,-0.244,1911940
-0.003,0.053,1.001,-0.305,1911943
-0.003,0.053,1.001,0.0,1911947
-0.004,0.053,1.0,-0.122,1911951
-0.004,0.053,1.0,-0.122,1911955
-0.004,0.053,1.0,-0.305,1911959
-0.003,0.053,0.999,-0.183,1911963
-0.003,0.053,0.999,-0.305,1911967
-0.002,0.053,0.999,-0.122,1911971
-0.002,0.053,0.999,-0.122,1911975
-0.002,0.053,0.999,-0.183,1911979
-0.004,0.052,0.999,-0.183,1911983
-0.004,0.052,0.999,-0.183,1911987
-0.004,0.053,1.0,-0.244,1911991
-0.004,0.053,1.0,-0.244,1911995
-0.004,0.053,1.0,-0.183,1911999
-0.003,0.052,0.999,-0.122,1912003
-0.003,0.052,0.999,-0.183,1912007
-0.002,0.053,0.998,-0.183,1912011
-0.002,0.053,0.998,-0.183,1912015
-0.002,0.053,0.998,-0.183,1912019
-0.003,0.055,1.0,-0.061,1912023
-0.003,0.055,1.0,-0.183,1912027
-0.003,0.053,1.0,-0.183,1912031
-0.003,0.053,1.0,-0.183,1912035
-0.003,0.053,1.0,-0.183,1912039
-0.005,0.053,0.999,-0.244,1912043
-0.005,0.053,0.999,-0.305,1912047
-0.004,0.052,1.0,-0.122,1912051
-0.004,0.052,1.0,-0.122,1912055
-0.004,0.052,1.0,-0.061,1912058
-0.004,0.053,0.998,-0.122,1912062
-0.004,0.053,0.998,-0.183,1912066
-0.005,0.051,0.999,-0.183,1912070
-0.005,0.051,0.999,-0.183,1912074
-0.005,0.051,0.999,-0.183,1912078
-0.003,0.053,1.0,-0.183,1912082
-0.003,0.053,1.0,-0.183,1912086
-0.005,0.052,1.0,-0.122,1912090
-0.005,0.052,1.0,-0.122,1912094
-0.005,0.052,1.0,-0.122,1912098
-0.003,0.051,1.0,-0.244,1912102
-0.003,0.051,1.0,-0.122,1912106
-0.003,0.052,1.0,-0.122,1912110
-0.003,0.052,1.0,-0.122,1912114
-0.003,0.052,1.0,-0.244,1912118
-0.002,0.053,0.999,-0.061,1912122
-0.002,0.053,0.999,-0.122,1912126
-0.004,0.052,1.0,-0.244,1912130
-0.004,0.052,1.0,-0.244,1912134
-0.004,0.052,1.0,-0.183,1912138
-0.005,0.051,0.998,-0.183,1912142
-0.005,0.051,0.998,-0.122,1912146
-0.003,0.053,0.998,-0.122,1912150
-0.003,0.053,0.998,-0.122,1912154
-0.003,0.053,0.998,-0.183,1912158
-0.003,0.052,0.998,-0.122,1912162
-0.003,0.052,0.998,-0.122,1912166
-0.003,0.053,1.0,-0.061,1912170
-0.003,0.053,1.0,-0.061,1912174
-0.003,0.053,1.0,-0.122,1912178
-0.005,0.052,0.999,-0.305,1912182
-0.005,0.052,0.999,-0.183,1912186
-0.003,0.053,1.0,0.0,1912190
-0.003,0.053,1.0,0.0,1912193
-0.003,0.053,1.0,-0.183,1912197
-0.003,0.053,0.997,-0.305,1912201
-0.003,0.053,0.997,-0.244,1912205
-0.005,0.054,0.999,-0.183,1912209
-0.005,0.054,0.999,-0.183,1912213
-0.005,0.054,0.999,-0.244,1912217
-0.004,0.055,1.0,-0.061,1912221
-0.004,0.055,1.0,-0.122,1912225
-0.005,0.053,0.998,-0.122,1912229
-0.005,0.053,0.998,-0.122,1912233
-0.005,0.053,0.998,-0.122,1912237
-0.003,0.053,0.999,-0.183,1912241
-0.003,0.053,0.999,-0.183,1912245
-0.005,0.052,0.998,-0.244,1912249
-0.005,0.052,0.998,-0.244,1912253
-0.005,0.052,0.998,-0.183,1912257
-0.006,0.053,1.0,-0.183,1912261
-0.006,0.053,1.0,-0.122,1912265
-0.005,0.054,0.999,-0.061,1912269
-0.005,0.054,0.999,-0.061,1912273
-0.005,0.054,0.999,-0.183,1912277
-0.004,0.053,0.998,-0.305,1912281
-0.004,0.053,0.998,-0.244,1912285
-0.005,0.053,0.998,-0.244,1912289
-0.005,0.053,0.998,-0.244,1912293
-0.005,0.053,0.998,-0.244,1912297
-0.004,0.052,0.997,-0.183,1912301
-0.004,0.052,0.997,-0.244,1912305
-0.004,0.052,0.999,-0.244,1912309
-0.004,0.052,0.999,-0.244,1912312
-0.004,0.052,0.999,-0.305,1912316
-0.004,0.052,0.999,-0.122,1912320
-0.004,0.052,0.999,-0.061,1912324
-0.004,0.053,1.0,-0.244,1912328
-0.004,0.053,1.0,-0.244,1912332
-0.004,0.053,1.0,-0.244,1912336
-0.003,0.053,0.999,-0.244,1912340
-0.003,0.053,0.999,-0.122,1912344
-0.003,0.053,1.0,-0.183,1912348
-0.003,0.053,1.0,-0.183,1912352
-0.003,0.053,1.0,-0.183,1912356
-0.004,0.053,0.998,-0.061,1912360
-0.004,0.053,0.998,-0.122,1912364
-0.002,0.052,0.997,-0.061,1912368
-0.002,0.052,0.997,-0.061,1912372
-0.002,0.052,0.997,-0.122,1912376
-0.004,0.053,1.001,-0.183,1912380
-0.004,0.053,1.001,-0.183,1912384
-0.004,0.052,1.0,-0.183,1912388
-0.004,0.052,1.0,-0.183,1912392
-0.004,0.052,1.0,-0.244,1912396
-0.001,0.052,0.999,-0.061,1912400
-0.001,0.052,0.999,-0.122,1912404
-0.003,0.054,0.998,-0.183,1912408
-0.003,0.054,0.998,-0.183,1912412
-0.003,0.054,0.998,-0.122,1912416
-0.001,0.054,0.999,-0.244,1912420
-0.001,0.054,0.999,-0.366,1912424
-0.004,0.052,0.999,-0.305,1912428
-0.004,0.052,0.999,-0.305,1912432
-0.004,0.052,0.999,-0.183,1912436
-0.005,0.054,0.998,0.0,1912439
-0.005,0.054,0.998,-0.244,1912443
-0.004,0.053,0.998,-0.366,1912447
-0.004,0.053,0.998,-0.366,1912451
-0.004,0.053,0.998,-0.244,1912455
-0.004,0.053,1.0,-0.244,1912459
-0.004,0.053,1.0,-0.244,1912463
-0.006,0.054,0.999,-0.183,1912467
-0.006,0.054,0.999,-0.183,1912471
-0.006,0.054,0.999,-0.122,1912475
-0.005,0.054,0.998,-0.183,1912479
-0.005,0.054,0.998,-0.183,1912483
-0.004,0.053,1.0,-0.122,1912487
-0.004,0.053,1.0,-0.122,1912491
-0.004,0.053,1.0,-0.183,1912495
-0.002,0.053,1.001,-0.183,1912499
-0.002,0.053,1.001,-0.183,1912503
-0.004,0.053,1.001,-0.122,1912507
-0.004,0.053,1.001,-0.122,1912511
-0.004,0.053,1.001,-0.183,1912515
-0.005,0.052,0.998,-0.183,1912519
-0.005,0.052,0.998,-0.183,1912523
-0.003,0.053,0.998,-0.061,1912527
-0.003,0.053,0.998,-0.061,1912531
-0.003,0.053,0.998,-0.122,1912535
-0.003,0.053,1.0,-0.183,1912539
-0.003,0.053,1.0,-0.183,1912543
-0.003,0.053,1.0,-0.244,1912547
-0.003,0.053,1.0,-0.244,1912551
-0.003,0.053,1.0,-0.183,1912555
-0.003,0.052,0.999,-0.305,1912559
-0.003,0.052,0.999,-0.305,1912563
-0.004,0.053,1.0,-0.183,1912567
-0.004,0.053,1.0,-0.183,1912570
-0.004,0.053,1.0,-0.061,1912574
-0.002,0.054,0.999,-0.122,1912578
-0.002,0.054,0.999,-0.183,1912582
-0.005,0.053,1.0,-0.244,1912586
-0.005,0.053,1.0,-0.244,1912590
-0.005,0.053,1.0,-0.244,1912594
-0.004,0.054,0.998,-0.122,1912598
-0.004,0.054,0.998,-0.244,1912602
-0.004,0.053,1.0,-0.305,1912606
-0.004,0.053,1.0,-0.305,1912610
-0.004,0.053,1.0,-0.061,1912614
-0.004,0.053,0.999,-0.183,1912618
-0.004,0.053,0.999,-0.244,1912622
-0.005,0.053,0.999,-0.122,1912626
-0.005,0.053,0.999,-0.122,1912630
-0.005,0.053,0.999,-0.122,1912634
-0.003,0.054,0.999,-0.183,1912638
-0.003,0.054,0.999,-0.183,1912642
-0.005,0.052,0.998,-0.183,1912646
-0.005,0.052,0.998,-0.183,1912650
-0.005,0.052,0.998,-0.305,1912654
-0.004,0.053,0.999,-0.305,1912658
-0.004,0.053,0.999,-0.244,1912662
-0.004,0.054,0.999,-0.244,1912666
-0.004,0.054,0.999,-0.244,1912670
-0.004,0.054,0.999,-0.244,1912674
-0.004,0.052,1.0,-0.305,1912678
-0.004,0.052,1.0,-0.183,1912682
-0.003,0.052,1.0,-0.183,1912686
-0.003,0.052,1.0,-0.183,1912690
-0.003,0.052,1.0,-0.244,1912694
-0.004,0.054,0.999,-0.244,1912698
-0.004,0.054,0.999,-0.122,1912702
-0.004,0.054,1.0,-0.244,1912706
-0.004,0.054,1.0,-0.244,1912709
-0.004,0.054,1.0,-0.305,1912713
-0.004,0.052,1.001,-0.244,1912717
-0.004,0.052,1.001,-0.366,1912721
-0.004,0.052,1.0,-0.366,1912725
-0.004,0.052,1.0,-0.366,1912729
-0.004,0.052,1.0,-0.061,1912733
-0.003,0.051,1.0,-0.122,1912737
-0.003,0.051,1.0,-0.305,1912741
-0.004,0.052,0.999,-0.183,1912745
-0.004,0.052,0.999,-0.183,1912749
-0.004,0.052,0.999,-0.244,1912753
-0.003,0.052,0.999,-0.244,1912757
-0.003,0.052,0.999,-0.122,1912761
-0.005,0.053,1.0,-0.122,1912765
-0.005,0.053,1.0,-0.122,1912769
-0.005,0.053,1.0,-0.122,1912773
-0.004,0.053,0.999,-0.122,1912777
-0.004,0.053,0.999,-0.244,1912781
-0.002,0.051,1.001,-0.061,1912785
-0.002,0.051,1.001,-0.061,1912789
-0.002,0.051,1.001,-0.183,1912793
-0.003,0.051,1.0,-0.122,1912797
-0.003,0.051,1.0,-0.122,1912801
-0.005,0.052,0.998,-0.183,1912805
-0.005,0.052,0.998,-0.183,1912809
-0.005,0.052,0.998,-0.244,1912813
-0.003,0.054,0.999,-0.122,1912817
-0.003,0.054,0.999,-0.183,1912821
-0.004,0.052,1.0,-0.122,1912825
-0.004,0.052,1.0,-0.122,1912829
-0.004,0.052,1.0,-0.305,1912833
-0.003,0.053,0.997,-0.244,1912837
-0.003,0.053,0.997,-0.244,1912841
-0.004,0.053,0.999,0.0,1912844
-0.004,0.053,0.999,0.0,1912848
-0.004,0.053,0.999,-0.122,1912852
-0.004,0.052,0.997,-0.183,1912856
-0.004,0.052,0.997,-0.183,1912860
-0.002,0.052,0.999,-0.061,1912864
-0.002,0.052,0.999,-0.061,1912868
-0.002,0.052,0.999,-0.183,1912872
-0.004,0.053,1.001,-0.183,1912876
-0.004,0.053,1.001,-0.244,1912880
-0.004,0.053,0.999,-0.305,1912884
-0.004,0.053,0.999,-0.305,1912888
-0.004,0.053,0.999,-0.244,1912892
-0.003,0.053,1.0,-0.305,1912896
-0.003,0.053,1.0,-0.427,1912900
-0.005,0.052,0.999,-0.122,1912904
-0.005,0.052,0.999,-0.122,1912908
-0.005,0.052,0.999,0.0,1912912
-0.004,0.052,1.0,-0.183,1912916
-0.004,0.052,1.0,-0.183,1912920
-0.004,0.052,1.0,-0.061,1912924
-0.004,0.052,1.0,-0.061,1912928
-0.004,0.052,1.0,-0.061,1912932
-0.004,0.054,0.997,-0.183,1912936
-0.004,0.054,0.997,-0.183,1912940
-0.003,0.053,1.0,-0.183,1912944
-0.003,0.053,1.0,-0.183,1912948
-0.003,0.053,1.0,-0.183,1912951
-0.003,0.052,0.999,-0.244,1912955
-0.003,0.052,0.999,-0.122,1912959
-0.004,0.053,1.0,-0.122,1912963
-0.004,0.053,1.0,-0.122,1912967
-0.004,0.053,1.0,-0.122,1912971
-0.004,0.052,0.998,-0.122,1912975
-0.004,0.052,0.998,-0.183,1912979
-0.004,0.053,1.0,-0.183,1912983
-0.004,0.053,1.0,-0.183,1912987
-0.004,0.053,1.0,-0.244,1912991
-0.004,0.054,1.0,-0.183,1912995
-0.004,0.054,1.0,-0.122,1912999
-0.003,0.052,1.0,-0.122,1913003
-0.003,0.052,1.0,-0.122,1913007
-0.003,0.052,1.0,-0.244,1913011
-0.003,0.053,1.0,-0.305,1913015
-0.003,0.053,1.0,-0.122,1913019
-0.003,0.053,1.001,-0.122,1913023
-0.003,0.053,1.001,-0.122,1913027
-0.003,0.053,1.001,-0.122,1913031
-0.001,0.051,1.0,-0.183,1913035
-0.001,0.051,1.0,-0.183,1913039
-0.005,0.051,1.0,-0.183,1913043
-0.005,0.051,1.0,-0.183,1913047
-0.005,0.051,1.0,-0.183,1913051
-0.004,0.051,1.0,-0.122,1913055
-0.004,0.051,1.0,0.0,1913059
-0.004,0.052,1.0,-0.183,1913063
-0.004,0.052,1.0,-0.183,1913067
-0.004,0.052,1.0,-0.305,1913070
-0.004,0.052,0.999,-0.183,1913074
-0.004,0.052,0.999,-0.305,1913078
-0.005,0.053,0.998,-0.183,1913082
-0.005,0.053,0.998,-0.183,1913086
-0.005,0.053,0.998,-0.122,1913090
-0.004,0.052,0.999,-0.061,1913094
-0.004,0.052,0.999,-0.183,1913098
-0.004,0.054,0.999,-0.122,1913102
-0.004,0.054,0.999,-0.122,1913106
-0.004,0.054,0.999,-0.244,1913110
-0.004,0.054,0.998,-0.305,1913114
-0.004,0.054,0.998,-0.244,1913118
-0.004,0.053,1.0,-0.122,1913122
-0.004,0.053,1.0,-0.122,1913126
-0.004,0.053,1.0,-0.183,1913130
-0.005,0.054,1.002,-0.183,1913134
-0.005,0.054,1.002,-0.183,1913138
-0.004,0.053,1.0,-0.183,1913142
-0.004,0.053,1.0,-0.183,1913146
-0.004,0.053,1.0,-0.244,1913150
-0.004,0.054,1.0,-0.305,1913154
-0.004,0.054,1.0,-0.305,1913158
-0.004,0.053,0.999,-0.122,1913162
-0.004,0.053,0.999,-0.122,1913166
-0.004,0.053,0.999,-0.183,1913170
-0.005,0.052,0.999,-0.183,1913174
-0.005,0.052,0.999,-0.183,1913178
-0.005,0.053,0.999,-0.244,1913182
-0.005,0.053,0.999,-0.244,1913186
-0.005,0.053,0.999,-0.305,1913190
-0.003,0.052,0.998,-0.122,1913194
-0.003,0.052,0.998,-0.183,1913198
-0.002,0.052,1.0,-0.183,1913202
-0.002,0.052,1.0,-0.183,1913205
-0.002,0.052,1.0,-0.183,1913209
-0.005,0.053,1.0,-0.183,1913213
-0.005,0.053,1.0,-0.366,1913217
-0.004,0.052,0.998,-0.244,1913221
-0.004,0.052,0.998,-0.244,1913225
-0.004,0.052,0.998,-0.183,1913229
-0.002,0.052,1.0,-0.183,1913233
-0.002,0.052,1.0,-0.305,1913237
-0.006,0.053,0.999,-0.305,1913241
-0.006,0.053,0.999,-0.305,1913245
-0.006,0.053,0.999,-0.244,1913249
-0.005,0.053,1.0,-0.305,1913253
-0.005,0.053,1.0,-0.244,1913257
-0.006,0.054,0.999,-0.183,1913261
-0.006,0.054,0.999,-0.183,1913265
-0.006,0.054,0.999,-0.061,1913269
-0.004,0.054,1.0,-0.183,1913273
-0.004,0.054,1.0,-0.183,1913277
-0.004,0.054,0.999,-0.061,1913281
-0.004,0.054,0.999,-0.061,1913285
-0.004,0.054,0.999,-0.183,1913289
-0.004,0.052,0.999,-0.183,1913293
-0.004,0.052,0.999,-0.305,1913297
-0.005,0.053,1.0,-0.305,1913301
-0.005,0.053,1.0,-0.305,1913305
-0.005,0.053,1.0,-0.122,1913309
-0.005,0.053,1.0,0.061,1913313
-0.005,0.053,1.0,-0.183,1913317
-0.004,0.053,1.0,-0.122,1913321
-0.004,0.053,1.0,-0.122,1913325
-0.004,0.053,1.0,-0.122,1913329
-0.003,0.053,0.999,-0.122,1913332
-0.003,0.053,0.999,-0.244,1913336
-0.003,0.053,0.999,-0.122,1913340
-0.003,0.053,0.999,-0.122,1913344
-0.003,0.053,0.999,-0.305,1913348
-0.003,0.051,0.999,-0.183,1913352
-0.003,0.051,0.999,-0.244,1913356
-0.004,0.052,1.0,-0.183,1913360
-0.004,0.052,1.0,-0.183,1913364
-0.004,0.052,1.0,-0.122,1913368
-0.004,0.053,0.999,-0.183,1913372
-0.004,0.053,0.999,-0.122,1913376
-0.004,0.053,0.999,-0.122,1913380
-0.004,0.053,0.999,-0.122,1913384
-0.004,0.053,0.999,-0.183,1913388
-0.003,0.052,1.0,-0.244,1913392
-0.003,0.052,1.0,-0.061,1913396
-0.003,0.051,1.0,-0.122,1913400
-0.003,0.051,1.0,-0.122,1913404
-0.003,0.051,1.0,-0.244,1913408
-0.005,0.052,1.001,-0.122,1913412
-0.005,0.052,1.001,-0.122,1913416
-0.004,0.054,0.999,-0.183,1913420
-0.004,0.054,0.999,-0.183,1913424
-0.004,0.054,0.999,-0.244,1913428
-0.005,0.052,0.998,-0.122,1913432
-0.005,0.052,0.998,-0.122,1913436
-0.003,0.053,0.999,-0.183,1913440
-0.003,0.053,0.999,-0.183,1913444
-0.003,0.053,0.999,-0.183,1913448
-0.003,0.053,1.0,-0.305,1913451
-0.003,0.053,1.0,-0.122,1913455
-0.003,0.052,1.0,-0.183,1913459
-0.003,0.052,1.0,-0.183,1913463
-0.003,0.052,1.0,-0.244,1913467
-0.004,0.051,0.998,-0.305,1913471
-0.004,0.051,0.998,-0.122,1913475
-0.005,0.054,0.998,-0.244,1913479
-0.005,0.054,0.998,-0.244,1913483
-0.005,0.054,0.998,-0.183,1913487
-0.005,0.053,1.001,-0.061,1913491
-0.005,0.053,1.001,-0.305,1913495
-0.002,0.053,0.997,-0.122,1913499
-0.002,0.053,0.997,-0.122,1913503
-0.002,0.053,0.997,-0.183,1913507
-0.003,0.053,0.998,-0.183,1913511
-0.003,0.053,0.998,-0.183,1913515
-0.003,0.052,0.999,-0.244,1913519
-0.003,0.052,0.999,-0.244,1913523
-0.003,0.052,0.999,-0.183,1913527
-0.004,0.052,0.999,-0.122,1913531
-0.004,0.052,0.999,-0.244,1913535
-0.004,0.052,0.997,-0.244,1913539
-0.004,0.052,0.997,-0.244,1913543
-0.004,0.052,0.997,-0.122,1913547
-0.003,0.052,0.999,-0.061,1913551
-0.003,0.052,0.999,-0.244,1913555
-0.004,0.053,1.002,-0.122,1913559
-0.004,0.053,1.002,-0.122,1913563
-0.004,0.053,1.002,-0.244,1913567
-0.005,0.053,1.0,-0.183,1913571
-0.005,0.053,1.0,-0.122,1913575
-0.004,0.052,1.0,-0.122,1913579
-0.004,0.052,1.0,-0.122,1913583
-0.004,0.052,1.0,-0.183,1913586
-0.005,0.052,0.999,-0.305,1913590
-0.005,0.052,0.999,-0.122,1913594
-0.004,0.052,0.999,-0.122,1913598
-0.004,0.052,0.999,-0.122,1913602
-0.004,0.052,0.999,-0.122,1913606
-0.004,0.052,1.001,-0.183,1913610
-0.004,0.052,1.001,-0.122,1913614
-0.003,0.053,0.998,-0.183,1913618
-0.003,0.053,0.998,-0.183,1913622
-0.003,0.053,0.998,-0.183,1913626
-0.004,0.052,0.998,-0.183,1913630
-0.004,0.052,0.998,-0.122,1913634
-0.003,0.052,0.999,-0.183,1913638
-0.003,0.052,0.999,-0.183,1913642
-0.003,0.052,0.999,-0.183,1913646
-0.004,0.054,0.999,-0.305,1913650
-0.004,0.054,0.999,-0.183,1913654
-0.005,0.053,1.0,-0.244,1913658
-0.005,0.053,1.0,-0.244,1913662
-0.005,0.053,1.0,-0.183,1913666
-0.006,0.052,0.998,-0.183,1913670
-0.006,0.052,0.998,-0.122,1913674
-0.004,0.053,1.0,-0.183,1913678
-0.004,0.053,1.0,-0.183,1913682
-0.004,0.053,1.0,-0.305,1913686
-0.004,0.053,0.999,-0.122,1913690
-0.004,0.053,0.999,-0.122,1913694
-0.006,0.053,1.0,-0.305,1913698
-0.006,0.053,1.0,-0.305,1913702
-0.006,0.053,1.0,-0.244,1913706
-0.003,0.053,1.0,-0.183,1913710
-0.003,0.053,1.0,-0.183,1913713
-0.003,0.053,0.998,-0.183,1913717
-0.003,0.053,0.998,-0.183,1913721
-0.003,0.053,0.998,-0.122,1913725
-0.005,0.054,1.001,-0.244,1913729
-0.005,0.054,1.001,-0.244,1913733
-0.004,0.052,1.0,-0.183,1913737
-0.004,0.052,1.0,-0.183,1913741
-0.004,0.052,1.0,-0.061,1913745
-0.004,0.053,0.999,-0.244,1913749
-0.004,0.053,0.999,-0.305,1913753
-0.004,0.053,1.001,-0.183,1913757
-0.004,0.053,1.001,-0.183,1913761
-0.004,0.053,1.001,-0.183,1913765
-0.003,0.052,0.999,-0.244,1913769
-0.003,0.052,0.999,-0.122,1913773
-0.004,0.054,0.999,-0.122,1913777
-0.004,0.054,0.999,-0.122,1913781
-0.004,0.054,0.999,-0.244,1913785
-0.004,0.053,1.0,-0.244,1913789
-0.004,0.053,1.0,-0.244,1913793
-0.003,0.052,1.0,-0.061,1913797
-0.003,0.052,1.0,-0.061,1913801
-0.003,0.052,1.0,-0.122,1913805
-0.003,0.053,0.999,-0.061,1913809
-0.003,0.053,0.999,-0.183,1913813
-0.005,0.054,0.999,-0.183,1913817
-0.005,0.054,0.999,-0.183,1913821
-0.005,0.054,0.999,-0.122,1913825
-0.004,0.052,1.0,-0.061,1913829
-0.004,0.052,1.0,-0.244,1913833
-0.003,0.052,1.0,-0.061,1913837
-0.003,0.052,1.0,-0.061,1913841
-0.003,0.052,1.0,-0.183,1913844
-0.005,0.053,1.0,-0.122,1913848
-0.005,0.053,1.0,-0.183,1913852
-0.004,0.052,0.997,-0.244,1913856
-0.004,0.052,0.997,-0.244,1913860
-0.004,0.052,0.997,-0.244,1913864
-0.005,0.053,1.0,-0.183,1913868
-0.005,0.053,1.0,-0.183,1913872
-0.003,0.054,1.0,-0.244,1913876
-0.003,0.054,1.0,-0.244,1913880
-0.003,0.054,1.0,-0.183,1913884
-0.003,0.052,1.001,-0.122,1913888
-0.003,0.052,1.001,-0.183,1913892
-0.003,0.052,1.0,-0.122,1913896
-0.003,0.052,1.0,-0.122,1913900
-0.003,0.052,1.0,-0.244,1913904
-0.004,0.051,0.998,-0.122,1913908
-0.004,0.051,0.998,-0.183,1913912
-0.003,0.053,0.999,-0.366,1913916
-0.003,0.053,0.999,-0.366,1913920
-0.003,0.053,0.999,-0.244,1913924
-0.004,0.054,1.001,-0.366,1913928
-0.004,0.054,1.001,-0.183,1913932
-0.003,0.054,1.0,-0.122,1913936
-0.003,0.054,1.0,-0.122,1913940
-0.003,0.054,1.0,-0.244,1913944
-0.003,0.053,1.0,-0.183,1913948
-0.003,0.053,1.0,-0.061,1913952
-0.003,0.054,0.998,-0.244,1913956
-0.003,0.054,0.998,-0.244,1913960
-0.003,0.054,0.998,-0.305,1913964
-0.003,0.052,1.0,-0.183,1913968
-0.003,0.052,1.0,-0.122,1913972
-0.003,0.053,1.0,-0.122,1913976
-0.003,0.053,1.0,-0.122,1913979
-0.003,0.053,1.0,-0.305,1913983
-0.003,0.053,0.998,-0.305,1913987
-0.003,0.053,0.998,-0.244,1913991
-0.005,0.053,0.999,-0.366,1913995
-0.005,0.053,0.999,-0.366,1913999
-0.005,0.053,0.999,-0.244,1914003
-0.005,0.053,0.999,-0.244,1914007
-0.005,0.053,0.999,-0.427,1914011
-0.004,0.054,0.998,-0.244,1914015
-0.004,0.054,0.998,-0.244,1914019
-0.004,0.054,0.998,-0.061,1914023
-0.003,0.053,1.0,-0.122,1914027
-0.003,0.053,1.0,-0.183,1914031
-0.004,0.052,0.999,-0.183,1914035
-0.004,0.052,0.999,-0.183,1914039
-0.004,0.052,0.999,-0.183,1914043
-0.004,0.053,0.999,-0.244,1914047
-0.004,0.053,0.999,-0.244,1914051
-0.004,0.052,1.0,-0.366,1914055
-0.004,0.052,1.0,-0.366,1914059
-0.004,0.052,1.0,-0.244,1914063
-0.003,0.052,0.999,-0.244,1914067
-0.003,0.052,0.999,-0.244,1914071
-0.003,0.052,0.998,-0.122,1914075
-0.003,0.052,0.998,-0.122,1914079
-0.003,0.052,0.998,-0.122,1914083
-0.005,0.053,0.999,-0.183,1914087
-0.005,0.053,0.999,-0.244,1914091
-0.005,0.051,1.0,-0.244,1914095
-0.005,0.051,1.0,-0.183,1914099
-0.005,0.051,1.0,-0.183,1914103
-0.003,0.052,0.999,-0.183,1914107
-0.003,0.052,0.999,-0.244,1914110
-0.004,0.052,0.999,-0.305,1914114
-0.004,0.052,0.999,-0.244,1914118
-0.004,0.052,0.999,-0.244,1914122
-0.004,0.053,1.0,-0.183,1914126
-0.004,0.053,1.0,-0.183,1914130
-0.002,0.052,1.001,-0.244,1914134
-0.002,0.052,1.001,-0.244,1914138
-0.002,0.052,1.001,-0.244,1914142
-0.002,0.054,1.0,-0.183,1914146
-0.002,0.054,1.0,-0.122,1914150
-0.004,0.054,0.999,-0.183,1914154
-0.004,0.054,0.999,-0.183,1914158
-0.004,0.054,0.999,-0.183,1914162
-0.004,0.053,0.999,-0.061,1914166
-0.004,0.053,0.999,-0.183,1914170
-0.004,0.054,0.998,-0.244,1914174
-0.004,0.054,0.998,-0.122,1914178
-0.004,0.054,0.998,-0.122,1914182
-0.004,0.055,1.0,-0.122,1914186
-0.004,0.055,1.0,-0.244,1914190
-0.003,0.053,1.0,-0.244,1914194
-0.003,0.053,1.0,-0.183,1914198
-0.003,0.053,1.0,-0.183,1914202
-0.004,0.052,1.0,-0.305,1914206
-0.004,0.052,1.0,-0.305,1914210
-0.005,0.053,1.0,-0.183,1914214
-0.005,0.053,1.0,-0.366,1914218
-0.005,0.053,1.0,-0.366,1914222
-0.006,0.054,0.999,-0.244,1914226
-0.006,0.054,0.999,-0.183,1914230
-0.006,0.052,0.998,-0.244,1914234
-0.006,0.052,0.998,-0.183,1914238
-0.006,0.052,0.998,-0.183,1914242
-0.002,0.052,1.001,-0.244,1914246
-0.002,0.052,1.001,-0.183,1914249
-0.004,0.052,1.0,-0.183,1914253
-0.004,0.052,1.0,-0.122,1914257
-0.004,0.052,1.0,-0.122,1914261
-0.005,0.053,1.0,-0.183,1914265
-0.005,0.053,1.0,-0.122,1914269
-0.005,0.052,1.0,-0.244,1914273
-0.005,0.052,1.0,-0.305,1914277
-0.005,0.052,1.0,-0.305,1914281
-0.004,0.052,1.001,-0.183,1914285
-0.004,0.052,1.001,-0.183,1914289
-0.004,0.053,0.999,-0.244,1914293
-0.004,0.053,0.999,-0.122,1914297
-0.004,0.053,0.999,-0.122,1914301
-0.003,0.052,0.999,-0.061,1914305
-0.003,0.052,0.999,-0.183,1914309
-0.003,0.052,0.999,-0.244,1914313
-0.003,0.052,0.999,-0.244,1914317
-0.003,0.052,0.999,-0.244,1914321
-0.004,0.053,0.998,-0.183,1914325
-0.004,0.053,0.998,-0.122,1914329
-0.003,0.052,1.0,-0.244,1914333
-0.003,0.052,1.0,-0.122,1914337
-0.003,0.052,1.0,-0.122,1914341
-0.002,0.053,1.0,-0.122,1914345
-0.002,0.053,1.0,-0.366,1914349
-0.003,0.052,0.997,-0.305,1914353
-0.003,0.052,0.997,-0.244,1914357
-0.003,0.052,0.997,-0.244,1914361
-0.005,0.054,0.999,-0.305,1914365
-0.005,0.054,0.999,-0.244,1914369
-0.003,0.055,0.999,-0.183,1914373
-0.003,0.055,0.999,-0.183,1914377
-0.003,0.055,0.999,-0.183,1914380
-0.005,0.055,0.998,-0.122,1914384
-0.005,0.055,0.998,-0.244,1914388
-0.005,0.053,1.0,-0.244,1914392
-0.005,0.053,1.0,-0.122,1914396
-0.005,0.053,1.0,-0.122,1914400
-0.005,0.051,1.0,-0.061,1914404
-0.005,0.051,1.0,-0.244,1914408
-0.005,0.052,0.999,-0.244,1914412
-0.005,0.052,0.999,-0.122,1914416
-0.005,0.052,0.999,-0.122,1914420
-0.004,0.053,1.0,-0.244,1914424
-0.004,0.053,1.0,-0.061,1914428
-0.005,0.051,0.998,-0.122,1914432
-0.005,0.051,0.998,0.0,1914436
-0.005,0.051,0.998,0.0,1914440
-0.003,0.052,0.999,-0.122,1914444
-0.003,0.052,0.999,-0.305,1914448
-0.004,0.053,1.0,-0.183,1914452
-0.004,0.053,1.0,-0.244,1914456
-0.004,0.053,1.0,-0.244,1914460
-0.004,0.052,0.999,-0.244,1914464
-0.004,0.052,0.999,-0.305,1914468
-0.005,0.052,0.998,-0.183,1914472
-0.005,0.052,0.998,-0.305,1914476
-0.005,0.052,0.998,-0.305,1914480
-0.004,0.053,1.0,-0.244,1914484
-0.004,0.053,1.0,-0.305,1914488
-0.003,0.053,1.0,-0.183,1914491
-0.003,0.053,1.0,-0.183,1914495
-0.003,0.053,1.0,-0.183,1914499
-0.005,0.052,1.0,-0.183,1914503
-0.005,0.052,1.0,-0.061,1914507
-0.004,0.054,0.998,0.0,1914511
-0.004,0.054,0.998,-0.122,1914515
-0.004,0.054,0.998,-0.122,1914519
-0.003,0.054,0.999,-0.183,1914523
-0.003,0.054,0.999,-0.183,1914527
-0.004,0.051,1.0,-0.305,1914531
-0.004,0.051,1.0,-0.366,1914535
-0.004,0.051,1.0,-0.366,1914539
-0.005,0.052,0.999,-0.122,1914543
-0.005,0.052,0.999,0.0,1914547
-0.004,0.055,1.0,-0.061,1914551
-0.004,0.055,1.0,0.0,1914555
-0.004,0.055,1.0,0.0,1914559
-0.004,0.054,1.0,-0.061,1914563
-0.004,0.054,1.0,-0.244,1914567
-0.004,0.053,0.999,-0.305,1914571
-0.004,0.053,0.999,-0.305,1914575
-0.004,0.053,0.999,-0.305,1914579
-0.004,0.054,1.0,-0.183,1914583
-0.004,0.054,1.0,-0.244,1914587
-0.003,0.052,1.001,-0.122,1914590
-0.003,0.052,1.001,-0.122,1914594
-0.003,0.052,1.001,-0.122,1914598
-0.005,0.052,1.0,-0.244,1914602
-0.005,0.052,1.0,-0.183,1914606
-0.004,0.051,1.001,-0.183,1914610
-0.004,0.051,1.001,-0.183,1914614
-0.004,0.051,1.001,-0.244,1914618
-0.002,0.053,0.999,-0.305,1914622
-0.002,0.053,0.999,-0.305,1914626
-0.004,0.053,0.998,-0.244,1914630
-0.004,0.053,0.998,-0.244,1914634
-0.004,0.053,0.998,0.0,1914638
-0.006,0.053,1.0,-0.061,1914642
-0.006,0.053,1.0,-0.122,1914646
-0.004,0.052,1.0,-0.183,1914650
-0.004,0.052,1.0,-0.183,1914654
-0.004,0.052,1.0,-0.183,1914658
-0.004,0.054,0.999,-0.122,1914662
-0.004,0.054,0.999,-0.183,1914666
-0.004,0.053,0.999,-0.183,1914670
-0.003,0.053,0.999,-0.122,1915130
-0.003,0.053,0.999,-0.122,1915134
-0.004,0.053,0.999,-0.305,1915138
-0.004,0.053,0.999,-0.183,1915142
-0.004,0.052,0.996,-0.305,1915146
-0.004,0.052,0.996,-0.305,1915150
-0.004,0.052,0.996,-0.305,1915154
-0.004,0.052,0.998,-0.183,1915158
-0.004,0.052,0.998,-0.305,1915162
-0.006,0.053,1.0,-0.244,1915166
-0.006,0.053,1.0,-0.183,1915170
-0.006,0.053,1.0,-0.183,1915174
-0.006,0.053,0.997,-0.244,1915178
-0.006,0.053,0.997,-0.183,1915182
-0.005,0.053,0.998,-0.244,1915186
-0.005,0.053,0.998,-0.122,1915190
-0.005,0.053,0.998,-0.122,1915194
-0.005,0.053,0.999,-0.061,1915198
-0.005,0.053,0.999,-0.244,1915202
-0.004,0.051,0.998,-0.244,1915206
-0.004,0.051,0.998,-0.122,1915210
-0.004,0.051,0.998,-0.122,1915214
-0.007,0.052,0.999,-0.244,1915218
-0.007,0.052,0.999,-0.122,1915222
-0.004,0.053,0.999,-0.305,1915226
-0.004,0.053,0.999,-0.305,1915230
-0.004,0.053,0.999,-0.305,1915234
-0.005,0.053,1.0,-0.305,1915238
-0.005,0.053,1.0,-0.183,1915242
-0.005,0.053,1.001,-0.061,1915246
-0.005,0.053,1.001,-0.122,1915250
-0.005,0.053,1.001,-0.122,1915253
-0.005,0.053,0.998,-0.305,1915257
-0.005,0.053,0.998,-0.244,1915261
-0.003,0.052,0.998,-0.183,1915265
-0.003,0.052,0.998,-0.244,1915269
