Acc_X,Acc_Y,Acc_Z,Rot_Z,Millis
-0.006,0.237,0.967,-0.244,2501137
-0.006,0.237,0.967,-0.244,2501141
-0.006,0.237,0.967,-0.244,2501145
-0.006,0.237,0.968,-0.183,2501149
-0.006,0.237,0.968,-0.244,2501153
-0.006,0.239,0.969,-0.183,2501157
-0.006,0.239,0.969,-0.183,2501161
-0.006,0.239,0.969,-0.183,2501165
-0.006,0.237,0.968,-0.244,2501169
-0.006,0.237,0.968,-0.122,2501173
-0.005,0.237,0.968,-0.183,2501177
-0.005,0.237,0.968,-0.183,2501181
-0.005,0.237,0.968,-0.183,2501185
-0.005,0.239,0.968,-0.122,2501189
-0.005,0.239,0.968,-0.183,2501193
-0.006,0.238,0.968,-0.244,2501196
-0.006,0.238,0.968,-0.244,2501200
-0.006,0.238,0.968,-0.244,2501204
-0.006,0.239,0.968,-0.183,2501208
-0.006,0.239,0.968,-0.305,2501212
-0.006,0.238,0.968,-0.244,2501216
-0.006,0.238,0.968,-0.244,2501220
-0.006,0.238,0.968,-0.122,2501224
-0.006,0.238,0.968,-0.183,2501228
-0.006,0.238,0.968,-0.244,2501232
-0.007,0.238,0.967,-0.244,2501236
-0.007,0.238,0.967,-0.244,2501240
-0.007,0.238,0.967,-0.183,2501244
-0.005,0.238,0.967,-0.183,2501248
-0.005,0.238,0.967,-0.122,2501252
-0.006,0.237,0.968,-0.183,2501256
-0.006,0.237,0.968,-0.122,2501260
-0.006,0.237,0.968,-0.122,2501264
-0.006,0.239,0.968,-0.305,2501268
-0.006,0.239,0.968,-0.122,2501272
-0.006,0.238,0.969,-0.122,2501276
-0.006,0.238,0.969,-0.305,2501280
-0.006,0.238,0.969,-0.305,2501284
-0.004,0.237,0.967,-0.305,2501288
-0.004,0.237,0.967,-0.183,2501292
-0.005,0.239,0.968,-0.305,2501296
-0.005,0.239,0.968,-0.305,2501300
-0.005,0.239,0.968,-0.244,2501304
-0.007,0.237,0.969,-0.183,2501308
-0.007,0.237,0.969,-0.244,2501312
-0.007,0.238,0.968,-0.183,2501316
-0.007,0.238,0.968,-0.244,2501320
-0.007,0.238,0.968,-0.244,2501324
-0.005,0.24,0.968,-0.183,2501328
-0.005,0.24,0.968,-0.183,2501332
-0.005,0.239,0.968,-0.122,2501336
-0.005,0.239,0.968,-0.244,2501340
-0.005,0.239,0.968,-0.244,2501344
-0.004,0.239,0.968,-0.183,2501347
-0.004,0.239,0.968,-0.183,2501351
-0.005,0.237,0.968,-0.244,2501355
-0.005,0.237,0.968,-0.183,2501359
-0.005,0.237,0.968,-0.183,2501363
-0.006,0.239,0.967,-0.183,2501367
-0.006,0.239,0.967,-0.183,2501371
-0.007,0.239,0.968,-0.244,2501375
-0.007,0.239,0.968,-0.183,2501379
-0.007,0.239,0.968,-0.183,2501383
-0.007,0.237,0.967,-0.122,2501387
-0.007,0.237,0.967,-0.244,2501391
-0.005,0.237,0.967,-0.183,2501395
-0.005,0.237,0.967,-0.244,2501399
-0.005,0.237,0.967,-0.244,2501403
-0.006,0.237,0.968,-0.305,2501407
-0.006,0.237,0.968,-0.244,2501411
-0.006,0.237,0.969,-0.305,2501415
-0.006,0.237,0.969,-0.244,2501419
-0.006,0.237,0.969,-0.244,2501423
-0.006,0.238,0.968,-0.183,2501427
-0.006,0.238,0.968,-0.122,2501431
-0.006,0.237,0.967,-0.183,2501435
-0.006,0.237,0.967,-0.183,2501439
-0.006,0.237,0.967,-0.183,2501443
-0.006,0.236,0.967,-0.183,2501447
-0.006,0.236,0.967,-0.122,2501451
-0.004,0.238,0.968,-0.244,2501455
-0.004,0.238,0.968,-0.122,2501459
-0.004,0.238,0.968,-0.122,2501463
-0.006,0.238,0.969,-0.183,2501467
-0.006,0.238,0.969,-0.244,2501471
-0.007,0.237,0.968,-0.244,2501475
-0.007,0.237,0.968,-0.244,2501479
-0.007,0.237,0.968,-0.244,2501483
-0.005,0.238,0.968,-0.183,2501487
-0.005,0.238,0.968,-0.122,2501491
-0.005,0.238,0.969,-0.183,2501495
-0.005,0.238,0.969,-0.122,2501499
-0.005,0.238,0.969,-0.122,2501503
-0.005,0.238,0.968,-0.122,2501507
-0.005,0.238,0.968,-0.183,2501511
-0.005,0.238,0.966,-0.183,2501515
-0.005,0.238,0.966,-0.183,2501518
-0.005,0.238,0.966,-0.183,2501522
-0.006,0.239,0.968,-0.244,2501526
-0.006,0.239,0.968,-0.366,2501530
-0.003,0.238,0.968,-0.305,2501534
-0.003,0.238,0.968,-0.122,2501538
-0.003,0.238,0.968,-0.122,2501542
-0.006,0.236,0.968,-0.122,2501546
-0.006,0.236,0.968,-0.244,2501550
-0.006,0.238,0.968,-0.183,2501554
-0.006,0.238,0.968,0.061,2501558
-0.006,0.238,0.968,0.061,2501562
-0.006,0.238,0.968,-0.183,2501566
-0.006,0.238,0.968,-0.183,2501570
-0.005,0.238,0.968,-0.122,2501574
-0.005,0.238,0.968,-0.183,2501578
-0.005,0.238,0.968,-0.183,2501582
-0.006,0.238,0.97,-0.244,2501586
-0.006,0.238,0.97,-0.244,2501590
-0.006,0.237,0.969,-0.122,2501594
-0.006,0.237,0.969,-0.183,2501598
-0.006,0.237,0.969,-0.183,2501602
-0.005,0.236,0.967,-0.122,2501606
-0.005,0.236,0.967,-0.244,2501610
-0.005,0.237,0.968,-0.244,2501614
-0.005,0.237,0.968,-0.122,2501618
-0.005,0.237,0.968,-0.122,2501622
-0.005,0.239,0.969,-0.244,2501626
-0.005,0.239,0.969,-0.183,2501630
-0.007,0.238,0.968,-0.183,2501634
-0.007,0.238,0.968,-0.305,2501638
-0.007,0.238,0.968,-0.305,2501642
-0.008,0.237,0.967,-0.061,2501646
-0.008,0.237,0.967,-0.183,2501650
-0.008,0.237,0.968,-0.244,2501654
-0.008,0.237,0.968,-0.183,2501658
-0.008,0.237,0.968,-0.183,2501662
-0.006,0.237,0.968,-0.122,2501665
-0.006,0.237,0.968,-0.305,2501669
-0.006,0.237,0.966,-0.244,2501673
-0.006,0.237,0.966,-0.122,2501677
-0.006,0.237,0.966,-0.122,2501681
-0.006,0.237,0.967,-0.244,2501685
-0.006,0.237,0.967,-0.183,2501689
-0.006,0.236,0.969,-0.244,2501693
-0.006,0.236,0.969,-0.244,2501697
-0.006,0.236,0.969,-0.244,2501701
-0.007,0.239,0.969,-0.183,2501705
-0.007,0.239,0.969,-0.122,2501709
-0.006,0.24,0.967,-0.244,2501713
-0.006,0.24,0.967,-0.183,2501717
-0.006,0.24,0.967,-0.183,2501721
-0.004,0.239,0.966,-0.183,2501725
-0.004,0.239,0.966,0.0,2501729
-0.006,0.238,0.967,-0.061,2501733
-0.006,0.238,0.967,-0.061,2501737
-0.006,0.238,0.967,-0.061,2501741
-0.005,0.239,0.969,-0.183,2501745
-0.005,0.239,0.969,-0.244,2501749
-0.004,0.238,0.968,-0.244,2501753
-0.004,0.238,0.968,-0.061,2501757
-0.004,0.238,0.968,-0.061,2501761
-0.007,0.238,0.967,-0.183,2501765
-0.007,0.238,0.967,-0.183,2501769
-0.005,0.237,0.969,-0.244,2501773
-0.005,0.237,0.969,-0.244,2501777
-0.005,0.237,0.969,-0.244,2501781
-0.004,0.238,0.969,-0.183,2501785
-0.004,0.238,0.969,-0.244,2501789
-0.005,0.239,0.968,-0.244,2501793
-0.005,0.239,0.968,-0.244,2501797
-0.005,0.239,0.968,-0.244,2501801
-0.005,0.236,0.967,-0.061,2501804
-0.005,0.236,0.967,-0.122,2501808
-0.006,0.236,0.968,-0.183,2501812
-0.006,0.236,0.968,-0.305,2501816
-0.006,0.236,0.968,-0.305,2501820
-0.007,0.237,0.969,-0.244,2501824
-0.007,0.237,0.969,-0.183,2501828
-0.006,0.238,0.969,-0.122,2501832
-0.006,0.238,0.969,-0.183,2501836
-0.006,0.238,0.969,-0.183,2501840
-0.006,0.237,0.967,-0.244,2501844
-0.006,0.237,0.967,-0.244,2501848
-0.006,0.237,0.968,-0.183,2501852
-0.006,0.237,0.968,-0.122,2501856
-0.006,0.237,0.968,-0.122,2501860
-0.006,0.237,0.968,-0.183,2501864
-0.006,0.237,0.968,-0.244,2501868
-0.006,0.237,0.967,-0.183,2501872
-0.006,0.237,0.967,-0.183,2501876
-0.006,0.237,0.967,-0.183,2501880
-0.007,0.238,0.97,-0.244,2501884
-0.007,0.238,0.97,-0.244,2501888
-0.006,0.239,0.967,-0.244,2501892
-0.006,0.239,0.967,-0.244,2501896
-0.006,0.238,0.967,-0.183,2501900
-0.006,0.238,0.967,-0.183,2501904
-0.006,0.238,0.967,-0.183,2501908
-0.005,0.238,0.968,-0.183,2501912
-0.005,0.238,0.968,-0.183,2501916
-0.005,0.239,0.969,-0.183,2501920
-0.005,0.239,0.969,-0.183,2501924
-0.005,0.239,0.969,-0.122,2501928
-0.004,0.238,0.968,-0.244,2501932
-0.004,0.238,0.968,-0.244,2501936
-0.005,0.238,0.966,-0.122,2501940
-0.005,0.238,0.966,-0.122,2501944
-0.005,0.238,0.966,-0.244,2501948
-0.005,0.239,0.967,-0.244,2501952
-0.005,0.239,0.967,-0.244,2501956
-0.006,0.239,0.967,-0.244,2501960
-0.006,0.239,0.967,-0.244,2501964
-0.006,0.239,0.967,-0.244,2501968
-0.006,0.24,0.966,-0.122,2501972
-0.006,0.24,0.966,-0.122,2501976
-0.006,0.238,0.967,-0.305,2501979
-0.006,0.238,0.967,-0.305,2501983
-0.006,0.238,0.967,-0.244,2501987
-0.006,0.237,0.968,0.0,2501991
-0.006,0.237,0.968,-0.183,2501995
-0.005,0.237,0.967,-0.122,2501999
-0.005,0.237,0.967,-0.122,2502003
-0.005,0.237,0.967,-0.122,2502007
-0.008,0.237,0.968,-0.122,2502011
-0.008,0.237,0.968,-0.244,2502015
-0.005,0.237,0.968,-0.183,2502019
-0.005,0.237,0.968,-0.183,2502023
-0.005,0.237,0.968,-0.122,2502027
-0.005,0.236,0.968,-0.244,2502031
-0.005,0.236,0.968,-0.244,2502035
-0.006,0.237,0.967,-0.183,2502039
-0.006,0.237,0.967,-0.183,2502043
-0.006,0.237,0.967,-0.183,2502047
-0.006,0.237,0.968,-0.183,2502051
-0.006,0.237,0.968,-0.183,2502055
-0.007,0.237,0.969,-0.183,2502059
-0.007,0.237,0.969,-0.183,2502063
-0.007,0.237,0.969,-0.183,2502067
-0.005,0.237,0.969,-0.366,2502071
-0.005,0.237,0.969,-0.366,2502075
-0.004,0.238,0.968,-0.183,2502079
-0.004,0.238,0.968,-0.183,2502083
-0.004,0.238,0.968,-0.122,2502087
-0.007,0.238,0.969,-0.244,2502091
-0.007,0.238,0.969,-0.244,2502095
-0.005,0.237,0.968,-0.244,2502099
-0.005,0.237,0.968,-0.244,2502103
-0.005,0.237,0.968,-0.244,2502107
-0.006,0.237,0.969,-0.122,2502111
-0.006,0.237,0.969,-0.183,2502115
-0.006,0.237,0.969,-0.244,2502119
-0.006,0.237,0.969,-0.244,2502123
-0.006,0.237,0.969,-0.183,2502126
-0.004,0.237,0.968,-0.122,2502130
-0.004,0.237,0.968,-0.061,2502134
-0.004,0.237,0.968,-0.122,2502138
-0.004,0.237,0.968,-0.122,2502142
-0.004,0.237,0.968,-0.244,2502146
-0.005,0.239,0.967,0.061,2502150
-0.005,0.239,0.967,-0.183,2502154
-0.006,0.237,0.969,-0.244,2502158
-0.006,0.237,0.969,-0.244,2502162
-0.006,0.237,0.969,-0.427,2502166
-0.005,0.238,0.967,-0.305,2502170
-0.005,0.238,0.967,-0.122,2502174
-0.004,0.239,0.968,-0.122,2502178
-0.004,0.239,0.968,-0.122,2502182
-0.004,0.239,0.968,-0.183,2502186
-0.005,0.239,0.967,-0.183,2502190
-0.005,0.239,0.967,-0.183,2502194
-0.007,0.238,0.969,-0.244,2502198
-0.007,0.238,0.969,-0.244,2502202
-0.007,0.238,0.969,-0.183,2502206
-0.006,0.236,0.967,-0.183,2502210
-0.006,0.236,0.967,-0.122,2502214
-0.007,0.238,0.968,-0.183,2502218
-0.007,0.238,0.968,-0.183,2502222
-0.007,0.238,0.968,-0.305,2502226
-0.007,0.237,0.967,-0.244,2502230
-0.007,0.237,0.967,0.0,2502234
-0.007,0.238,0.967,0.0,2502238
-0.007,0.238,0.967,0.0,2502241
-0.007,0.238,0.967,-0.122,2502245
-0.005,0.237,0.969,-0.183,2502249
-0.005,0.237,0.969,-0.305,2502253
-0.005,0.236,0.968,-0.244,2502257
-0.005,0.236,0.968,-0.244,2502261
-0.005,0.236,0.968,-0.305,2502265
-0.006,0.237,0.966,-0.305,2502269
-0.006,0.237,0.966,-0.244,2502273
-0.007,0.238,0.967,-0.183,2502277
-0.007,0.238,0.967,-0.183,2502281
-0.007,0.238,0.967,-0.183,2502285
-0.008,0.238,0.968,-0.061,2502289
-0.008,0.238,0.968,-0.183,2502293
-0.007,0.24,0.967,-0.122,2502297
-0.007,0.24,0.967,-0.122,2502301
-0.007,0.24,0.967,-0.122,2502305
-0.006,0.238,0.967,-0.122,2502309
-0.006,0.238,0.967,-0.183,2502313
-0.005,0.239,0.967,-0.183,2502317
-0.005,0.239,0.967,-0.183,2502321
-0.005,0.239,0.967,-0.122,2502325
-0.004,0.238,0.968,-0.183,2502329
-0.004,0.238,0.968,-0.122,2502333
-0.005,0.237,0.968,-0.183,2502337
-0.005,0.237,0.968,-0.183,2502341
-0.005,0.237,0.968,-0.183,2502345
-0.004,0.237,0.968,-0.183,2502349
-0.004,0.237,0.968,-0.244,2502353
-0.004,0.239,0.97,-0.244,2502357
-0.004,0.239,0.97,-0.244,2502361
-0.004,0.239,0.97,-0.244,2502365
-0.006,0.238,0.967,-0.244,2502369
-0.006,0.238,0.967,-0.183,2502373
-0.006,0.237,0.967,-0.183,2502377
-0.006,0.237,0.967,-0.183,2502381
-0.006,0.237,0.967,-0.183,2502385
-0.007,0.237,0.968,-0.305,2502389
-0.007,0.237,0.968,0.0,2502392
-0.006,0.238,0.969,-0.183,2502396
-0.006,0.238,0.969,-0.183,2502400
-0.006,0.238,0.969,-0.122,2502404
-0.005,0.238,0.969,-0.122,2502408
-0.005,0.238,0.969,-0.122,2502412
-0.004,0.238,0.969,-0.244,2502416
-0.004,0.238,0.969,-0.244,2502420
-0.004,0.238,0.969,-0.244,2502424
-0.006,0.24,0.969,-0.183,2502428
-0.006,0.24,0.969,-0.183,2502432
-0.006,0.238,0.967,-0.122,2502436
-0.006,0.238,0.967,-0.122,2502440
-0.006,0.238,0.967,-0.183,2502444
-0.005,0.237,0.966,-0.183,2502448
-0.005,0.237,0.966,-0.122,2502452
-0.004,0.237,0.968,-0.183,2502456
-0.004,0.237,0.968,-0.183,2502460
-0.004,0.237,0.968,-0.122,2502464
-0.007,0.239,0.969,-0.061,2502468
-0.007,0.239,0.969,-0.183,2502472
-0.006,0.239,0.968,-0.305,2502476
-0.006,0.239,0.968,-0.305,2502480
-0.006,0.239,0.968,-0.305,2502484
-0.005,0.238,0.968,-0.305,2502488
-0.005,0.238,0.968,-0.366,2502492
-0.006,0.238,0.97,-0.244,2502496
-0.006,0.238,0.97,-0.244,2502500
-0.006,0.238,0.97,-0.183,2502504
-0.005,0.238,0.968,-0.122,2502508
-0.005,0.238,0.968,-0.183,2502512
-0.005,0.239,0.968,-0.244,2502516
-0.005,0.239,0.968,-0.244,2502520
-0.005,0.239,0.968,-0.366,2502524
-0.006,0.237,0.969,-0.244,2502528
-0.006,0.237,0.969,-0.183,2502532
-0.007,0.237,0.968,-0.244,2502535
-0.007,0.237,0.968,-0.244,2502539
-0.007,0.237,0.968,-0.122,2502543
-0.006,0.238,0.971,-0.061,2502547
-0.006,0.238,0.971,-0.122,2502551
-0.006,0.24,0.968,-0.183,2502555
-0.006,0.24,0.968,-0.183,2502559
-0.006,0.24,0.968,-0.183,2502563
-0.007,0.237,0.966,-0.305,2502567
-0.007,0.237,0.966,-0.183,2502571
-0.006,0.237,0.967,-0.183,2502575
-0.006,0.237,0.967,-0.183,2502579
-0.006,0.237,0.967,-0.061,2502583
-0.006,0.237,0.968,-0.183,2502587
-0.006,0.237,0.968,0.0,2502591
-0.007,0.239,0.967,-0.122,2502595
-0.007,0.239,0.967,-0.122,2502599
-0.007,0.239,0.967,-0.427,2502603
-0.004,0.24,0.967,-0.305,2502607
-0.004,0.24,0.967,-0.183,2502611
-0.006,0.238,0.968,-0.183,2502615
-0.006,0.238,0.968,-0.183,2502619
-0.006,0.238,0.968,-0.183,2502623
-0.006,0.238,0.968,-0.122,2502627
-0.006,0.238,0.968,-0.183,2502631
-0.005,0.236,0.967,-0.244,2502635
-0.005,0.236,0.967,-0.244,2502639
-0.005,0.236,0.967,-0.122,2502643
-0.006,0.238,0.969,-0.244,2502647
-0.006,0.238,0.969,-0.244,2502651
-0.004,0.238,0.967,-0.183,2502655
-0.004,0.238,0.967,-0.183,2502659
-0.004,0.238,0.967,-0.122,2502663
-0.005,0.236,0.969,-0.061,2502667
-0.005,0.236,0.969,-0.244,2502671
-0.005,0.238,0.969,-0.183,2502675
-0.005,0.238,0.969,-0.183,2502678
-0.005,0.238,0.969,-0.305,2502682
-0.005,0.238,0.97,-0.183,2502686
-0.005,0.238,0.97,-0.244,2502690
-0.004,0.238,0.968,-0.244,2502694
-0.004,0.238,0.968,-0.244,2502698
-0.004,0.238,0.968,-0.244,2502702
-0.005,0.24,0.967,-0.122,2502706
-0.005,0.24,0.967,-0.183,2502710
-0.004,0.238,0.968,-0.183,2502714
-0.004,0.238,0.968,-0.183,2502718
-0.004,0.238,0.968,-0.061,2502722
-0.007,0.238,0.969,-0.183,2502726
-0.007,0.238,0.969,-0.183,2502730
-0.006,0.237,0.967,-0.244,2502734
-0.006,0.237,0.967,-0.244,2502738
-0.006,0.237,0.967,-0.244,2502742
-0.005,0.239,0.967,-0.183,2502746
-0.005,0.239,0.967,-0.305,2502750
-0.005,0.238,0.968,-0.244,2502754
-0.005,0.238,0.968,-0.244,2502758
-0.005,0.238,0.968,-0.244,2502762
-0.007,0.238,0.968,-0.305,2502766
-0.007,0.238,0.968,-0.183,2502770
-0.005,0.237,0.967,-0.183,2502774
-0.005,0.237,0.967,-0.244,2502778
-0.005,0.237,0.967,-0.244,2502782
-0.005,0.238,0.969,-0.183,2502786
-0.005,0.238,0.969,-0.305,2502790
-0.006,0.239,0.968,-0.244,2502794
-0.006,0.239,0.968,-0.183,2502798
-0.006,0.239,0.968,-0.183,2502802
-0.006,0.238,0.968,-0.244,2502806
-0.006,0.238,0.968,-0.244,2502810
-0.006,0.238,0.967,-0.122,2502814
-0.006,0.238,0.967,-0.183,2502818
-0.006,0.238,0.967,-0.183,2502822
-0.005,0.238,0.968,-0.183,2502825
-0.005,0.238,0.968,-0.183,2502829
-0.005,0.237,0.969,-0.061,2502833
-0.005,0.237,0.969,-0.244,2502837
-0.005,0.237,0.969,-0.244,2502841
-0.007,0.237,0.969,-0.305,2502845
-0.007,0.237,0.969,-0.183,2502849
-0.006,0.239,0.966,-0.122,2502853
-0.006,0.239,0.966,-0.183,2502857
-0.006,0.239,0.966,-0.183,2502861
-0.005,0.239,0.969,-0.183,2502865
-0.005,0.239,0.969,-0.061,2502869
-0.006,0.237,0.969,-0.244,2502873
-0.006,0.237,0.969,-0.305,2502877
-0.006,0.237,0.969,-0.305,2502881
-0.005,0.237,0.968,-0.183,2502885
-0.005,0.237,0.968,-0.244,2502889
-0.006,0.237,0.967,-0.183,2502893
-0.006,0.237,0.967,0.0,2502897
-0.006,0.237,0.967,0.0,2502901
-0.003,0.238,0.968,-0.122,2502905
-0.003,0.238,0.968,-0.122,2502909
-0.005,0.238,0.967,-0.061,2502913
-0.005,0.238,0.967,-0.183,2502917
-0.005,0.238,0.967,-0.183,2502921
-0.006,0.238,0.967,-0.244,2502925
-0.006,0.238,0.967,-0.183,2502929
-0.003,0.237,0.968,-0.244,2502933
-0.003,0.237,0.968,-0.305,2502937
-0.003,0.237,0.968,-0.305,2502941
-0.004,0.237,0.969,-0.244,2502945
-0.004,0.237,0.969,-0.122,2502949
-0.007,0.238,0.969,-0.183,2502953
-0.007,0.238,0.969,-0.244,2502957
-0.007,0.238,0.969,-0.244,2502961
-0.005,0.239,0.968,-0.244,2502964
-0.005,0.239,0.968,-0.183,2502968
-0.005,0.237,0.967,-0.183,2502972
-0.005,0.237,0.967,-0.183,2502976
-0.005,0.237,0.967,-0.183,2502980
-0.005,0.237,0.968,-0.183,2502984
-0.005,0.237,0.968,-0.244,2502988
-0.005,0.237,0.967,-0.183,2502992
-0.005,0.237,0.967,-0.183,2502996
-0.005,0.237,0.967,-0.183,2503000
-0.006,0.237,0.968,-0.183,2503004
-0.006,0.237,0.968,-0.244,2503008
-0.007,0.236,0.968,-0.244,2503012
-0.007,0.236,0.968,-0.183,2503016
-0.007,0.236,0.968,-0.183,2503020
-0.006,0.238,0.969,-0.122,2503024
-0.006,0.238,0.969,-0.183,2503028
-0.006,0.238,0.968,-0.244,2503032
-0.006,0.238,0.968,-0.122,2503036
-0.006,0.238,0.968,-0.122,2503040
-0.005,0.237,0.968,0.061,2503044
-0.005,0.237,0.968,-0.183,2503048
-0.005,0.238,0.967,-0.366,2503052
-0.005,0.238,0.967,-0.305,2503056
-0.005,0.238,0.967,-0.305,2503060
-0.006,0.238,0.967,-0.183,2503064
-0.006,0.238,0.967,-0.061,2503068
-0.007,0.238,0.967,-0.244,2503072
-0.007,0.238,0.967,-0.244,2503076
-0.007,0.238,0.967,-0.244,2503080
-0.007,0.238,0.967,-0.305,2503084
-0.007,0.238,0.967,-0.305,2503088
-0.004,0.238,0.968,-0.183,2503092
-0.004,0.238,0.968,-0.183,2503096
-0.004,0.238,0.968,-0.183,2503100
-0.006,0.239,0.967,-0.122,2503104
-0.006,0.239,0.967,0.122,2503108
-0.006,0.238,0.968,-0.183,2503112
-0.006,0.238,0.968,-0.244,2503116
-0.006,0.238,0.968,-0.244,2503120
-0.006,0.238,0.968,-0.244,2503123
-0.006,0.238,0.968,-0.183,2503127
-0.006,0.238,0.967,-0.061,2503131
-0.006,0.238,0.967,-0.183,2503135
-0.006,0.238,0.967,-0.183,2503139
-0.007,0.239,0.968,-0.183,2503143
-0.007,0.239,0.968,-0.183,2503147
-0.005,0.239,0.968,-0.244,2503151
-0.005,0.239,0.968,-0.244,2503155
-0.005,0.239,0.968,-0.244,2503159
-0.005,0.238,0.966,-0.183,2503163
-0.005,0.238,0.966,-0.122,2503167
-0.005,0.238,0.967,-0.305,2503171
-0.005,0.238,0.967,-0.305,2503175
-0.005,0.238,0.967,-0.305,2503179
-0.007,0.237,0.969,-0.122,2503183
-0.007,0.237,0.969,-0.061,2503187
-0.007,0.238,0.967,-0.122,2503191
-0.007,0.238,0.967,-0.183,2503195
-0.007,0.238,0.967,-0.183,2503199
-0.006,0.24,0.968,-0.122,2503203
-0.006,0.24,0.968,-0.366,2503207
-0.007,0.239,0.966,-0.244,2503211
-0.007,0.239,0.966,-0.183,2503215
-0.007,0.239,0.966,-0.183,2503219
-0.006,0.237,0.968,-0.183,2503223
-0.006,0.237,0.968,-0.061,2503227
-0.006,0.237,0.969,-0.183,2503231
-0.006,0.237,0.969,-0.183,2503235
-0.006,0.237,0.969,-0.183,2503239
-0.006,0.24,0.968,-0.122,2503243
-0.006,0.24,0.968,-0.183,2503247
-0.004,0.239,0.967,-0.183,2503251
-0.004,0.239,0.967,-0.244,2503255
-0.004,0.239,0.967,-0.244,2503259
-0.004,0.237,0.968,-0.183,2503263
-0.004,0.237,0.968,-0.244,2503267
-0.006,0.239,0.968,-0.305,2503271
-0.006,0.239,0.968,0.0,2503274
-0.006,0.239,0.968,0.0,2503278
-0.006,0.239,0.967,-0.122,2503282
-0.006,0.239,0.967,-0.244,2503286
-0.005,0.237,0.968,-0.183,2503290
-0.005,0.237,0.968,-0.122,2503294
-0.005,0.237,0.968,-0.122,2503298
-0.006,0.237,0.969,-0.183,2503302
-0.006,0.237,0.969,-0.244,2503306
-0.005,0.238,0.97,-0.183,2503310
-0.005,0.238,0.97,-0.183,2503314
-0.005,0.238,0.97,-0.183,2503318
-0.007,0.238,0.967,-0.244,2503322
-0.007,0.238,0.967,-0.244,2503326
-0.005,0.237,0.966,-0.061,2503330
-0.005,0.237,0.966,-0.305,2503334
-0.005,0.237,0.966,-0.305,2503338
-0.006,0.238,0.969,-0.183,2503342
-0.006,0.238,0.969,-0.183,2503346
-0.006,0.237,0.968,-0.244,2503350
-0.006,0.237,0.968,-0.183,2503354
-0.006,0.237,0.968,-0.183,2503358
-0.006,0.238,0.967,-0.183,2503362
-0.006,0.238,0.967,-0.305,2503366
-0.006,0.237,0.966,-0.183,2503370
-0.006,0.237,0.966,-0.183,2503374
-0.006,0.237,0.966,-0.183,2503378
-0.006,0.237,0.967,-0.244,2503382
-0.006,0.237,0.967,-0.183,2503386
-0.007,0.236,0.968,-0.061,2503390
-0.007,0.236,0.968,-0.244,2503394
-0.007,0.236,0.968,-0.244,2503398
-0.005,0.238,0.968,-0.366,2503402
-0.005,0.238,0.968,-0.122,2503406
-0.006,0.237,0.968,-0.183,2503410
-0.006,0.237,0.968,-0.183,2503414
-0.006,0.237,0.968,-0.183,2503417
-0.007,0.237,0.967,-0.183,2503421
-0.007,0.237,0.967,-0.183,2503425
-0.007,0.236,0.968,-0.061,2503429
-0.007,0.236,0.968,-0.183,2503433
-0.006,0.237,0.967,-0.244,2503437
-0.006,0.237,0.967,-0.244,2503441
-0.006,0.237,0.967,-0.244,2503445
-0.006,0.237,0.968,-0.244,2503449
-0.006,0.237,0.968,-0.122,2503453
-0.006,0.238,0.968,-0.244,2503457
-0.006,0.238,0.968,-0.244,2503461
-0.006,0.238,0.968,-0.183,2503465
-0.006,0.238,0.968,-0.061,2503469
-0.006,0.238,0.968,-0.183,2503473
-0.006,0.238,0.969,-0.183,2503477
-0.006,0.238,0.969,-0.183,2503481
-0.006,0.238,0.969,-0.305,2503485
-0.007,0.237,0.969,-0.244,2503489
-0.007,0.237,0.969,-0.122,2503493
-0.007,0.238,0.968,-0.183,2503497
-0.007,0.238,0.968,-0.183,2503501
-0.007,0.238,0.968,-0.183,2503505
-0.007,0.237,0.968,-0.183,2503509
-0.007,0.237,0.968,-0.244,2503513
-0.007,0.237,0.968,-0.183,2503517
-0.007,0.237,0.968,-0.183,2503521
-0.007,0.237,0.968,-0.244,2503525
-0.005,0.236,0.967,-0.183,2503529
-0.005,0.236,0.967,-0.244,2503533
-0.005,0.237,0.967,-0.183,2503537
-0.005,0.237,0.967,-0.183,2503541
-0.005,0.237,0.967,-0.061,2503545
-0.005,0.238,0.967,0.061,2503549
-0.005,0.238,0.967,-0.244,2503553
-0.005,0.237,0.966,-0.122,2503557
-0.005,0.237,0.966,-0.122,2503561
-0.005,0.237,0.966,-0.244,2503565
-0.005,0.235,0.969,-0.244,2503569
-0.005,0.235,0.969,-0.244,2503573
-0.006,0.237,0.969,-0.305,2503576
-0.006,0.237,0.969,-0.305,2503580
-0.006,0.237,0.969,-0.305,2503584
-0.007,0.239,0.967,-0.122,2503588
-0.007,0.239,0.967,-0.122,2503592
-0.006,0.238,0.967,-0.122,2503596
-0.006,0.238,0.967,-0.122,2503600
-0.006,0.238,0.967,-0.183,2503604
-0.004,0.238,0.968,-0.183,2503608
-0.004,0.238,0.968,-0.061,2503612
-0.005,0.236,0.967,-0.183,2503616
-0.005,0.236,0.967,-0.183,2503620
-0.005,0.236,0.967,-0.305,2503624
-0.007,0.237,0.968,-0.244,2503628
-0.007,0.237,0.968,-0.061,2503632
-0.007,0.235,0.968,-0.244,2503636
-0.007,0.235,0.968,-0.244,2503640
-0.007,0.235,0.968,-0.183,2503644
-0.007,0.237,0.968,-0.244,2503648
-0.007,0.237,0.968,-0.183,2503652
-0.007,0.237,0.969,-0.244,2503656
-0.007,0.237,0.969,-0.244,2503660
-0.007,0.237,0.969,-0.183,2503664
-0.007,0.238,0.967,-0.244,2503668
-0.007,0.238,0.967,-0.244,2503672
-0.005,0.238,0.967,-0.122,2503676
-0.005,0.238,0.967,-0.122,2503680
-0.005,0.238,0.967,-0.122,2503684
-0.005,0.237,0.968,-0.183,2503688
-0.005,0.237,0.968,-0.183,2503692
-0.007,0.237,0.967,-0.366,2503696
-0.007,0.237,0.967,-0.366,2503700
-0.007,0.237,0.967,-0.305,2503704
-0.007,0.238,0.967,-0.122,2503708
-0.007,0.238,0.967,-0.061,2503712
-0.006,0.237,0.968,-0.305,2503716
-0.006,0.237,0.968,-0.305,2503720
-0.006,0.237,0.968,-0.122,2503723
-0.005,0.238,0.967,-0.122,2503727
-0.005,0.238,0.967,-0.183,2503731
-0.007,0.236,0.968,-0.244,2503735
-0.007,0.236,0.968,-0.244,2503739
-0.007,0.236,0.968,-0.183,2503743
-0.007,0.237,0.968,-0.183,2503747
-0.007,0.237,0.968,-0.183,2503751
-0.007,0.237,0.969,-0.061,2503755
-0.007,0.237,0.969,-0.061,2503759
-0.007,0.237,0.969,-0.122,2503763
-0.008,0.238,0.968,-0.183,2503767
-0.008,0.238,0.968,-0.305,2503771
-0.006,0.239,0.967,-0.183,2503775
-0.006,0.239,0.967,-0.183,2503779
-0.006,0.239,0.967,-0.061,2503783
-0.004,0.237,0.969,-0.305,2503787
-0.004,0.237,0.969,0.0,2503791
-0.006,0.237,0.969,-0.061,2503795
-0.006,0.237,0.969,-0.061,2503799
-0.006,0.237,0.969,-0.305,2503803
-0.006,0.237,0.968,-0.122,2503807
-0.006,0.237,0.968,-0.183,2503811
-0.006,0.238,0.969,-0.183,2503815
-0.006,0.238,0.969,-0.183,2503819
-0.006,0.238,0.969,-0.183,2503823
-0.007,0.238,0.967,-0.244,2503827
-0.007,0.238,0.967,-0.183,2503831
-0.006,0.237,0.968,-0.183,2503835
-0.006,0.237,0.968,-0.183,2503839
-0.006,0.237,0.968,-0.183,2503843
-0.006,0.237,0.968,-0.183,2503847
-0.006,0.237,0.968,-0.122,2503851
-0.005,0.238,0.968,-0.122,2503855
-0.005,0.238,0.968,-0.122,2503858
-0.005,0.238,0.968,-0.122,2503862
-0.005,0.238,0.967,-0.244,2503866
-0.005,0.238,0.967,-0.305,2503870
-0.008,0.238,0.969,-0.244,2503874
-0.008,0.238,0.969,-0.244,2503878
-0.008,0.238,0.969,-0.244,2503882
-0.006,0.237,0.969,-0.305,2503886
-0.006,0.237,0.969,-0.183,2503890
-0.004,0.238,0.969,-0.183,2503894
-0.004,0.238,0.969,-0.183,2503898
-0.004,0.238,0.969,-0.183,2503902
-0.006,0.237,0.969,-0.244,2503906
-0.006,0.237,0.969,-0.244,2503910
-0.005,0.237,0.968,-0.183,2503914
-0.005,0.237,0.968,-0.183,2503918
-0.005,0.237,0.968,-0.244,2503922
-0.006,0.238,0.969,-0.244,2503926
-0.006,0.238,0.969,-0.122,2503930
-0.006,0.236,0.969,-0.183,2503934
-0.006,0.236,0.969,-0.183,2503938
-0.006,0.236,0.969,-0.183,2503942
-0.005,0.238,0.967,-0.244,2503946
-0.005,0.238,0.967,-0.061,2503950
-0.005,0.238,0.968,-0.122,2503954
-0.005,0.238,0.968,-0.122,2503958
-0.005,0.238,0.968,-0.122,2503962
-0.006,0.237,0.968,-0.305,2503966
-0.006,0.237,0.968,-0.183,2503970
-0.007,0.238,0.968,-0.183,2503974
-0.007,0.238,0.968,-0.183,2503978
-0.007,0.238,0.968,-0.305,2503982
-0.007,0.238,0.969,-0.244,2503986
-0.007,0.238,0.969,-0.366,2503990
-0.007,0.238,0.967,-0.061,2503994
-0.007,0.238,0.967,-0.061,2503998
-0.007,0.238,0.967,-0.122,2504002
-0.005,0.237,0.968,-0.244,2504006
-0.005,0.237,0.968,-0.244,2504010
-0.006,0.236,0.967,-0.244,2504014
-0.006,0.236,0.967,-0.244,2504018
-0.006,0.236,0.967,-0.244,2504021
-0.006,0.236,0.969,-0.183,2504025
-0.006,0.236,0.969,-0.183,2504029
-0.006,0.237,0.967,-0.061,2504033
-0.006,0.237,0.967,-0.061,2504037
-0.006,0.237,0.967,-0.244,2504041
-0.005,0.239,0.969,-0.305,2504045
-0.005,0.239,0.969,-0.244,2504049
-0.006,0.237,0.968,-0.122,2504053
-0.006,0.237,0.968,-0.122,2504057
-0.006,0.237,0.968,-0.305,2504061
-0.005,0.238,0.967,-0.305,2504065
-0.005,0.238,0.967,-0.244,2504069
-0.005,0.238,0.966,-0.305,2504073
-0.005,0.238,0.966,-0.305,2504077
-0.005,0.238,0.966,-0.427,2504081
-0.007,0.237,0.968,-0.183,2504085
-0.007,0.237,0.968,-0.122,2504089
-0.005,0.239,0.967,-0.244,2504093
-0.005,0.239,0.967,-0.244,2504097
-0.005,0.239,0.967,-0.305,2504101
-0.006,0.239,0.968,-0.183,2504105
-0.006,0.239,0.968,-0.244,2504109
-0.005,0.237,0.97,-0.244,2504113
-0.005,0.237,0.97,-0.244,2504117
-0.005,0.237,0.97,-0.244,2504121
-0.004,0.237,0.967,-0.122,2504125
-0.004,0.237,0.967,-0.122,2504129
-0.006,0.239,0.968,-0.183,2504133
-0.006,0.239,0.968,-0.183,2504137
-0.006,0.239,0.968,-0.183,2504141
-0.006,0.239,0.968,-0.061,2504145
-0.006,0.239,0.968,-0.061,2504149
-0.005,0.238,0.967,-0.183,2504153
-0.005,0.238,0.967,-0.244,2504157
-0.005,0.238,0.967,-0.244,2504161
-0.006,0.238,0.967,-0.305,2504165
-0.006,0.238,0.967,-0.244,2504169
-0.005,0.239,0.967,-0.244,2504173
-0.005,0.239,0.967,-0.244,2504176
-0.005,0.239,0.967,-0.244,2504180
-0.007,0.238,0.968,-0.122,2504184
-0.007,0.238,0.968,-0.183,2504188
-0.006,0.238,0.968,-0.183,2504192
-0.006,0.238,0.968,-0.122,2504196
-0.006,0.238,0.968,-0.122,2504200
-0.006,0.237,0.967,-0.122,2504204
-0.006,0.237,0.967,-0.183,2504208
-0.006,0.237,0.968,-0.122,2504212
-0.006,0.237,0.968,-0.244,2504216
-0.006,0.237,0.968,-0.244,2504220
-0.005,0.239,0.969,-0.366,2504224
-0.005,0.239,0.969,-0.488,2504228
-0.006,0.237,0.969,-0.244,2504232
-0.006,0.237,0.969,-0.122,2504236
-0.006,0.237,0.969,-0.122,2504240
-0.005,0.238,0.968,-0.122,2504244
-0.005,0.238,0.968,-0.183,2504248
-0.005,0.238,0.968,-0.305,2504252
-0.005,0.238,0.968,-0.244,2504256
-0.005,0.238,0.968,-0.244,2504260
-0.006,0.238,0.968,-0.122,2504264
-0.006,0.238,0.968,-0.183,2504268
-0.007,0.237,0.967,-0.183,2504272
-0.007,0.237,0.967,-0.183,2504276
-0.007,0.237,0.967,-0.183,2504280
-0.006,0.237,0.969,-0.244,2504284
-0.006,0.237,0.969,-0.244,2504288
-0.007,0.237,0.968,-0.305,2504292
-0.007,0.237,0.968,-0.183,2504296
-0.007,0.237,0.968,-0.183,2504300
-0.006,0.237,0.966,-0.305,2504304
-0.006,0.237,0.966,-0.244,2504308
-0.005,0.236,0.967,-0.183,2504312
-0.005,0.236,0.967,-0.244,2504316
-0.005,0.236,0.967,-0.244,2504320
-0.005,0.237,0.968,-0.183,2504324
-0.005,0.237,0.968,0.0,2504327
-0.006,0.24,0.967,-0.122,2504331
-0.006,0.24,0.967,-0.305,2504335
-0.006,0.24,0.967,-0.305,2504339
-0.006,0.238,0.969,-0.183,2504343
-0.006,0.238,0.969,-0.183,2504347
-0.005,0.237,0.969,-0.366,2504351
-0.005,0.237,0.969,-0.244,2504355
-0.005,0.237,0.969,-0.244,2504359
-0.006,0.237,0.969,-0.183,2504363
-0.006,0.237,0.969,-0.244,2504367
-0.006,0.238,0.969,-0.122,2504371
-0.006,0.238,0.969,-0.122,2504375
-0.006,0.238,0.969,-0.122,2504379
-0.004,0.239,0.969,0.061,2504383
-0.004,0.239,0.969,-0.183,2504387
-0.005,0.239,0.969,-0.244,2504391
-0.005,0.239,0.969,-0.183,2504395
-0.005,0.239,0.969,-0.183,2504399
-0.007,0.238,0.968,-0.305,2504403
-0.007,0.238,0.968,-0.183,2504407
-0.006,0.238,0.966,-0.305,2504411
-0.006,0.238,0.966,-0.305,2504415
-0.006,0.238,0.966,-0.305,2504419
-0.006,0.238,0.966,-0.183,2504423
-0.006,0.238,0.966,-0.305,2504427
-0.008,0.239,0.968,-0.244,2504431
-0.008,0.239,0.968,-0.122,2504435
-0.008,0.239,0.968,-0.122,2504439
-0.007,0.238,0.967,-0.122,2504443
-0.007,0.238,0.967,-0.183,2504447
-0.005,0.238,0.967,-0.183,2504451
-0.005,0.238,0.967,-0.244,2504455
-0.005,0.238,0.967,-0.244,2504459
-0.005,0.238,0.968,-0.122,2504463
-0.005,0.238,0.968,-0.183,2504467
-0.005,0.239,0.967,-0.244,2504471
-0.005,0.239,0.967,-0.122,2504475
-0.005,0.239,0.967,-0.122,2504478
-0.007,0.237,0.967,-0.244,2504482
-0.007,0.237,0.967,-0.183,2504486
-0.006,0.236,0.968,-0.244,2504490
-0.006,0.236,0.968,-0.244,2504494
-0.006,0.236,0.968,-0.244,2504498
-0.005,0.238,0.97,-0.183,2504502
-0.005,0.238,0.97,-0.244,2504506
-0.005,0.239,0.969,-0.366,2504510
-0.005,0.239,0.969,-0.244,2504514
-0.005,0.239,0.969,-0.244,2504518
-0.006,0.237,0.968,-0.183,2504522
-0.006,0.237,0.968,-0.244,2504526
-0.008,0.237,0.967,-0.122,2504530
-0.008,0.237,0.967,-0.183,2504534
-0.008,0.237,0.967,-0.183,2504538
-0.007,0.238,0.968,-0.305,2504542
-0.007,0.238,0.968,-0.305,2504546
-0.003,0.239,0.967,-0.244,2504550
-0.003,0.239,0.967,-0.305,2504554
-0.003,0.239,0.967,-0.305,2504558
-0.005,0.238,0.967,-0.122,2504562
-0.005,0.238,0.967,-0.244,2504566
-0.007,0.237,0.967,-0.183,2504570
-0.007,0.237,0.967,-0.183,2504574
-0.007,0.237,0.967,-0.183,2504578
-0.006,0.237,0.967,-0.183,2504582
-0.006,0.237,0.967,-0.183,2504586
-0.006,0.238,0.967,-0.366,2504590
-0.006,0.238,0.967,-0.305,2504594
-0.006,0.238,0.967,-0.305,2504598
-0.005,0.238,0.967,-0.061,2504602
-0.005,0.238,0.967,-0.183,2504606
-0.005,0.238,0.967,-0.183,2504610
-0.005,0.238,0.967,-0.122,2504613
-0.005,0.238,0.967,-0.122,2504617
-0.005,0.237,0.968,-0.183,2504621
-0.005,0.237,0.968,-0.183,2504625
-0.006,0.237,0.97,-0.183,2504629
-0.006,0.237,0.97,-0.183,2504633
-0.006,0.237,0.97,-0.183,2504637
-0.004,0.239,0.969,-0.122,2504641
-0.004,0.239,0.969,-0.305,2504645
-0.006,0.238,0.968,-0.183,2504649
-0.006,0.238,0.968,-0.122,2504653
-0.006,0.238,0.968,-0.122,2504657
-0.007,0.237,0.967,-0.183,2504661
-0.007,0.237,0.967,-0.366,2504665
-0.006,0.237,0.968,-0.122,2504669
-0.006,0.237,0.968,-0.122,2504673
-0.006,0.237,0.968,-0.122,2504677
-0.007,0.238,0.969,-0.244,2504681
-0.007,0.238,0.969,-0.122,2504685
-0.005,0.236,0.967,-0.244,2504689
-0.005,0.236,0.967,-0.305,2504693
-0.005,0.236,0.967,-0.305,2504697
-0.007,0.237,0.968,-0.183,2504701
-0.007,0.237,0.968,-0.183,2504705
-0.006,0.237,0.968,-0.183,2504709
-0.006,0.237,0.968,-0.244,2504713
-0.006,0.237,0.968,-0.244,2504717
-0.005,0.237,0.968,-0.244,2504721
-0.005,0.237,0.968,-0.122,2504725
-0.007,0.237,0.967,-0.122,2504729
-0.007,0.237,0.967,-0.183,2504733
-0.007,0.237,0.967,-0.183,2504737
-0.007,0.238,0.968,-0.183,2504741
-0.007,0.238,0.968,-0.183,2504745
-0.006,0.238,0.967,-0.061,2504749
-0.006,0.238,0.967,-0.061,2504753
-0.006,0.238,0.967,-0.061,2504757
-0.005,0.236,0.967,-0.122,2504761
-0.005,0.236,0.967,-0.305,2504764
-0.007,0.237,0.969,-0.244,2504768
-0.007,0.237,0.969,-0.122,2504772
-0.007,0.237,0.969,-0.122,2504776
-0.006,0.238,0.968,-0.305,2504780
-0.006,0.238,0.968,-0.183,2504784
-0.005,0.238,0.968,-0.122,2504788
-0.005,0.238,0.968,-0.183,2504792
-0.004,0.238,0.968,-0.244,2504796
-0.004,0.238,0.968,-0.244,2504800
-0.004,0.238,0.968,-0.122,2504804
-0.005,0.239,0.967,-0.122,2504808
-0.005,0.239,0.967,-0.183,2504812
-0.007,0.237,0.969,-0.122,2504816
-0.007,0.237,0.969,-0.122,2504820
-0.007,0.237,0.969,-0.122,2504824
-0.005,0.237,0.968,-0.305,2504828
-0.005,0.237,0.968,-0.183,2504832
-0.005,0.238,0.969,-0.122,2504836
-0.005,0.238,0.969,-0.122,2504840
-0.005,0.238,0.969,-0.183,2504844
-0.005,0.238,0.966,-0.183,2504848
-0.005,0.238,0.966,-0.183,2504852
-0.006,0.236,0.969,-0.122,2504856
-0.006,0.236,0.969,-0.122,2504860
-0.006,0.236,0.969,-0.305,2504864
-0.006,0.238,0.97,-0.244,2504868
-0.006,0.238,0.97,-0.061,2504872
-0.006,0.238,0.969,-0.244,2504876
-0.006,0.238,0.969,-0.244,2504880
-0.006,0.238,0.969,-0.244,2504884
-0.004,0.239,0.967,-0.183,2504888
-0.004,0.239,0.967,-0.305,2504892
-0.005,0.238,0.969,-0.244,2504896
-0.005,0.238,0.969,-0.244,2504900
-0.005,0.238,0.969,-0.244,2504904
-0.006,0.24,0.968,-0.305,2504908
-0.006,0.24,0.968,-0.366,2504912
-0.006,0.236,0.966,-0.305,2504916
-0.006,0.236,0.966,-0.305,2504919
-0.006,0.236,0.966,-0.183,2504923
-0.004,0.238,0.969,-0.183,2504927
-0.004,0.238,0.969,-0.183,2504931
-0.004,0.239,0.971,-0.183,2504935
-0.004,0.239,0.971,-0.183,2504939
-0.004,0.239,0.971,-0.244,2504943
-0.005,0.237,0.964,-0.122,2504947
-0.005,0.237,0.964,-0.122,2504951
-0.005,0.237,0.969,-0.122,2504955
-0.005,0.237,0.969,-0.122,2504959
-0.005,0.237,0.969,-0.122,2504963
-0.005,0.237,0.969,-0.244,2504967
-0.005,0.237,0.969,-0.244,2504971
-0.004,0.237,0.969,-0.122,2504975
-0.004,0.237,0.969,-0.122,2504979
-0.004,0.237,0.969,-0.183,2504983
-0.005,0.237,0.967,-0.244,2504987
-0.005,0.237,0.967,-0.244,2504991
-0.006,0.239,0.967,-0.122,2504995
-0.006,0.239,0.967,-0.122,2504999
-0.006,0.239,0.967,-0.061,2505003
-0.006,0.239,0.969,-0.305,2505007
-0.006,0.239,0.969,-0.244,2505011
-0.007,0.237,0.968,-0.061,2505015
-0.007,0.237,0.968,-0.061,2505019
-0.007,0.237,0.968,-0.183,2505023
-0.006,0.237,0.969,-0.244,2505027
-0.006,0.237,0.969,-0.183,2505031
-0.006,0.238,0.969,-0.244,2505035
-0.006,0.238,0.969,-0.244,2505039
-0.006,0.238,0.969,-0.122,2505043
-0.006,0.239,0.967,-0.061,2505047
-0.006,0.239,0.967,-0.183,2505051
-0.006,0.238,0.968,-0.183,2505055
-0.006,0.238,0.968,-0.183,2505059
-0.006,0.238,0.968,-0.183,2505062
-0.005,0.238,0.967,-0.244,2505066
-0.005,0.238,0.967,-0.183,2505070
-0.006,0.237,0.968,-0.122,2505074
-0.006,0.237,0.968,-0.122,2505078
-0.006,0.237,0.968,-0.122,2505082
-0.006,0.238,0.967,-0.366,2505086
-0.006,0.238,0.967,-0.244,2505090
-0.006,0.237,0.967,-0.244,2505094
-0.006,0.237,0.967,-0.244,2505098
-0.006,0.237,0.967,-0.183,2505102
-0.006,0.238,0.968,-0.305,2505106
-0.006,0.238,0.968,-0.305,2505110
-0.005,0.238,0.97,-0.244,2505114
-0.005,0.238,0.97,-0.244,2505118
-0.005,0.238,0.97,-0.061,2505122
-0.008,0.238,0.967,-0.122,2505126
-0.008,0.238,0.967,-0.183,2505130
-0.006,0.238,0.967,-0.244,2505134
-0.006,0.238,0.967,-0.244,2505138
-0.006,0.238,0.967,-0.305,2505142
-0.005,0.237,0.968,-0.183,2505146
-0.005,0.237,0.968,-0.183,2505150
-0.006,0.237,0.967,-0.122,2505154
-0.006,0.237,0.967,-0.122,2505158
-0.006,0.237,0.967,-0.122,2505162
-0.006,0.237,0.966,-0.244,2505166
-0.006,0.237,0.966,-0.183,2505170
-0.006,0.238,0.966,-0.122,2505174
-0.006,0.238,0.966,-0.122,2505178
-0.006,0.238,0.966,-0.244,2505182
-0.005,0.239,0.969,-0.183,2505186
-0.005,0.239,0.969,-0.305,2505190
-0.004,0.239,0.967,-0.122,2505194
-0.004,0.239,0.967,-0.122,2505198
-0.004,0.239,0.967,-0.061,2505202
-0.008,0.237,0.966,-0.244,2505206
-0.008,0.237,0.966,-0.122,2505209
-0.007,0.237,0.967,-0.122,2505213
-0.007,0.237,0.967,-0.122,2505217
-0.007,0.237,0.967,-0.244,2505221
-0.004,0.237,0.967,-0.366,2505225
-0.004,0.237,0.967,-0.183,2505229
-0.006,0.237,0.967,-0.244,2505233
-0.006,0.237,0.967,-0.244,2505237
-0.006,0.237,0.967,-0.183,2505241
-0.005,0.239,0.968,-0.183,2505245
-0.005,0.239,0.968,-0.183,2505249
-0.006,0.238,0.968,-0.305,2505253
-0.006,0.238,0.968,-0.305,2505257
-0.006,0.238,0.968,-0.122,2505261
-0.006,0.237,0.968,-0.061,2505265
-0.006,0.237,0.968,-0.183,2505269
-0.006,0.237,0.969,-0.305,2505273
-0.006,0.237,0.969,-0.305,2505277
-0.006,0.237,0.969,-0.061,2505281
-0.004,0.237,0.968,-0.183,2505285
-0.004,0.237,0.968,-0.305,2505289
-0.005,0.237,0.968,-0.183,2505293
-0.005,0.237,0.968,-0.183,2505297
-0.005,0.237,0.968,-0.183,2505301
-0.007,0.238,0.966,-0.183,2505305
-0.007,0.238,0.966,-0.183,2505309
-0.006,0.239,0.967,-0.183,2505313
-0.006,0.239,0.967,-0.183,2505317
-0.006,0.239,0.967,-0.183,2505321
-0.004,0.237,0.966,-0.183,2505325
-0.004,0.237,0.966,-0.305,2505329
-0.005,0.238,0.966,-0.183,2505333
-0.005,0.238,0.966,-0.183,2505337
-0.005,0.238,0.966,-0.122,2505341
-0.007,0.239,0.968,-0.244,2505345
-0.007,0.239,0.968,-0.244,2505349
-0.006,0.239,0.968,-0.305,2505352
-0.006,0.239,0.968,-0.305,2505356
-0.006,0.239,0.968,-0.366,2505360
-0.005,0.238,0.968,-0.244,2505364
-0.005,0.238,0.968,-0.366,2505368
-0.006,0.238,0.968,-0.244,2505372
-0.006,0.238,0.968,-0.244,2505376
-0.006,0.238,0.968,-0.183,2505380
-0.005,0.238,0.968,-0.183,2505384
-0.005,0.238,0.968,-0.244,2505388
-0.005,0.238,0.969,-0.122,2505392
-0.005,0.238,0.969,-0.122,2505396
-0.005,0.238,0.969,-0.305,2505400
-0.007,0.237,0.968,-0.122,2505404
-0.007,0.237,0.968,-0.183,2505408
-0.006,0.237,0.967,-0.244,2505412
-0.006,0.237,0.967,-0.244,2505416
-0.006,0.237,0.967,-0.244,2505420
-0.006,0.236,0.968,-0.122,2505424
-0.006,0.236,0.968,-0.244,2505428
-0.006,0.239,0.968,-0.244,2505432
-0.006,0.239,0.968,-0.244,2505436
-0.006,0.239,0.968,-0.183,2505440
-0.006,0.239,0.968,-0.122,2505444
-0.006,0.239,0.968,-0.244,2505448
-0.005,0.238,0.968,-0.183,2505452
-0.005,0.238,0.968,-0.183,2505456
-0.005,0.238,0.968,-0.061,2505460
-0.005,0.237,0.966,0.0,2505464
-0.005,0.237,0.966,-0.244,2505468
-0.006,0.238,0.967,-0.305,2505472
-0.006,0.238,0.967,-0.305,2505476
-0.006,0.238,0.967,-0.183,2505480
-0.005,0.237,0.967,-0.122,2505484
-0.005,0.237,0.967,-0.244,2505487
-0.006,0.237,0.967,-0.183,2505491
-0.006,0.237,0.967,-0.183,2505495
-0.006,0.237,0.967,-0.122,2505499
-0.005,0.237,0.968,-0.122,2505503
-0.005,0.237,0.968,-0.183,2505507
-0.005,0.239,0.968,-0.244,2505511
-0.005,0.239,0.968,-0.122,2505515
-0.005,0.239,0.968,-0.122,2505519
-0.006,0.239,0.968,-0.183,2505523
-0.006,0.239,0.968,-0.244,2505527
-0.007,0.238,0.967,-0.305,2505531
-0.007,0.238,0.967,-0.305,2505535
-0.007,0.238,0.967,-0.305,2505539
-0.005,0.237,0.968,-0.244,2505543
-0.005,0.237,0.968,-0.061,2505547
-0.005,0.237,0.969,-0.244,2505551
-0.005,0.237,0.969,-0.244,2505555
-0.005,0.237,0.969,-0.244,2505559
-0.007,0.238,0.967,-0.305,2505563
-0.007,0.238,0.967,-0.244,2505567
-0.008,0.239,0.967,-0.305,2505571
-0.008,0.239,0.967,-0.183,2505575
-0.008,0.239,0.967,-0.183,2505579
-0.006,0.238,0.968,-0.183,2505583
-0.006,0.238,0.968,-0.244,2505587
-0.005,0.237,0.969,-0.244,2505591
-0.005,0.237,0.969,-0.183,2505595
-0.005,0.237,0.969,-0.183,2505599
-0.006,0.239,0.967,-0.244,2505603
-0.006,0.239,0.967,-0.061,2505607
-0.005,0.239,0.968,-0.122,2505611
-0.005,0.239,0.968,-0.427,2505615
-0.005,0.239,0.968,-0.427,2505619
-0.005,0.238,0.968,-0.183,2505623
-0.005,0.238,0.968,-0.244,2505627
-0.004,0.237,0.968,-0.305,2505631
-0.004,0.237,0.968,-0.305,2505635
-0.004,0.237,0.968,-0.305,2505639
-0.006,0.237,0.967,-0.305,2505643
-0.006,0.237,0.967,-0.183,2505647
-0.006,0.236,0.969,-0.183,2505651
-0.006,0.236,0.969,-0.183,2505654
-0.006,0.236,0.969,-0.183,2505658
-0.006,0.236,0.969,-0.122,2505662
-0.006,0.236,0.969,-0.183,2505666
-0.006,0.237,0.967,-0.244,2505670
-0.006,0.237,0.967,-0.244,2505674
-0.006,0.237,0.967,-0.244,2505678
-0.007,0.237,0.969,-0.183,2505682
-0.007,0.237,0.969,-0.183,2505686
-0.007,0.236,0.968,-0.183,2505690
-0.007,0.236,0.968,-0.305,2505694
-0.007,0.236,0.968,-0.305,2505698
-0.006,0.238,0.968,-0.244,2505702
-0.006,0.238,0.968,-0.305,2505706
-0.005,0.238,0.969,-0.183,2505710
-0.005,0.238,0.969,-0.244,2505714
-0.005,0.238,0.969,-0.244,2505718
-0.005,0.236,0.967,-0.244,2505722
-0.005,0.236,0.967,-0.305,2505726
-0.005,0.238,0.968,-0.244,2505730
-0.005,0.238,0.968,-0.305,2505734
-0.005,0.238,0.968,-0.305,2505738
-0.003,0.237,0.969,-0.122,2505742
-0.003,0.237,0.969,-0.183,2505746
-0.004,0.237,0.967,-0.061,2505750
-0.004,0.237,0.967,-0.122,2505754
-0.004,0.237,0.967,-0.122,2505758
-0.005,0.238,0.967,-0.244,2505762
-0.005,0.238,0.967,-0.244,2505766
-0.007,0.238,0.968,-0.122,2505770
-0.007,0.238,0.968,-0.305,2505774
-0.007,0.238,0.968,-0.305,2505778
-0.006,0.237,0.968,-0.183,2505782
-0.006,0.237,0.968,-0.183,2505786
-0.007,0.237,0.968,-0.122,2505790
-0.007,0.237,0.968,0.0,2505794
-0.007,0.237,0.968,0.0,2505798
-0.006,0.237,0.968,-0.122,2505802
-0.006,0.237,0.968,-0.183,2505806
-0.006,0.237,0.968,-0.183,2505809
-0.006,0.237,0.968,-0.244,2505813
-0.006,0.237,0.968,-0.244,2505817
-0.006,0.238,0.968,-0.244,2505821
-0.006,0.238,0.968,-0.183,2505825
-0.004,0.238,0.968,-0.244,2505829
-0.004,0.238,0.968,-0.122,2505833
-0.004,0.238,0.968,-0.122,2505837
-0.005,0.237,0.969,-0.183,2505841
-0.005,0.237,0.969,-0.305,2505845
-0.005,0.239,0.967,-0.244,2505849
-0.005,0.239,0.967,-0.244,2505853
-0.005,0.239,0.967,-0.244,2505857
-0.005,0.237,0.968,-0.244,2505861
-0.005,0.237,0.968,-0.183,2505865
-0.006,0.237,0.969,-0.183,2505869
-0.006,0.237,0.969,-0.122,2505873
-0.006,0.237,0.969,-0.122,2505877
-0.007,0.237,0.969,-0.061,2505881
-0.007,0.237,0.969,0.0,2505885
-0.005,0.238,0.969,-0.122,2505889
-0.005,0.238,0.969,-0.305,2505893
-0.005,0.238,0.969,-0.305,2505897
-0.004,0.237,0.969,-0.305,2505901
-0.004,0.237,0.969,-0.244,2505905
-0.007,0.237,0.967,-0.305,2505909
-0.007,0.237,0.967,-0.244,2505913
-0.007,0.237,0.967,-0.244,2505917
-0.005,0.238,0.968,-0.305,2505921
-0.005,0.238,0.968,-0.122,2505925
-0.006,0.238,0.968,-0.244,2505929
-0.006,0.238,0.968,-0.244,2505933
-0.006,0.238,0.968,-0.244,2505937
-0.006,0.238,0.967,-0.122,2505941
-0.006,0.238,0.967,-0.122,2505945
-0.006,0.237,0.968,-0.183,2505949
-0.006,0.237,0.968,-0.244,2505952
-0.006,0.237,0.968,-0.244,2505956
-0.006,0.237,0.968,-0.244,2505960
-0.006,0.237,0.968,-0.244,2505964
-0.005,0.238,0.968,-0.183,2505968
-0.005,0.238,0.968,-0.122,2505972
-0.005,0.238,0.968,-0.122,2505976
-0.006,0.237,0.968,-0.183,2505980
-0.006,0.237,0.968,-0.366,2505984
-0.007,0.236,0.969,-0.183,2505988
-0.007,0.236,0.969,-0.244,2505992
-0.007,0.236,0.969,-0.244,2505996
-0.005,0.237,0.969,-0.183,2506000
-0.005,0.237,0.969,-0.244,2506004
-0.007,0.238,0.967,-0.244,2506008
-0.007,0.238,0.967,-0.244,2506012
-0.007,0.238,0.967,-0.244,2506016
-0.007,0.239,0.967,-0.244,2506020
-0.007,0.239,0.967,-0.244,2506024
-0.005,0.239,0.969,-0.244,2506028
-0.005,0.239,0.969,-0.183,2506032
-0.005,0.239,0.969,-0.183,2506036
-0.006,0.238,0.969,-0.244,2506040
-0.006,0.238,0.969,-0.183,2506044
-0.006,0.238,0.968,-0.244,2506048
-0.006,0.238,0.968,-0.244,2506052
-0.006,0.238,0.968,-0.244,2506056
-0.005,0.237,0.969,-0.305,2506060
-0.005,0.237,0.969,-0.122,2506064
-0.004,0.237,0.966,-0.183,2506068
-0.004,0.237,0.966,-0.122,2506072
-0.004,0.237,0.966,-0.122,2506076
-0.006,0.237,0.968,-0.061,2506080
-0.006,0.237,0.968,-0.244,2506084
-0.006,0.237,0.969,-0.183,2506088
-0.006,0.237,0.969,-0.244,2506092
-0.006,0.237,0.969,-0.244,2506096
-0.006,0.237,0.969,-0.305,2506100
-0.006,0.237,0.969,-0.183,2506103
-0.005,0.237,0.968,-0.122,2506107
-0.005,0.237,0.968,-0.183,2506111
-0.006,0.237,0.967,-0.244,2506115
-0.006,0.237,0.967,-0.244,2506119
-0.006,0.237,0.967,-0.183,2506123
-0.005,0.237,0.969,-0.122,2506127
-0.005,0.237,0.969,-0.183,2506131
-0.006,0.238,0.968,0.0,2506135
-0.006,0.238,0.968,0.0,2506139
-0.006,0.238,0.968,-0.183,2506143
-0.006,0.24,0.967,-0.305,2506147
-0.006,0.24,0.967,-0.122,2506151
-0.006,0.24,0.967,-0.122,2506155
-0.006,0.238,0.967,-0.244,2506159
-0.006,0.238,0.967,-0.305,2506163
-0.005,0.238,0.967,-0.244,2506167
-0.005,0.238,0.967,-0.244,2506171
-0.005,0.238,0.967,-0.244,2506175
-0.006,0.238,0.969,-0.244,2506179
-0.006,0.238,0.969,-0.305,2506183
-0.006,0.239,0.967,-0.244,2506187
-0.006,0.239,0.967,-0.244,2506191
-0.005,0.238,0.968,-0.244,2506195
-0.005,0.238,0.968,-0.244,2506199
-0.005,0.238,0.968,-0.183,2506203
-0.006,0.239,0.969,-0.183,2506207
-0.006,0.239,0.969,-0.244,2506211
-0.007,0.237,0.968,-0.305,2506215
-0.007,0.237,0.968,-0.305,2506219
-0.007,0.237,0.968,-0.183,2506223
-0.007,0.237,0.968,-0.122,2506227
-0.007,0.237,0.968,-0.305,2506231
-0.005,0.236,0.967,-0.305,2506235
-0.005,0.236,0.967,-0.305,2506239
-0.005,0.236,0.967,-0.244,2506242
-0.006,0.237,0.969,-0.244,2506246
-0.006,0.237,0.969,-0.305,2506250
-0.005,0.238,0.968,-0.427,2506254
-0.005,0.238,0.968,-0.427,2506258
-0.005,0.238,0.968,-0.244,2506262
-0.007,0.237,0.966,-0.244,2506266
-0.007,0.237,0.966,-0.122,2506270
-0.005,0.238,0.968,-0.183,2506274
-0.005,0.238,0.968,-0.183,2506278
-0.005,0.238,0.968,-0.183,2506282
-0.005,0.238,0.966,-0.122,2506286
-0.005,0.238,0.966,-0.183,2506290
-0.006,0.239,0.968,-0.122,2506294
-0.006,0.239,0.968,-0.122,2506298
-0.006,0.239,0.968,-0.183,2506302
-0.005,0.237,0.968,-0.244,2506306
-0.005,0.237,0.968,-0.244,2506310
-0.006,0.236,0.968,-0.244,2506314
-0.006,0.236,0.968,-0.244,2506318
-0.006,0.236,0.968,-0.183,2506322
-0.005,0.236,0.968,-0.183,2506326
-0.005,0.236,0.968,-0.244,2506330
-0.005,0.237,0.969,-0.244,2506334
-0.005,0.237,0.969,-0.244,2506338
-0.005,0.237,0.969,-0.122,2506342
-0.006,0.238,0.968,-0.183,2506346
-0.006,0.238,0.968,-0.244,2506350
-0.005,0.237,0.967,-0.366,2506354
-0.005,0.237,0.967,-0.366,2506358
-0.005,0.237,0.967,-0.183,2506362
-0.005,0.238,0.968,-0.061,2506366
-0.005,0.238,0.968,-0.122,2506370
-0.005,0.237,0.968,-0.122,2506374
-0.005,0.237,0.968,-0.122,2506378
-0.005,0.237,0.968,-0.183,2506382
-0.006,0.238,0.969,-0.183,2506386
-0.006,0.238,0.969,-0.305,2506390
-0.007,0.239,0.969,-0.244,2506394
-0.007,0.239,0.969,-0.244,2506398
-0.007,0.239,0.969,-0.183,2506402
-0.007,0.238,0.968,-0.122,2506406
-0.007,0.238,0.968,-0.122,2506409
-0.006,0.238,0.968,-0.122,2506413
-0.006,0.238,0.968,-0.122,2506417
-0.006,0.238,0.968,-0.122,2506421
-0.006,0.238,0.969,0.0,2506425
-0.006,0.238,0.969,-0.244,2506429
-0.005,0.238,0.967,-0.305,2506433
-0.005,0.238,0.967,-0.305,2506437
-0.005,0.238,0.967,-0.122,2506441
-0.005,0.238,0.968,-0.183,2506445
-0.005,0.238,0.968,-0.305,2506449
-0.007,0.236,0.967,-0.244,2506453
-0.007,0.236,0.967,-0.244,2506457
-0.007,0.236,0.967,-0.183,2506461
-0.006,0.236,0.967,-0.183,2506465
-0.006,0.236,0.967,-0.183,2506469
-0.006,0.236,0.966,-0.183,2506473
-0.006,0.236,0.966,-0.183,2506477
-0.006,0.236,0.966,-0.244,2506481
-0.005,0.237,0.967,-0.183,2506485
-0.005,0.237,0.967,-0.122,2506489
-0.005,0.238,0.968,-0.244,2506493
-0.005,0.238,0.968,-0.244,2506497
-0.005,0.238,0.968,-0.122,2506501
-0.008,0.237,0.969,-0.183,2506505
-0.008,0.237,0.969,-0.305,2506509
-0.006,0.237,0.969,-0.244,2506513
-0.006,0.237,0.969,-0.244,2506517
-0.006,0.237,0.969,-0.305,2506521
-0.007,0.238,0.968,-0.183,2506525
-0.007,0.238,0.968,-0.183,2506529
-0.006,0.238,0.968,-0.122,2506533
-0.006,0.238,0.968,-0.122,2506537
-0.006,0.238,0.968,-0.061,2506541
-0.005,0.238,0.968,-0.183,2506545
-0.005,0.238,0.968,-0.183,2506549
-0.006,0.237,0.969,-0.244,2506553
-0.006,0.237,0.969,-0.244,2506557
-0.006,0.237,0.969,-0.305,2506560
-0.007,0.237,0.968,-0.183,2506564
-0.007,0.237,0.968,-0.122,2506568
-0.005,0.236,0.968,-0.061,2506572
-0.005,0.236,0.968,-0.061,2506576
-0.005,0.236,0.968,-0.061,2506580
-0.006,0.238,0.969,-0.244,2506584
-0.006,0.238,0.969,-0.061,2506588
-0.006,0.238,0.968,-0.122,2506592
-0.006,0.238,0.968,-0.122,2506596
-0.006,0.238,0.968,-0.183,2506600
-0.006,0.237,0.968,-0.183,2506604
-0.006,0.237,0.968,-0.366,2506608
-0.005,0.238,0.968,-0.305,2506612
-0.005,0.238,0.968,-0.305,2506616
-0.005,0.238,0.968,-0.061,2506620
-0.006,0.239,0.968,-0.122,2506624
-0.006,0.239,0.968,-0.244,2506628
-0.006,0.238,0.968,-0.183,2506632
-0.006,0.238,0.968,-0.183,2506636
-0.006,0.238,0.968,-0.244,2506640
-0.006,0.236,0.969,-0.122,2506644
-0.006,0.236,0.969,-0.183,2506648
-0.007,0.237,0.967,-0.244,2506652
-0.007,0.237,0.967,-0.244,2506656
-0.007,0.237,0.967,-0.183,2506660
-0.006,0.238,0.968,-0.244,2506664
-0.006,0.238,0.968,-0.244,2506668
-0.004,0.239,0.968,-0.122,2506672
-0.004,0.239,0.968,-0.122,2506676
-0.004,0.239,0.968,-0.122,2506680
-0.004,0.238,0.967,-0.244,2506684
-0.004,0.238,0.967,-0.488,2506688
-0.006,0.237,0.967,-0.305,2506692
-0.006,0.237,0.967,-0.305,2506696
-0.006,0.237,0.967,-0.122,2506699
-0.005,0.237,0.97,-0.244,2506703
-0.005,0.237,0.97,-0.366,2506707
-0.006,0.239,0.968,-0.183,2506711
-0.006,0.239,0.968,-0.183,2506715
-0.006,0.239,0.968,-0.122,2506719
-0.006,0.237,0.968,-0.122,2506723
-0.006,0.237,0.968,-0.244,2506727
-0.006,0.237,0.967,-0.183,2506731
-0.006,0.237,0.967,-0.183,2506735
-0.006,0.237,0.967,-0.244,2506739
-0.005,0.236,0.966,-0.183,2506743
-0.005,0.236,0.966,-0.183,2506747
-0.006,0.239,0.969,-0.183,2506751
-0.006,0.239,0.969,-0.183,2506755
-0.006,0.239,0.969,-0.183,2506759
-0.005,0.238,0.968,-0.366,2506763
-0.005,0.238,0.968,-0.305,2506767
-0.006,0.236,0.969,-0.244,2506771
-0.006,0.236,0.969,-0.244,2506775
-0.006,0.236,0.969,-0.183,2506779
-0.006,0.236,0.968,-0.305,2506783
-0.006,0.236,0.968,-0.183,2506787
-0.004,0.236,0.967,-0.244,2506791
-0.004,0.236,0.967,-0.244,2506795
-0.004,0.236,0.967,-0.061,2506799
-0.003,0.237,0.967,-0.244,2506803
-0.003,0.237,0.967,-0.366,2506807
-0.005,0.238,0.969,-0.244,2506811
-0.005,0.238,0.969,-0.061,2506815
-0.005,0.238,0.969,-0.061,2506819
-0.008,0.238,0.968,-0.122,2506823
-0.008,0.238,0.968,-0.244,2506827
-0.007,0.237,0.968,-0.244,2506831
-0.007,0.237,0.968,-0.183,2506835
-0.007,0.237,0.968,-0.183,2506839
-0.007,0.238,0.969,-0.061,2506843
-0.007,0.238,0.969,-0.122,2506847
-0.006,0.239,0.967,-0.061,2506850
-0.006,0.239,0.967,-0.061,2506854
-0.006,0.239,0.967,-0.061,2506858
-0.006,0.237,0.969,-0.244,2506862
-0.006,0.237,0.969,-0.183,2506866
-0.005,0.237,0.969,-0.244,2506870
-0.005,0.237,0.969,-0.244,2506874
-0.005,0.237,0.969,-0.244,2506878
-0.006,0.238,0.967,-0.183,2506882
-0.006,0.238,0.967,-0.183,2506886
-0.007,0.236,0.968,-0.122,2506890
-0.007,0.236,0.968,-0.183,2506894
-0.007,0.236,0.968,-0.183,2506898
-0.006,0.237,0.967,-0.244,2506902
-0.006,0.237,0.967,-0.244,2506906
-0.006,0.238,0.968,-0.122,2506910
-0.006,0.238,0.968,-0.183,2506914
-0.006,0.238,0.968,-0.183,2506918
-0.005,0.239,0.969,-0.122,2506922
-0.005,0.239,0.969,-0.244,2506926
-0.006,0.239,0.968,-0.061,2506930
-0.006,0.239,0.968,-0.183,2506934
-0.006,0.239,0.968,-0.183,2506938
-0.005,0.238,0.966,-0.183,2506942
-0.005,0.238,0.966,-0.183,2506946
-0.005,0.239,0.968,-0.183,2506950
-0.005,0.239,0.968,-0.244,2506954
-0.005,0.239,0.968,-0.244,2506958
-0.006,0.237,0.969,-0.122,2506962
-0.006,0.237,0.969,-0.061,2506966
-0.006,0.237,0.968,-0.061,2506970
-0.006,0.237,0.968,-0.244,2506974
-0.006,0.237,0.968,-0.244,2506978
-0.006,0.238,0.968,-0.244,2506982
-0.006,0.238,0.968,-0.244,2506986
-0.007,0.236,0.967,-0.244,2506990
-0.007,0.236,0.967,-0.122,2506994
-0.007,0.236,0.967,-0.122,2506997
-0.007,0.238,0.967,-0.183,2507001
-0.007,0.238,0.967,-0.244,2507005
-0.006,0.239,0.969,-0.183,2507009
-0.006,0.239,0.969,-0.183,2507013
-0.006,0.239,0.969,-0.183,2507017
-0.006,0.237,0.967,-0.183,2507021
-0.006,0.237,0.967,-0.122,2507025
-0.006,0.237,0.967,-0.244,2507029
-0.006,0.237,0.967,-0.183,2507033
-0.006,0.237,0.967,-0.183,2507037
-0.006,0.237,0.969,-0.183,2507041
-0.006,0.237,0.969,-0.427,2507045
-0.007,0.238,0.969,-0.244,2507049
-0.007,0.238,0.969,-0.122,2507053
-0.007,0.238,0.969,-0.122,2507057
-0.005,0.237,0.969,-0.183,2507061
-0.005,0.237,0.969,-0.244,2507065
-0.006,0.239,0.967,-0.183,2507069
-0.006,0.239,0.967,-0.183,2507073
-0.006,0.239,0.967,-0.183,2507077
-0.007,0.237,0.967,-0.183,2507081
-0.007,0.237,0.967,-0.244,2507085
-0.005,0.238,0.968,-0.183,2507089
-0.005,0.238,0.968,-0.244,2507093
-0.005,0.238,0.968,-0.244,2507097
-0.004,0.238,0.967,-0.244,2507101
-0.004,0.238,0.967,-0.244,2507105
-0.007,0.235,0.966,-0.244,2507109
-0.007,0.235,0.966,-0.244,2507113
-0.007,0.235,0.966,-0.244,2507117
-0.006,0.237,0.967,-0.183,2507121
-0.006,0.237,0.967,-0.366,2507125
-0.005,0.237,0.967,-0.305,2507129
-0.005,0.237,0.967,-0.305,2507133
-0.005,0.237,0.967,-0.305,2507137
-0.006,0.237,0.967,-0.244,2507141
-0.006,0.237,0.967,-0.183,2507144
-0.005,0.238,0.967,-0.183,2507148
-0.005,0.238,0.967,-0.244,2507152
-0.005,0.238,0.967,-0.244,2507156
-0.005,0.238,0.967,-0.244,2507160
-0.005,0.238,0.967,-0.244,2507164
-0.006,0.239,0.969,-0.244,2507168
-0.006,0.239,0.969,-0.122,2507172
-0.006,0.239,0.969,-0.122,2507176
-0.006,0.237,0.97,-0.122,2507180
-0.006,0.237,0.97,-0.122,2507184
-0.005,0.238,0.969,-0.122,2507188
-0.005,0.238,0.969,-0.061,2507192
-0.005,0.238,0.969,-0.061,2507196
-0.006,0.238,0.968,-0.183,2507200
-0.006,0.238,0.968,-0.305,2507204
-0.005,0.237,0.969,-0.244,2507208
-0.005,0.237,0.969,-0.244,2507212
-0.005,0.237,0.969,-0.244,2507216
-0.007,0.236,0.968,-0.305,2507220
-0.007,0.236,0.968,-0.244,2507224
-0.005,0.236,0.967,-0.183,2507228
-0.005,0.236,0.967,-0.122,2507232
-0.005,0.236,0.967,-0.122,2507236
-0.006,0.238,0.966,-0.305,2507240
-0.006,0.238,0.966,-0.305,2507244
-0.005,0.236,0.967,-0.244,2507248
-0.005,0.236,0.967,-0.244,2507252
-0.005,0.236,0.967,-0.244,2507256
-0.005,0.237,0.968,-0.183,2507260
-0.005,0.237,0.968,-0.122,2507264
-0.006,0.239,0.967,-0.122,2507268
-0.006,0.239,0.967,-0.122,2507272
-0.006,0.239,0.967,-0.122,2507276
-0.006,0.238,0.967,-0.305,2507280
-0.006,0.238,0.967,-0.183,2507284
-0.004,0.236,0.968,-0.183,2507288
-0.004,0.236,0.968,-0.305,2507292
-0.004,0.236,0.968,-0.305,2507296
-0.005,0.238,0.968,-0.183,2507300
-0.005,0.238,0.968,-0.183,2507303
-0.007,0.238,0.968,-0.305,2507307
-0.007,0.238,0.968,-0.061,2507311
-0.007,0.238,0.968,-0.061,2507315
-0.007,0.238,0.969,-0.122,2507319
-0.007,0.238,0.969,-0.244,2507323
-0.006,0.237,0.968,-0.244,2507327
-0.006,0.237,0.968,-0.183,2507331
-0.006,0.237,0.968,-0.183,2507335
-0.005,0.238,0.966,-0.183,2507339
-0.005,0.238,0.966,-0.244,2507343
-0.005,0.239,0.968,-0.244,2507347
-0.005,0.239,0.968,-0.122,2507351
-0.005,0.239,0.968,-0.122,2507355
-0.006,0.239,0.967,-0.183,2507359
-0.006,0.239,0.967,-0.244,2507363
-0.007,0.237,0.967,-0.305,2507367
-0.007,0.237,0.967,-0.305,2507371
-0.007,0.237,0.967,-0.305,2507375
-0.006,0.236,0.968,-0.366,2507379
-0.006,0.236,0.968,-0.183,2507383
-0.005,0.236,0.967,-0.305,2507387
-0.005,0.236,0.967,-0.183,2507391
-0.005,0.236,0.967,-0.183,2507395
-0.007,0.238,0.969,-0.122,2507399
-0.007,0.238,0.969,-0.305,2507403
-0.007,0.238,0.968,-0.122,2507407
-0.007,0.238,0.968,-0.122,2507411
-0.007,0.238,0.968,-0.122,2507415
-0.005,0.239,0.968,-0.183,2507419
-0.005,0.239,0.968,-0.183,2507423
-0.006,0.239,0.967,-0.183,2507427
-0.006,0.239,0.967,-0.244,2507431
-0.006,0.239,0.967,-0.244,2507435
-0.006,0.239,0.966,-0.122,2507439
-0.006,0.239,0.966,-0.061,2507443
-0.005,0.237,0.966,-0.183,2507446
-0.005,0.237,0.966,-0.183,2507450
-0.005,0.237,0.966,-0.183,2507454
-0.005,0.237,0.968,-0.061,2507458
-0.005,0.237,0.968,-0.244,2507462
-0.006,0.237,0.967,-0.305,2507466
-0.006,0.237,0.967,-0.244,2507470
-0.004,0.237,0.968,-0.244,2507474
-0.004,0.237,0.968,-0.244,2507478
-0.004,0.237,0.968,-0.244,2507482
-0.004,0.238,0.969,-0.061,2507486
-0.004,0.238,0.969,-0.122,2507490
-0.006,0.237,0.967,-0.305,2507494
-0.006,0.237,0.967,-0.305,2507498
-0.006,0.237,0.967,-0.183,2507502
-0.006,0.237,0.968,-0.244,2507506
-0.006,0.237,0.968,-0.244,2507510
-0.006,0.238,0.968,-0.244,2507514
-0.006,0.238,0.968,-0.244,2507518
-0.006,0.238,0.968,-0.061,2507522
-0.005,0.238,0.966,-0.244,2507526
-0.005,0.238,0.966,-0.183,2507530
-0.004,0.237,0.968,-0.183,2507534
-0.004,0.237,0.968,-0.183,2507538
-0.004,0.237,0.968,-0.122,2507542
-0.007,0.239,0.967,-0.183,2507546
-0.007,0.239,0.967,-0.244,2507550
-0.006,0.239,0.967,-0.305,2507554
-0.006,0.239,0.967,-0.305,2507558
-0.006,0.239,0.967,-0.183,2507562
-0.003,0.239,0.967,-0.244,2507566
-0.003,0.239,0.967,-0.183,2507570
-0.005,0.24,0.967,-0.061,2507574
-0.005,0.24,0.967,-0.061,2507578
-0.005,0.24,0.967,-0.244,2507582
-0.004,0.238,0.966,-0.183,2507586
-0.004,0.238,0.966,-0.183,2507590
-0.005,0.237,0.967,-0.122,2507594
-0.005,0.237,0.967,-0.122,2507598
-0.005,0.237,0.967,-0.061,2507602
-0.006,0.238,0.969,-0.122,2507605
-0.006,0.238,0.969,-0.244,2507609
-0.006,0.238,0.968,-0.183,2507613
-0.006,0.238,0.968,-0.183,2507617
-0.006,0.238,0.968,-0.244,2507621
-0.006,0.239,0.966,-0.183,2507625
-0.006,0.239,0.966,-0.183,2507629
-0.004,0.237,0.968,-0.183,2507633
-0.004,0.237,0.968,-0.183,2507637
-0.004,0.237,0.968,-0.183,2507641
-0.004,0.239,0.968,-0.244,2507645
-0.004,0.239,0.968,-0.244,2507649
-0.006,0.239,0.968,-0.061,2507653
-0.006,0.239,0.968,-0.061,2507657
-0.006,0.239,0.968,-0.244,2507661
-0.006,0.238,0.966,-0.244,2507665
-0.006,0.238,0.966,-0.183,2507669
-0.005,0.238,0.968,-0.366,2507673
-0.005,0.238,0.968,-0.366,2507677
-0.005,0.238,0.968,-0.244,2507681
-0.005,0.238,0.967,-0.183,2507685
-0.005,0.238,0.967,-0.305,2507689
-0.006,0.238,0.969,-0.244,2507693
-0.006,0.238,0.969,-0.244,2507697
-0.006,0.238,0.969,-0.183,2507701
-0.005,0.238,0.969,-0.183,2507705
-0.005,0.238,0.969,-0.183,2507709
-0.005,0.239,0.967,-0.305,2507713
-0.005,0.239,0.967,-0.305,2507717
-0.005,0.239,0.967,-0.244,2507721
-0.006,0.237,0.967,-0.244,2507725
-0.006,0.237,0.967,-0.183,2507729
-0.006,0.238,0.966,-0.122,2507733
-0.006,0.238,0.966,-0.122,2507737
-0.006,0.238,0.966,-0.244,2507741
-0.006,0.239,0.967,-0.183,2507745
-0.006,0.239,0.967,-0.061,2507749
-0.006,0.236,0.968,-0.122,2507753
-0.006,0.236,0.968,-0.122,2507757
-0.006,0.236,0.968,-0.244,2507761
-0.005,0.237,0.969,-0.305,2507764
-0.005,0.237,0.969,-0.183,2507768
-0.005,0.239,0.968,-0.061,2507772
-0.005,0.239,0.968,-0.061,2507776
-0.005,0.239,0.968,-0.183,2507780
-0.004,0.238,0.968,-0.183,2507784
-0.004,0.238,0.968,-0.183,2507788
-0.007,0.236,0.968,-0.244,2507792
-0.007,0.236,0.968,-0.244,2507796
-0.007,0.236,0.968,-0.122,2507800
-0.006,0.237,0.969,-0.122,2507804
-0.006,0.237,0.969,-0.244,2507808
-0.006,0.237,0.968,-0.122,2507812
-0.006,0.237,0.968,-0.122,2507816
-0.006,0.237,0.968,-0.183,2507820
-0.004,0.237,0.969,-0.244,2507824
-0.004,0.237,0.969,-0.244,2507828
-0.006,0.236,0.968,-0.122,2507832
-0.006,0.236,0.968,-0.122,2507836
-0.006,0.236,0.968,-0.244,2507840
-0.005,0.237,0.969,-0.183,2507844
-0.005,0.237,0.969,0.0,2507848
-0.005,0.239,0.968,-0.244,2507852
-0.005,0.239,0.968,-0.244,2507856
-0.005,0.239,0.968,-0.244,2507860
-0.007,0.237,0.967,-0.244,2507864
-0.007,0.237,0.967,-0.305,2507868
-0.005,0.238,0.968,-0.244,2507872
-0.005,0.238,0.968,-0.244,2507876
-0.005,0.238,0.968,-0.305,2507880
-0.004,0.236,0.967,-0.244,2507884
-0.004,0.236,0.967,-0.305,2507888
-0.005,0.237,0.967,-0.244,2507892
-0.005,0.237,0.967,-0.244,2507896
-0.005,0.237,0.967,-0.183,2507900
-0.006,0.238,0.969,-0.183,2507903
-0.006,0.238,0.969,-0.366,2507907
-0.005,0.238,0.969,-0.427,2507911
-0.005,0.238,0.969,-0.427,2507915
-0.005,0.238,0.969,-0.183,2507919
-0.007,0.238,0.967,-0.183,2507923
-0.007,0.238,0.967,-0.122,2507927
-0.007,0.238,0.968,-0.244,2507931
-0.007,0.238,0.968,-0.244,2507935
-0.007,0.238,0.968,-0.183,2507939
-0.006,0.238,0.967,-0.244,2507943
-0.006,0.238,0.967,-0.122,2507947
-0.007,0.239,0.968,-0.122,2507951
-0.007,0.239,0.968,-0.122,2507955
-0.007,0.239,0.968,-0.244,2507959
-0.007,0.237,0.968,-0.244,2507963
-0.007,0.237,0.968,-0.183,2507967
-0.006,0.238,0.968,-0.244,2507971
-0.006,0.238,0.968,-0.244,2507975
-0.006,0.238,0.968,-0.183,2507979
-0.007,0.238,0.969,-0.122,2507983
-0.007,0.238,0.969,-0.244,2507987
-0.005,0.237,0.966,-0.305,2507991
-0.005,0.237,0.966,-0.305,2507995
-0.005,0.237,0.966,-0.122,2507999
-0.006,0.237,0.967,0.0,2508003
-0.006,0.237,0.967,-0.305,2508007
-0.007,0.238,0.969,-0.183,2508011
-0.007,0.238,0.969,-0.183,2508015
-0.007,0.238,0.969,-0.122,2508019
-0.005,0.238,0.969,-0.122,2508023
-0.005,0.238,0.969,-0.244,2508027
-0.006,0.239,0.968,-0.183,2508031
-0.006,0.239,0.968,-0.183,2508035
-0.006,0.239,0.968,-0.244,2508039
-0.006,0.237,0.967,-0.183,2508042
-0.006,0.237,0.967,-0.122,2508046
-0.006,0.238,0.968,-0.244,2508050
-0.006,0.238,0.968,-0.244,2508054
-0.006,0.238,0.968,-0.061,2508058
-0.006,0.238,0.968,-0.122,2508062
-0.006,0.238,0.968,-0.122,2508066
-0.005,0.237,0.968,-0.183,2508070
-0.005,0.237,0.968,-0.183,2508074
-0.005,0.237,0.968,-0.244,2508078
-0.008,0.237,0.967,-0.305,2508082
-0.008,0.237,0.967,-0.061,2508086
-0.004,0.236,0.967,-0.122,2508090
-0.004,0.236,0.967,-0.122,2508094
-0.004,0.236,0.967,-0.183,2508098
-0.004,0.237,0.969,-0.183,2508102
-0.004,0.237,0.969,-0.122,2508106
-0.006,0.237,0.969,-0.244,2508110
-0.006,0.237,0.969,-0.244,2508114
-0.006,0.237,0.969,-0.183,2508118
-0.005,0.237,0.968,-0.122,2508122
-0.005,0.237,0.968,-0.244,2508126
-0.004,0.237,0.969,0.0,2508130
-0.004,0.237,0.969,0.0,2508134
-0.004,0.237,0.969,0.0,2508138
-0.008,0.239,0.969,-0.183,2508142
-0.008,0.239,0.969,-0.305,2508146
-0.005,0.238,0.967,-0.244,2508150
-0.005,0.238,0.967,-0.244,2508154
-0.005,0.238,0.967,-0.183,2508158
-0.006,0.238,0.968,-0.183,2508162
-0.006,0.238,0.968,-0.183,2508166
-0.004,0.239,0.966,-0.122,2508170
-0.004,0.239,0.966,-0.122,2508174
-0.004,0.239,0.966,-0.061,2508177
-0.005,0.238,0.969,0.0,2508181
-0.005,0.238,0.969,-0.244,2508185
-0.005,0.237,0.967,-0.122,2508189
-0.005,0.237,0.967,-0.122,2508193
-0.005,0.237,0.967,-0.061,2508197
-0.005,0.236,0.967,-0.183,2508201
-0.005,0.236,0.967,-0.183,2508205
-0.005,0.237,0.968,-0.183,2508209
-0.005,0.237,0.968,-0.183,2508213
-0.005,0.237,0.968,-0.122,2508217
-0.005,0.237,0.969,-0.244,2508221
-0.005,0.237,0.969,-0.244,2508225
-0.005,0.237,0.968,-0.244,2508229
-0.005,0.237,0.968,-0.244,2508233
-0.005,0.237,0.968,-0.183,2508237
-0.005,0.235,0.967,-0.183,2508241
-0.005,0.235,0.967,-0.183,2508245
-0.005,0.237,0.967,-0.122,2508249
-0.005,0.237,0.967,-0.122,2508253
-0.005,0.237,0.967,-0.244,2508257
-0.006,0.239,0.969,-0.122,2508261
-0.006,0.239,0.969,-0.061,2508265
-0.006,0.238,0.964,-0.122,2508269
-0.006,0.238,0.964,-0.244,2508273
-0.006,0.238,0.964,-0.244,2508277
-0.006,0.237,0.968,-0.305,2508281
-0.006,0.237,0.968,-0.122,2508285
-0.006,0.24,0.967,-0.122,2508289
-0.006,0.24,0.967,-0.183,2508293
-0.006,0.24,0.967,-0.183,2508297
-0.004,0.239,0.97,-0.244,2508301
-0.004,0.239,0.97,-0.183,2508305
-0.006,0.238,0.966,-0.244,2508309
-0.006,0.238,0.966,-0.244,2508313
-0.006,0.238,0.966,-0.244,2508317
-0.004,0.237,0.967,-0.244,2508321
-0.004,0.237,0.967,-0.183,2508325
-0.005,0.237,0.969,-0.305,2508328
-0.005,0.237,0.969,-0.244,2508332
-0.005,0.237,0.969,-0.244,2508336
-0.005,0.237,0.968,-0.061,2508340
-0.005,0.237,0.968,-0.122,2508344
-0.004,0.238,0.968,-0.366,2508348
-0.004,0.238,0.968,-0.305,2508352
-0.004,0.238,0.968,-0.305,2508356
-0.006,0.237,0.966,-0.122,2508360
-0.006,0.237,0.966,-0.183,2508364
-0.006,0.238,0.969,-0.183,2508368
-0.006,0.238,0.969,-0.244,2508372
-0.006,0.238,0.969,-0.244,2508376
-0.006,0.239,0.967,-0.183,2508380
-0.006,0.239,0.967,-0.061,2508384
-0.005,0.239,0.968,-0.183,2508388
-0.005,0.239,0.968,-0.183,2508392
-0.005,0.239,0.968,-0.183,2508396
-0.008,0.237,0.967,-0.122,2508400
-0.008,0.237,0.967,-0.183,2508404
-0.007,0.236,0.967,-0.183,2508408
-0.007,0.236,0.967,-0.122,2508412
-0.007,0.236,0.967,-0.122,2508416
-0.007,0.237,0.968,-0.244,2508420
-0.007,0.237,0.968,-0.061,2508424
-0.006,0.238,0.968,-0.244,2508428
-0.006,0.238,0.968,-0.244,2508432
-0.006,0.238,0.968,-0.244,2508436
-0.005,0.238,0.969,-0.305,2508440
-0.005,0.238,0.969,-0.122,2508444
-0.006,0.238,0.968,-0.183,2508448
-0.006,0.238,0.968,-0.122,2508452
-0.006,0.238,0.968,-0.122,2508456
-0.006,0.238,0.968,-0.244,2508460
-0.006,0.238,0.968,-0.244,2508464
-0.006,0.238,0.968,-0.244,2508468
-0.006,0.238,0.968,-0.122,2508472
-0.006,0.238,0.968,-0.122,2508476
-0.006,0.239,0.968,-0.122,2508480
-0.006,0.239,0.968,-0.305,2508483
-0.007,0.238,0.969,-0.244,2508487
-0.007,0.238,0.969,-0.183,2508491
-0.007,0.238,0.969,-0.183,2508495
-0.005,0.238,0.967,-0.244,2508499
-0.005,0.238,0.967,-0.366,2508503
-0.007,0.238,0.968,-0.183,2508507
-0.007,0.238,0.968,-0.244,2508511
-0.007,0.238,0.968,-0.244,2508515
-0.007,0.238,0.968,-0.305,2508519
-0.007,0.238,0.968,-0.244,2508523
-0.006,0.238,0.968,-0.244,2508527
-0.006,0.238,0.968,-0.244,2508531
-0.006,0.238,0.968,-0.244,2508535
-0.004,0.237,0.969,-0.183,2508539
-0.004,0.237,0.969,-0.244,2508543
-0.004,0.237,0.968,-0.183,2508547
-0.004,0.237,0.968,-0.305,2508551
-0.004,0.237,0.968,-0.305,2508555
-0.005,0.237,0.969,-0.183,2508559
-0.005,0.237,0.969,-0.122,2508563
-0.007,0.239,0.969,-0.183,2508567
-0.007,0.239,0.969,-0.244,2508571
-0.007,0.239,0.969,-0.244,2508575
-0.004,0.237,0.968,-0.244,2508579
-0.004,0.237,0.968,-0.183,2508583
-0.006,0.237,0.967,-0.244,2508587
-0.006,0.237,0.967,-0.244,2508591
-0.006,0.237,0.967,-0.244,2508595
-0.007,0.238,0.968,-0.183,2508599
-0.007,0.238,0.968,-0.183,2508603
-0.005,0.237,0.967,-0.305,2508607
-0.005,0.237,0.967,-0.183,2508611
-0.005,0.237,0.967,-0.183,2508615
-0.006,0.238,0.968,-0.061,2508619
-0.006,0.238,0.968,-0.305,2508623
-0.006,0.237,0.968,-0.183,2508627
-0.006,0.237,0.968,-0.122,2508631
-0.006,0.237,0.968,-0.122,2508635
-0.006,0.237,0.968,-0.244,2508638
-0.006,0.237,0.968,-0.183,2508642
-0.006,0.238,0.968,-0.122,2508646
-0.006,0.238,0.968,-0.244,2508650
-0.006,0.238,0.968,-0.244,2508654
-0.006,0.238,0.968,-0.183,2508658
-0.006,0.238,0.968,-0.183,2508662
-0.004,0.238,0.969,-0.061,2508666
-0.004,0.238,0.969,-0.061,2508670
-0.004,0.238,0.969,-0.061,2508674
-0.005,0.238,0.97,-0.183,2508678
-0.005,0.238,0.97,-0.183,2508682
-0.006,0.237,0.969,-0.183,2508686
-0.006,0.237,0.969,-0.122,2508690
-0.006,0.237,0.969,-0.122,2508694
-0.005,0.238,0.966,-0.244,2508698
-0.005,0.238,0.966,-0.305,2508702
-0.006,0.238,0.968,-0.244,2508706
-0.006,0.238,0.968,-0.122,2508710
-0.006,0.238,0.968,-0.122,2508714
-0.006,0.24,0.967,-0.183,2508718
-0.006,0.24,0.967,-0.122,2508722
-0.005,0.238,0.968,-0.183,2508726
-0.005,0.238,0.968,-0.305,2508730
-0.005,0.238,0.968,-0.305,2508734
-0.007,0.238,0.967,-0.183,2508738
-0.007,0.238,0.967,-0.183,2508742
-0.006,0.239,0.967,-0.183,2508746
-0.006,0.239,0.967,-0.183,2508750
-0.006,0.239,0.967,-0.183,2508754
-0.006,0.239,0.969,-0.183,2508758
-0.006,0.239,0.969,-0.061,2508762
-0.006,0.239,0.968,-0.061,2508766
-0.006,0.239,0.968,-0.183,2508770
-0.006,0.239,0.968,-0.183,2508774
-0.008,0.238,0.967,-0.183,2508778
-0.008,0.238,0.967,-0.244,2508782
-0.004,0.237,0.968,-0.183,2508786
-0.004,0.237,0.968,-0.183,2508790
-0.004,0.237,0.968,-0.183,2508794
-0.005,0.238,0.967,-0.244,2508798
-0.005,0.238,0.967,-0.183,2508801
-0.005,0.237,0.968,-0.183,2508805
-0.005,0.237,0.968,-0.244,2508809
-0.005,0.237,0.968,-0.244,2508813
-0.006,0.236,0.968,-0.183,2508817
-0.006,0.236,0.968,-0.122,2508821
-0.006,0.237,0.967,-0.183,2508825
-0.006,0.237,0.967,-0.122,2508829
-0.006,0.237,0.967,-0.122,2508833
-0.005,0.239,0.967,-0.183,2508837
-0.005,0.239,0.967,-0.122,2508841
-0.007,0.237,0.968,-0.183,2508845
-0.007,0.237,0.968,0.0,2508849
-0.007,0.237,0.968,0.0,2508853
-0.007,0.238,0.968,-0.244,2508857
-0.007,0.238,0.968,-0.244,2508861
-0.005,0.237,0.969,-0.122,2508865
-0.005,0.237,0.969,-0.061,2508869
-0.005,0.237,0.969,-0.061,2508873
-0.005,0.237,0.968,0.0,2508877
-0.005,0.237,0.968,-0.183,2508881
-0.006,0.237,0.967,-0.183,2508885
-0.006,0.237,0.967,-0.244,2508889
-0.006,0.237,0.967,-0.244,2508893
-0.005,0.237,0.967,-0.305,2508897
-0.005,0.237,0.967,-0.183,2508901
-0.005,0.236,0.968,-0.183,2508905
-0.005,0.236,0.968,-0.244,2508909
-0.005,0.236,0.968,-0.244,2508913
-0.006,0.237,0.968,-0.183,2508917
-0.006,0.237,0.968,-0.061,2508920
-0.005,0.24,0.969,-0.183,2508924
-0.005,0.24,0.969,-0.183,2508928
-0.005,0.24,0.969,-0.183,2508932
-0.005,0.239,0.968,-0.061,2508936
-0.005,0.239,0.968,-0.244,2508940
-0.006,0.238,0.966,-0.366,2508944
-0.006,0.238,0.966,-0.305,2508948
-0.006,0.238,0.966,-0.305,2508952
-0.006,0.239,0.967,-0.366,2508956
-0.006,0.239,0.967,-0.183,2508960
-0.005,0.239,0.968,-0.183,2508964
-0.005,0.239,0.968,-0.244,2508968
-0.005,0.239,0.968,-0.244,2508972
-0.005,0.239,0.967,-0.183,2508976
-0.005,0.239,0.967,-0.183,2508980
-0.006,0.238,0.965,-0.244,2508984
-0.006,0.238,0.965,-0.122,2508988
-0.006,0.238,0.965,-0.122,2508992
-0.005,0.237,0.968,-0.122,2508996
-0.005,0.237,0.968,-0.183,2509000
-0.004,0.237,0.968,-0.122,2509004
-0.004,0.237,0.968,-0.122,2509008
-0.005,0.236,0.969,-0.244,2509012
-0.005,0.236,0.969,-0.244,2509016
-0.005,0.236,0.969,-0.183,2509020
-0.005,0.236,0.968,-0.061,2509024
-0.005,0.236,0.968,-0.244,2509028
-0.006,0.238,0.969,-0.122,2509032
-0.006,0.238,0.969,-0.122,2509036
-0.006,0.238,0.969,-0.122,2509040
-0.005,0.239,0.969,-0.183,2509044
-0.005,0.239,0.969,-0.305,2509048
-0.006,0.237,0.966,-0.244,2509052
-0.006,0.237,0.966,-0.244,2509056
-0.006,0.237,0.966,-0.183,2509060
-0.005,0.238,0.967,-0.183,2509064
-0.005,0.238,0.967,-0.122,2509068
-0.004,0.237,0.968,-0.305,2509071
-0.004,0.237,0.968,-0.305,2509075
-0.004,0.237,0.968,-0.244,2509079
-0.007,0.238,0.968,-0.183,2509083
-0.007,0.238,0.968,-0.244,2509087
-0.006,0.238,0.968,-0.122,2509091
-0.006,0.238,0.968,-0.122,2509095
-0.006,0.238,0.968,-0.122,2509099
-0.006,0.237,0.969,-0.122,2509103
-0.006,0.237,0.969,-0.061,2509107
-0.005,0.237,0.969,-0.183,2509111
-0.005,0.237,0.969,-0.183,2509115
-0.005,0.237,0.969,-0.183,2509119
-0.006,0.237,0.967,-0.244,2509123
-0.006,0.237,0.967,-0.244,2509127
-0.005,0.237,0.969,-0.183,2509131
-0.005,0.237,0.969,-0.183,2509135
-0.005,0.237,0.969,-0.122,2509139
-0.005,0.237,0.968,-0.305,2509143
-0.005,0.237,0.968,-0.183,2509147
-0.005,0.238,0.967,-0.183,2509151
-0.005,0.238,0.967,-0.183,2509155
-0.005,0.238,0.967,-0.305,2509159
-0.003,0.239,0.968,-0.183,2509163
-0.003,0.239,0.968,-0.183,2509167
-0.004,0.239,0.968,-0.122,2509171
-0.004,0.239,0.968,-0.122,2509175
-0.004,0.239,0.968,-0.061,2509179
-0.006,0.238,0.966,-0.183,2509183
-0.006,0.238,0.966,-0.122,2509187
-0.004,0.238,0.968,-0.366,2509191
-0.004,0.238,0.968,-0.366,2509195
-0.004,0.238,0.968,-0.183,2509199
-0.005,0.239,0.967,-0.183,2509203
-0.005,0.239,0.967,-0.366,2509207
-0.005,0.239,0.969,-0.183,2509211
-0.005,0.239,0.969,-0.183,2509215
-0.005,0.239,0.969,-0.244,2509219
-0.007,0.237,0.968,-0.122,2509223
-0.007,0.237,0.968,-0.305,2509226
-0.005,0.239,0.967,-0.244,2509230
-0.005,0.239,0.967,-0.244,2509234
-0.005,0.239,0.967,-0.122,2509238
-0.004,0.238,0.967,-0.244,2509242
-0.004,0.238,0.967,-0.183,2509246
-0.005,0.237,0.968,-0.122,2509250
-0.005,0.237,0.968,-0.122,2509254
-0.005,0.237,0.968,-0.305,2509258
-0.005,0.239,0.966,-0.244,2509262
-0.005,0.239,0.966,-0.061,2509266
-0.005,0.238,0.969,-0.183,2509270
-0.005,0.238,0.969,-0.183,2509274
-0.005,0.238,0.969,-0.122,2509278
-0.006,0.237,0.969,-0.122,2509282
-0.006,0.237,0.969,-0.183,2509286
-0.006,0.237,0.968,-0.183,2509290
-0.006,0.237,0.968,-0.183,2509294
-0.006,0.237,0.968,-0.122,2509298
-0.006,0.238,0.968,-0.183,2509302
-0.006,0.238,0.968,-0.427,2509306
-0.007,0.238,0.969,-0.305,2509310
-0.007,0.238,0.969,-0.305,2509314
-0.007,0.238,0.969,-0.183,2509318
-0.005,0.238,0.967,-0.244,2509322
-0.005,0.238,0.967,-0.244,2509326
-0.005,0.238,0.967,-0.244,2509330
-0.005,0.238,0.967,-0.244,2509334
-0.005,0.238,0.967,-0.305,2509338
-0.007,0.236,0.968,-0.122,2509342
-0.007,0.236,0.968,-0.183,2509346
-0.006,0.237,0.969,-0.122,2509350
-0.006,0.237,0.969,-0.122,2509354
-0.006,0.237,0.969,-0.061,2509358
-0.007,0.237,0.968,-0.122,2509362
-0.007,0.237,0.968,-0.244,2509366
-0.005,0.237,0.969,-0.244,2509370
-0.005,0.237,0.969,-0.244,2509374
-0.005,0.237,0.969,-0.366,2509378
-0.005,0.238,0.967,-0.244,2509381
-0.005,0.238,0.967,-0.244,2509385
-0.006,0.238,0.967,-0.183,2509389
-0.006,0.238,0.967,-0.183,2509393
-0.006,0.238,0.967,-0.244,2509397
-0.005,0.239,0.968,-0.122,2509401
-0.005,0.239,0.968,-0.244,2509405
-0.004,0.238,0.969,-0.122,2509409
-0.004,0.238,0.969,-0.122,2509413
-0.004,0.238,0.969,-0.305,2509417
-0.004,0.237,0.968,-0.305,2509421
-0.004,0.237,0.968,-0.183,2509425
-0.006,0.238,0.967,-0.305,2509429
-0.006,0.238,0.967,-0.305,2509433
-0.006,0.238,0.967,-0.305,2509437
-0.006,0.238,0.967,-0.244,2509441
-0.006,0.238,0.967,-0.244,2509445
-0.005,0.238,0.969,-0.061,2509449
-0.005,0.238,0.969,-0.061,2509453
-0.005,0.238,0.969,-0.305,2509457
-0.005,0.239,0.969,-0.305,2509461
-0.005,0.239,0.969,-0.244,2509465
-0.006,0.238,0.968,-0.244,2509469
-0.006,0.238,0.968,-0.244,2509473
-0.006,0.238,0.968,-0.183,2509477
-0.003,0.238,0.969,-0.183,2509481
-0.003,0.238,0.969,-0.122,2509485
-0.005,0.238,0.968,-0.122,2509489
-0.005,0.238,0.968,-0.122,2509493
-0.005,0.238,0.968,-0.244,2509497
-0.006,0.238,0.968,-0.122,2509501
-0.006,0.238,0.968,-0.122,2509505
-0.006,0.236,0.968,-0.183,2509509
-0.006,0.236,0.968,-0.183,2509513
-0.006,0.236,0.968,-0.122,2509517
-0.005,0.236,0.968,-0.244,2509521
-0.005,0.236,0.968,-0.244,2509525
-0.006,0.238,0.967,-0.122,2509529
-0.006,0.238,0.967,-0.122,2509532
-0.006,0.238,0.967,0.0,2509536
-0.006,0.238,0.968,-0.122,2509540
-0.006,0.238,0.968,-0.183,2509544
-0.006,0.237,0.968,-0.244,2509548
-0.006,0.237,0.968,-0.244,2509552
-0.006,0.237,0.968,-0.122,2509556
-0.006,0.237,0.967,-0.122,2509560
-0.006,0.237,0.967,-0.244,2509564
-0.006,0.238,0.967,-0.183,2509568
-0.006,0.238,0.967,-0.183,2509572
-0.006,0.238,0.967,-0.122,2509576
-0.004,0.238,0.968,-0.244,2509580
-0.004,0.238,0.968,-0.183,2509584
-0.005,0.239,0.968,-0.183,2509588
-0.005,0.239,0.968,-0.183,2509592
-0.005,0.239,0.968,-0.183,2509596
-0.006,0.237,0.966,-0.183,2509600
-0.006,0.237,0.966,-0.244,2509604
-0.005,0.238,0.966,-0.122,2509608
-0.005,0.238,0.966,-0.122,2509612
-0.005,0.238,0.966,-0.122,2509616
-0.005,0.238,0.967,-0.244,2509620
-0.005,0.238,0.967,-0.244,2509624
-0.006,0.238,0.967,-0.122,2509628
-0.006,0.238,0.967,-0.244,2509632
-0.006,0.238,0.967,-0.244,2509636
-0.006,0.239,0.968,-0.122,2509640
-0.006,0.239,0.968,-0.305,2509644
-0.004,0.238,0.969,-0.305,2509648
-0.004,0.238,0.969,-0.122,2509652
-0.004,0.238,0.969,-0.122,2509656
-0.005,0.237,0.969,-0.305,2509660
-0.005,0.237,0.969,-0.427,2509664
-0.006,0.239,0.967,-0.183,2509668
-0.006,0.239,0.967,-0.305,2509672
-0.006,0.239,0.967,-0.305,2509676
-0.004,0.237,0.967,-0.183,2509680
-0.004,0.237,0.967,-0.183,2509684
-0.005,0.237,0.969,-0.122,2509688
-0.005,0.237,0.969,-0.183,2509692
-0.005,0.237,0.969,-0.183,2509695
-0.006,0.238,0.969,-0.183,2509699
-0.006,0.238,0.969,-0.122,2509703
-0.004,0.238,0.968,-0.061,2509707
-0.004,0.238,0.968,-0.183,2509711
-0.004,0.238,0.968,-0.183,2509715
-0.004,0.235,0.966,-0.183,2509719
-0.004,0.235,0.966,-0.305,2509723
-0.005,0.237,0.967,-0.305,2509727
-0.005,0.237,0.967,-0.244,2509731
-0.005,0.237,0.967,-0.244,2509735
-0.008,0.238,0.969,-0.183,2509739
-0.008,0.238,0.969,-0.244,2509743
-0.005,0.239,0.969,-0.305,2509747
-0.005,0.239,0.969,-0.183,2509751
-0.005,0.239,0.969,-0.183,2509755
-0.004,0.24,0.967,-0.122,2509759
-0.004,0.24,0.967,-0.122,2509763
-0.005,0.239,0.969,-0.183,2509767
-0.005,0.239,0.969,-0.244,2509771
-0.005,0.239,0.969,-0.244,2509775
-0.006,0.237,0.967,-0.122,2509779
-0.006,0.237,0.967,-0.183,2509783
-0.005,0.238,0.968,-0.183,2509787
-0.005,0.238,0.968,-0.183,2509791
-0.005,0.238,0.968,-0.183,2509795
-0.006,0.238,0.967,-0.244,2509799
-0.006,0.238,0.967,-0.061,2509803
-0.005,0.239,0.968,-0.183,2509807
-0.005,0.239,0.968,-0.366,2509811
-0.005,0.239,0.968,-0.366,2509815
-0.005,0.24,0.969,-0.244,2509819
-0.005,0.24,0.969,-0.366,2509823
-0.006,0.236,0.968,-0.305,2509827
-0.006,0.236,0.968,-0.122,2509831
-0.006,0.236,0.968,-0.122,2509835
-0.005,0.237,0.967,-0.183,2509839
-0.005,0.237,0.967,-0.244,2509843
-0.005,0.239,0.968,-0.244,2509847
-0.005,0.239,0.968,-0.183,2509851
-0.005,0.239,0.968,-0.183,2509855
-0.005,0.24,0.966,-0.305,2509858
-0.005,0.24,0.966,-0.244,2509862
-0.006,0.237,0.967,-0.183,2509866
-0.006,0.237,0.967,-0.244,2509870
-0.006,0.237,0.967,-0.244,2509874
-0.006,0.238,0.969,-0.305,2509878
-0.006,0.238,0.969,-0.183,2509882
-0.005,0.238,0.966,-0.122,2509886
-0.005,0.238,0.966,-0.183,2509890
-0.005,0.238,0.966,-0.183,2509894
-0.006,0.237,0.968,-0.183,2509898
-0.006,0.237,0.968,-0.183,2509902
-0.004,0.238,0.969,-0.305,2509906
-0.004,0.238,0.969,-0.244,2509910
-0.004,0.238,0.969,-0.244,2509914
-0.006,0.237,0.968,-0.244,2509918
-0.006,0.237,0.968,-0.244,2509922
-0.007,0.237,0.969,-0.183,2509926
-0.007,0.237,0.969,-0.061,2509930
-0.007,0.237,0.969,-0.061,2509934
-0.007,0.237,0.968,-0.061,2509938
-0.007,0.237,0.968,-0.061,2509942
-0.006,0.238,0.968,-0.122,2509946
-0.006,0.238,0.968,-0.183,2509950
-0.006,0.238,0.968,-0.183,2509954
-0.006,0.238,0.969,-0.183,2509958
-0.006,0.238,0.969,-0.122,2509962
-0.004,0.239,0.969,-0.061,2509966
-0.004,0.239,0.969,-0.183,2509970
-0.004,0.239,0.969,-0.183,2509974
-0.005,0.238,0.969,-0.244,2509978
-0.005,0.238,0.969,-0.183,2509982
-0.004,0.238,0.967,-0.183,2509986
-0.004,0.238,0.967,-0.305,2509990
-0.004,0.238,0.967,-0.305,2509994
-0.004,0.239,0.968,-0.244,2509998
-0.004,0.239,0.968,-0.183,2510002
-0.005,0.237,0.967,-0.122,2510006
-0.005,0.237,0.967,-0.122,2510010
-0.005,0.237,0.967,-0.122,2510013
-0.006,0.239,0.968,-0.305,2510017
-0.006,0.239,0.968,-0.122,2510021
-0.004,0.238,0.968,-0.183,2510025
-0.004,0.238,0.968,-0.305,2510029
-0.004,0.238,0.968,-0.305,2510033
-0.005,0.239,0.968,-0.183,2510037
-0.005,0.239,0.968,-0.244,2510041
-0.005,0.238,0.967,-0.183,2510045
-0.005,0.238,0.967,-0.122,2510049
-0.005,0.238,0.967,-0.122,2510053
-0.005,0.238,0.967,-0.183,2510057
-0.005,0.238,0.967,-0.122,2510061
-0.007,0.237,0.969,-0.122,2510065
-0.007,0.237,0.969,-0.183,2510069
-0.007,0.237,0.969,-0.183,2510073
-0.005,0.236,0.969,-0.061,2510077
-0.005,0.236,0.969,-0.183,2510081
-0.007,0.239,0.967,-0.366,2510085
-0.007,0.239,0.967,-0.244,2510089
-0.007,0.239,0.967,-0.244,2510093
-0.006,0.237,0.967,-0.305,2510097
-0.006,0.237,0.967,-0.244,2510101
-0.006,0.237,0.968,-0.183,2510105
-0.006,0.237,0.968,-0.183,2510109
-0.006,0.237,0.968,-0.183,2510113
-0.005,0.237,0.968,-0.183,2510117
-0.005,0.237,0.968,-0.244,2510121
-0.005,0.236,0.968,-0.122,2510125
-0.005,0.236,0.968,-0.183,2510129
-0.007,0.237,0.967,-0.305,2510133
-0.007,0.237,0.967,-0.305,2510137
-0.007,0.237,0.967,-0.305,2510141
-0.005,0.238,0.968,-0.244,2510145
-0.005,0.238,0.968,-0.244,2510149
-0.007,0.237,0.967,-0.183,2510153
-0.007,0.237,0.967,-0.183,2510157
-0.007,0.237,0.967,-0.244,2510161
-0.006,0.237,0.969,-0.183,2510165
-0.006,0.237,0.969,-0.061,2510169
-0.006,0.238,0.968,-0.244,2510172
-0.006,0.238,0.968,-0.244,2510176
-0.006,0.238,0.968,-0.122,2510180
-0.006,0.239,0.969,-0.244,2510184
-0.006,0.239,0.969,-0.366,2510188
-0.005,0.237,0.967,-0.244,2510192
-0.005,0.237,0.967,-0.244,2510196
-0.005,0.237,0.967,-0.183,2510200
-0.007,0.238,0.967,-0.244,2510204
-0.007,0.238,0.967,-0.122,2510208
-0.006,0.237,0.968,-0.122,2510212
-0.006,0.237,0.968,-0.122,2510216
-0.006,0.237,0.968,-0.183,2510220
-0.004,0.237,0.969,-0.122,2510224
-0.004,0.237,0.969,-0.183,2510228
-0.004,0.238,0.967,-0.183,2510232
-0.004,0.238,0.967,-0.183,2510236
-0.004,0.238,0.967,-0.305,2510240
-0.005,0.238,0.968,-0.122,2510244
-0.005,0.238,0.968,-0.183,2510248
-0.006,0.238,0.967,-0.305,2510252
-0.006,0.238,0.967,-0.305,2510256
-0.006,0.238,0.967,-0.244,2510260
-0.004,0.236,0.968,-0.061,2510264
-0.004,0.236,0.968,-0.244,2510268
-0.006,0.237,0.969,-0.122,2510272
-0.006,0.237,0.969,-0.122,2510276
-0.006,0.237,0.969,-0.183,2510280
-0.005,0.237,0.969,-0.244,2510284
-0.005,0.237,0.969,-0.305,2510288
-0.006,0.238,0.967,-0.122,2510292
-0.006,0.238,0.967,-0.122,2510296
-0.006,0.238,0.967,-0.122,2510300
-0.007,0.238,0.968,-0.183,2510304
-0.007,0.238,0.968,-0.183,2510308
-0.005,0.237,0.969,-0.122,2510312
-0.005,0.237,0.969,-0.122,2510315
-0.005,0.237,0.969,-0.244,2510319
-0.004,0.237,0.967,-0.305,2510323
-0.004,0.237,0.967,-0.244,2510327
-0.005,0.237,0.968,-0.183,2510331
-0.005,0.237,0.968,-0.183,2510335
-0.005,0.237,0.968,-0.183,2510339
-0.006,0.239,0.969,-0.244,2510343
-0.006,0.239,0.969,-0.244,2510347
-0.006,0.238,0.969,-0.061,2510351
-0.006,0.238,0.969,-0.061,2510355
-0.006,0.238,0.969,-0.122,2510359
-0.006,0.237,0.97,-0.305,2510363
-0.006,0.237,0.97,-0.305,2510367
-0.006,0.239,0.969,-0.244,2510371
-0.006,0.239,0.969,-0.244,2510375
-0.006,0.239,0.969,-0.122,2510379
-0.005,0.239,0.969,-0.061,2510383
-0.005,0.239,0.969,-0.122,2510387
-0.005,0.239,0.968,-0.183,2510391
-0.005,0.239,0.968,-0.183,2510395
-0.005,0.239,0.968,-0.183,2510399
-0.005,0.239,0.967,-0.183,2510403
-0.005,0.239,0.967,-0.183,2510407
-0.006,0.238,0.966,-0.122,2510411
-0.006,0.238,0.966,-0.122,2510415
-0.006,0.238,0.966,-0.244,2510419
-0.005,0.238,0.967,-0.061,2510423
-0.005,0.238,0.967,-0.122,2510427
-0.005,0.237,0.967,-0.183,2510431
-0.005,0.237,0.967,-0.183,2510435
-0.005,0.237,0.967,-0.244,2510439
-0.004,0.238,0.968,-0.244,2510443
-0.004,0.238,0.968,-0.244,2510447
-0.005,0.238,0.968,-0.244,2510451
-0.005,0.238,0.968,-0.244,2510455
-0.005,0.238,0.968,-0.244,2510459
-0.007,0.238,0.969,-0.122,2510463
-0.007,0.238,0.969,-0.183,2510467
-0.006,0.238,0.969,-0.122,2510470
-0.006,0.238,0.969,-0.122,2510474
-0.006,0.238,0.969,-0.122,2510478
-0.006,0.237,0.967,-0.183,2510482
-0.006,0.237,0.967,-0.183,2510486
-0.006,0.238,0.968,-0.244,2510490
-0.006,0.238,0.968,-0.244,2510494
-0.006,0.238,0.968,-0.122,2510498
-0.006,0.238,0.969,-0.122,2510502
-0.006,0.238,0.969,-0.061,2510506
-0.007,0.237,0.969,-0.305,2510510
-0.007,0.237,0.969,-0.305,2510514
-0.007,0.237,0.969,-0.244,2510518
-0.005,0.238,0.969,-0.183,2510522
-0.005,0.238,0.969,-0.244,2510526
-0.005,0.238,0.968,0.0,2510530
-0.005,0.238,0.968,0.0,2510534
-0.005,0.238,0.968,-0.122,2510538
-0.006,0.238,0.968,-0.122,2510542
-0.006,0.238,0.968,-0.183,2510546
-0.006,0.238,0.966,-0.183,2510550
-0.006,0.238,0.966,-0.183,2510554
-0.006,0.238,0.966,-0.183,2510558
-0.007,0.237,0.966,-0.305,2510562
-0.007,0.237,0.966,-0.244,2510566
-0.005,0.238,0.968,-0.183,2510570
-0.005,0.238,0.968,-0.183,2510574
-0.005,0.238,0.968,-0.244,2510578
-0.005,0.239,0.968,-0.183,2510582
-0.005,0.239,0.968,-0.183,2510586
-0.006,0.239,0.967,-0.122,2510590
-0.006,0.239,0.967,-0.122,2510594
-0.006,0.239,0.967,-0.122,2510598
-0.005,0.238,0.967,-0.183,2510601
-0.005,0.238,0.967,-0.122,2510605
-0.005,0.237,0.967,-0.183,2510609
-0.005,0.237,0.967,-0.183,2510613
-0.005,0.237,0.967,-0.183,2510617
-0.005,0.237,0.967,-0.244,2510621
-0.005,0.237,0.967,-0.122,2510625
-0.005,0.239,0.968,-0.183,2510629
-0.005,0.239,0.968,-0.183,2510633
-0.005,0.239,0.968,-0.183,2510637
-0.003,0.238,0.968,-0.122,2510641
-0.003,0.238,0.968,-0.122,2510645
-0.006,0.238,0.968,-0.305,2510649
-0.006,0.238,0.968,-0.305,2510653
-0.006,0.238,0.968,-0.183,2510657
-0.007,0.238,0.968,-0.183,2510661
-0.007,0.238,0.968,-0.061,2510665
-0.006,0.237,0.967,-0.183,2510669
-0.006,0.237,0.967,-0.183,2510673
-0.006,0.237,0.967,-0.366,2510677
-0.005,0.238,0.969,-0.244,2510681
-0.005,0.238,0.969,-0.183,2510685
-0.006,0.237,0.968,-0.183,2510689
-0.006,0.237,0.968,-0.183,2510693
-0.006,0.237,0.968,-0.305,2510697
-0.004,0.237,0.969,-0.305,2510701
-0.004,0.237,0.969,-0.183,2510705
-0.005,0.238,0.967,-0.183,2510709
-0.005,0.238,0.967,-0.183,2510713
-0.005,0.238,0.967,-0.244,2510717
-0.005,0.239,0.968,-0.244,2510721
-0.005,0.239,0.968,-0.183,2510725
-0.007,0.238,0.968,-0.244,2510729
-0.007,0.238,0.968,-0.244,2510733
-0.007,0.238,0.968,-0.183,2510737
-0.004,0.238,0.968,-0.244,2510741
-0.004,0.238,0.968,-0.244,2510745
-0.005,0.238,0.969,-0.122,2510749
-0.005,0.238,0.969,-0.122,2510753
-0.005,0.238,0.969,-0.122,2510757
-0.006,0.237,0.968,-0.122,2510761
-0.006,0.237,0.968,-0.244,2510764
-0.005,0.238,0.967,-0.244,2510768
-0.005,0.238,0.967,-0.244,2510772
-0.005,0.238,0.967,-0.305,2510776
-0.007,0.237,0.967,-0.122,2510780
-0.007,0.237,0.967,-0.122,2510784
-0.007,0.239,0.97,-0.244,2510788
-0.007,0.239,0.97,-0.244,2510792
-0.007,0.239,0.97,-0.244,2510796
-0.006,0.238,0.969,-0.183,2510800
-0.006,0.238,0.969,-0.244,2510804
-0.004,0.238,0.969,-0.061,2510808
-0.004,0.238,0.969,-0.183,2510812
-0.004,0.238,0.969,-0.183,2510816
-0.007,0.239,0.968,-0.122,2510820
-0.007,0.239,0.968,-0.183,2510824
-0.007,0.236,0.966,-0.244,2510828
-0.007,0.236,0.966,-0.244,2510832
-0.007,0.236,0.966,-0.244,2510836
-0.006,0.238,0.967,-0.183,2510840
-0.006,0.238,0.967,-0.183,2510844
-0.006,0.239,0.967,-0.183,2510848
-0.006,0.239,0.967,-0.183,2510852
-0.006,0.239,0.967,-0.183,2510856
-0.006,0.238,0.967,-0.122,2510860
-0.006,0.238,0.967,-0.183,2510864
-0.006,0.238,0.969,-0.122,2510868
-0.006,0.238,0.969,-0.183,2510872
-0.006,0.238,0.969,-0.183,2510876
-0.006,0.239,0.967,-0.183,2510880
-0.006,0.239,0.967,-0.305,2510884
-0.006,0.238,0.968,-0.244,2510888
-0.006,0.238,0.968,-0.061,2510892
-0.006,0.238,0.968,-0.061,2510896
-0.005,0.238,0.968,-0.183,2510900
-0.005,0.238,0.968,-0.183,2510904
-0.004,0.237,0.968,-0.244,2510908
-0.004,0.237,0.968,-0.183,2510912
-0.004,0.237,0.968,-0.183,2510916
-0.006,0.238,0.967,-0.244,2510919
-0.006,0.238,0.967,-0.183,2510923
-0.006,0.239,0.968,-0.183,2510927
-0.006,0.239,0.968,-0.061,2510931
-0.006,0.239,0.968,-0.061,2510935
-0.005,0.239,0.968,-0.061,2510939
-0.005,0.239,0.968,-0.122,2510943
-0.005,0.238,0.968,-0.183,2510947
-0.005,0.238,0.968,-0.305,2510951
-0.005,0.238,0.968,-0.305,2510955
-0.005,0.237,0.966,-0.183,2510959
-0.005,0.237,0.966,-0.183,2510963
-0.005,0.239,0.968,-0.366,2510967
-0.005,0.239,0.968,-0.244,2510971
-0.005,0.239,0.968,-0.244,2510975
-0.005,0.238,0.969,-0.183,2510979
-0.005,0.238,0.969,-0.244,2510983
-0.005,0.24,0.968,-0.122,2510987
-0.005,0.24,0.968,-0.122,2510991
-0.005,0.24,0.968,-0.122,2510995
-0.005,0.238,0.968,-0.183,2510999
-0.005,0.238,0.968,-0.122,2511003
-0.006,0.238,0.969,-0.183,2511007
-0.006,0.238,0.969,-0.183,2511011
-0.006,0.238,0.969,-0.183,2511015
-0.006,0.238,0.967,-0.244,2511019
-0.006,0.238,0.967,0.0,2511023
-0.006,0.238,0.969,-0.122,2511027
-0.006,0.238,0.969,-0.183,2511031
-0.006,0.238,0.969,-0.183,2511035
-0.005,0.237,0.967,-0.061,2511039
-0.005,0.237,0.967,-0.122,2511043
-0.006,0.238,0.966,-0.122,2511047
-0.006,0.238,0.966,-0.183,2511051
-0.006,0.238,0.966,-0.183,2511055
-0.005,0.237,0.966,-0.183,2511059
-0.005,0.237,0.966,-0.122,2511063
-0.007,0.238,0.967,-0.183,2511066
-0.007,0.238,0.967,-0.183,2511070
-0.007,0.238,0.967,-0.183,2511074
-0.007,0.238,0.967,-0.183,2511078
-0.007,0.238,0.967,-0.244,2511082
-0.006,0.237,0.967,-0.122,2511086
-0.006,0.237,0.967,-0.183,2511090
-0.006,0.237,0.967,-0.183,2511094
-0.005,0.237,0.967,-0.244,2511098
-0.005,0.237,0.967,-0.183,2511102
-0.007,0.238,0.967,-0.183,2511106
-0.007,0.238,0.967,-0.183,2511110
-0.007,0.238,0.967,-0.183,2511114
-0.006,0.238,0.966,-0.183,2511118
-0.006,0.238,0.966,-0.183,2511122
-0.005,0.238,0.968,-0.183,2511126
-0.005,0.238,0.968,-0.183,2511130
-0.005,0.238,0.968,-0.183,2511134
-0.005,0.239,0.969,-0.122,2511138
-0.005,0.239,0.969,-0.183,2511142
-0.005,0.239,0.968,-0.061,2511146
-0.005,0.239,0.968,-0.061,2511150
-0.005,0.239,0.968,-0.061,2511154
-0.005,0.239,0.967,-0.122,2511158
-0.005,0.239,0.967,-0.122,2511162
-0.006,0.239,0.968,-0.183,2511166
-0.006,0.239,0.968,-0.244,2511170
-0.006,0.239,0.968,-0.244,2511174
-0.006,0.238,0.966,-0.305,2511178
-0.006,0.238,0.966,-0.183,2511182
-0.006,0.238,0.967,-0.183,2511186
-0.006,0.238,0.967,-0.122,2511190
-0.006,0.238,0.967,-0.122,2511194
-0.005,0.238,0.969,-0.244,2511198
-0.005,0.238,0.969,-0.183,2511202
-0.008,0.239,0.968,-0.183,2511206
-0.008,0.239,0.968,-0.183,2511210
-0.008,0.239,0.968,-0.183,2511214
-0.007,0.237,0.967,-0.244,2511218
-0.007,0.237,0.967,-0.122,2511222
-0.005,0.238,0.967,-0.122,2511226
-0.005,0.238,0.967,-0.244,2511230
-0.005,0.238,0.967,-0.244,2511234
-0.004,0.238,0.967,-0.183,2511237
-0.004,0.238,0.967,-0.122,2511241
-0.006,0.239,0.968,-0.244,2511245
-0.006,0.239,0.968,-0.244,2511249
-0.006,0.239,0.968,-0.244,2511253
-0.007,0.238,0.968,-0.305,2511257
-0.007,0.238,0.968,-0.183,2511261
-0.005,0.237,0.968,-0.244,2511265
-0.005,0.237,0.968,-0.244,2511269
-0.005,0.237,0.968,-0.244,2511273
-0.005,0.237,0.969,-0.122,2511277
-0.005,0.237,0.969,-0.122,2511281
-0.006,0.238,0.968,-0.183,2511285
-0.006,0.238,0.968,-0.122,2511289
-0.006,0.238,0.968,-0.122,2511293
-0.006,0.239,0.968,-0.122,2511297
-0.006,0.239,0.968,-0.244,2511301
-0.006,0.238,0.968,-0.183,2511305
-0.006,0.238,0.968,-0.183,2511309
-0.005,0.237,0.968,-0.183,2511313
-0.005,0.237,0.968,-0.183,2511317
-0.005,0.237,0.968,-0.244,2511321
-0.006,0.239,0.967,-0.183,2511325
-0.006,0.239,0.967,-0.122,2511329
-0.005,0.238,0.969,-0.244,2511333
-0.005,0.238,0.969,-0.244,2511337
-0.005,0.238,0.969,-0.244,2511341
-0.005,0.238,0.968,-0.122,2511345
-0.005,0.238,0.968,-0.244,2511349
-0.005,0.238,0.967,-0.305,2511353
-0.005,0.238,0.967,-0.305,2511357
-0.005,0.238,0.967,-0.122,2511361
-0.005,0.239,0.968,-0.061,2511365
-0.005,0.239,0.968,-0.244,2511369
-0.007,0.238,0.968,-0.183,2511373
-0.007,0.238,0.968,-0.183,2511377
-0.007,0.238,0.968,-0.244,2511381
-0.005,0.239,0.967,-0.244,2511385
-0.005,0.239,0.967,-0.305,2511389
-0.005,0.239,0.967,-0.183,2511393
-0.005,0.239,0.967,-0.183,2511397
-0.005,0.239,0.967,-0.122,2511401
-0.007,0.239,0.967,-0.061,2511404
-0.007,0.239,0.967,-0.183,2511408
-0.005,0.241,0.968,-0.183,2511412
-0.005,0.241,0.968,-0.183,2511416
-0.005,0.241,0.968,-0.061,2511420
-0.006,0.239,0.968,-0.122,2511424
-0.006,0.239,0.968,-0.244,2511428
-0.007,0.239,0.969,-0.244,2511432
-0.007,0.239,0.969,-0.244,2511436
-0.007,0.239,0.969,-0.244,2511440
-0.006,0.238,0.969,-0.183,2511444
-0.006,0.238,0.969,-0.305,2511448
-0.004,0.238,0.969,-0.183,2511452
-0.004,0.238,0.969,-0.183,2511456
-0.004,0.238,0.969,-0.122,2511460
-0.005,0.238,0.967,-0.183,2511464
-0.005,0.238,0.967,-0.061,2511468
-0.004,0.237,0.968,-0.122,2511472
-0.004,0.237,0.968,-0.122,2511476
-0.004,0.237,0.968,-0.244,2511480
-0.006,0.237,0.968,-0.061,2511484
-0.006,0.237,0.968,-0.183,2511488
-0.007,0.239,0.967,-0.122,2511492
-0.007,0.239,0.967,-0.122,2511496
-0.007,0.239,0.967,-0.183,2511500
-0.005,0.238,0.968,-0.244,2511504
-0.005,0.238,0.968,-0.244,2511508
-0.004,0.237,0.967,-0.183,2511512
-0.004,0.237,0.967,-0.183,2511516
-0.004,0.237,0.967,-0.244,2511520
-0.005,0.238,0.967,-0.305,2511524
-0.005,0.238,0.967,-0.122,2511528
-0.005,0.238,0.967,-0.183,2511532
-0.005,0.238,0.967,-0.183,2511536
-0.005,0.238,0.967,-0.122,2511540
-0.005,0.239,0.968,-0.305,2511544
-0.005,0.239,0.968,-0.183,2511548
-0.004,0.237,0.968,-0.244,2511552
-0.004,0.237,0.968,-0.244,2511556
-0.004,0.237,0.968,-0.244,2511560
-0.005,0.237,0.967,-0.122,2511564
-0.005,0.237,0.967,-0.183,2511568
-0.005,0.239,0.97,-0.122,2511571
-0.005,0.239,0.97,-0.122,2511575
-0.005,0.239,0.97,-0.244,2511579
-0.006,0.239,0.968,-0.305,2511583
-0.006,0.239,0.968,-0.183,2511587
-0.005,0.238,0.966,-0.122,2511591
-0.005,0.238,0.966,-0.122,2511595
-0.005,0.238,0.966,-0.122,2511599
-0.006,0.237,0.968,-0.183,2511603
-0.006,0.237,0.968,-0.122,2511607
-0.005,0.238,0.968,-0.183,2511611
-0.005,0.238,0.968,-0.183,2511615
-0.005,0.238,0.968,-0.183,2511619
-0.006,0.239,0.968,-0.305,2511623
-0.006,0.239,0.968,-0.366,2511627
-0.004,0.238,0.968,-0.183,2511631
-0.004,0.238,0.968,-0.183,2511635
-0.004,0.238,0.968,-0.183,2511639
-0.006,0.24,0.968,-0.305,2511643
-0.006,0.24,0.968,-0.244,2511647
-0.006,0.239,0.967,-0.244,2511651
-0.006,0.239,0.967,-0.244,2511655
-0.006,0.239,0.967,-0.183,2511659
-0.005,0.237,0.967,-0.122,2511663
-0.005,0.237,0.967,-0.244,2511667
-0.005,0.239,0.967,-0.183,2511671
-0.005,0.239,0.967,-0.183,2511675
-0.005,0.239,0.967,-0.244,2511679
-0.006,0.237,0.968,-0.305,2511683
-0.006,0.237,0.968,-0.183,2511687
-0.007,0.238,0.968,-0.244,2511691
-0.007,0.238,0.968,-0.244,2511695
-0.007,0.238,0.968,-0.244,2511699
-0.006,0.238,0.969,-0.122,2511703
-0.006,0.238,0.969,-0.122,2511707
-0.005,0.237,0.967,-0.122,2511711
-0.005,0.237,0.967,-0.122,2511714
-0.005,0.237,0.967,-0.183,2511718
-0.006,0.237,0.967,-0.183,2511722
-0.006,0.237,0.967,-0.305,2511726
-0.007,0.237,0.97,-0.305,2511730
-0.007,0.237,0.97,-0.305,2511734
-0.007,0.237,0.97,-0.183,2511738
-0.007,0.239,0.967,-0.183,2511742
-0.007,0.239,0.967,-0.183,2511746
-0.005,0.237,0.968,-0.244,2511750
-0.005,0.237,0.968,-0.244,2511754
-0.005,0.237,0.968,-0.183,2511758
-0.006,0.237,0.967,-0.122,2511762
-0.006,0.237,0.967,-0.244,2511766
-0.006,0.237,0.966,-0.183,2511770
-0.006,0.237,0.966,-0.183,2511774
-0.006,0.237,0.966,-0.122,2511778
-0.006,0.237,0.967,-0.244,2511782
-0.006,0.237,0.967,-0.244,2511786
-0.005,0.238,0.968,-0.122,2511790
-0.005,0.238,0.968,-0.122,2511794
-0.005,0.238,0.968,-0.183,2511798
-0.005,0.237,0.967,-0.244,2511802
-0.005,0.237,0.967,-0.183,2511806
-0.005,0.238,0.967,-0.061,2511810
-0.005,0.238,0.967,-0.061,2511814
-0.005,0.238,0.967,-0.122,2511818
-0.004,0.236,0.967,-0.305,2511822
-0.004,0.236,0.967,-0.244,2511826
-0.006,0.238,0.968,-0.122,2511830
-0.006,0.238,0.968,-0.122,2511834
-0.006,0.238,0.968,-0.122,2511838
-0.005,0.24,0.968,-0.061,2511842
-0.005,0.24,0.968,-0.122,2511846
-0.004,0.238,0.969,-0.122,2511850
-0.004,0.238,0.969,-0.122,2511854
-0.004,0.238,0.969,-0.183,2511858
-0.006,0.238,0.968,-0.183,2511862
-0.006,0.238,0.968,-0.244,2511866
-0.007,0.238,0.968,-0.244,2511869
-0.007,0.238,0.968,-0.244,2511873
-0.007,0.238,0.968,-0.061,2511877
-0.006,0.236,0.968,-0.061,2511881
-0.006,0.236,0.968,-0.244,2511885
-0.006,0.239,0.969,-0.183,2511889
-0.006,0.239,0.969,-0.305,2511893
-0.006,0.239,0.969,-0.305,2511897
-0.004,0.238,0.967,-0.244,2511901
-0.004,0.238,0.967,-0.183,2511905
-0.005,0.238,0.967,-0.122,2511909
-0.005,0.238,0.967,-0.183,2511913
-0.005,0.238,0.967,-0.183,2511917
-0.005,0.238,0.967,-0.305,2511921
-0.005,0.238,0.967,-0.305,2511925
-0.006,0.237,0.966,-0.183,2511929
-0.006,0.237,0.966,-0.183,2511933
-0.006,0.237,0.966,-0.183,2511937
-0.005,0.238,0.968,-0.183,2511941
-0.005,0.238,0.968,-0.244,2511945
-0.005,0.238,0.967,-0.244,2511949
-0.005,0.238,0.967,-0.244,2511953
-0.005,0.238,0.967,-0.244,2511957
-0.006,0.239,0.967,-0.244,2511961
-0.006,0.239,0.967,-0.183,2511965
-0.006,0.238,0.968,-0.183,2511969
-0.006,0.238,0.968,-0.061,2511973
-0.006,0.238,0.968,-0.061,2511977
-0.006,0.238,0.968,-0.122,2511981
-0.006,0.238,0.968,-0.244,2511985
-0.005,0.238,0.968,-0.244,2511989
-0.005,0.238,0.968,-0.061,2511993
-0.005,0.238,0.968,-0.061,2511997
-0.007,0.238,0.967,-0.183,2512001
-0.007,0.238,0.967,-0.183,2512005
-0.007,0.236,0.967,-0.122,2512009
-0.007,0.236,0.967,-0.183,2512013
-0.007,0.236,0.967,-0.183,2512017
-0.006,0.237,0.967,-0.244,2512020
-0.006,0.237,0.967,-0.122,2512024
-0.005,0.236,0.969,-0.244,2512028
-0.005,0.236,0.969,-0.122,2512032
-0.005,0.236,0.969,-0.122,2512036
-0.005,0.237,0.969,-0.122,2512040
-0.005,0.237,0.969,-0.122,2512044
-0.004,0.238,0.969,-0.122,2512048
-0.004,0.238,0.969,-0.183,2512052
-0.004,0.238,0.969,-0.183,2512056
-0.004,0.239,0.968,-0.244,2512060
-0.004,0.239,0.968,-0.061,2512064
-0.006,0.239,0.969,-0.244,2512068
-0.006,0.239,0.969,-0.122,2512072
-0.006,0.239,0.969,-0.122,2512076
-0.004,0.239,0.968,-0.061,2512080
-0.004,0.239,0.968,-0.244,2512084
-0.005,0.238,0.967,-0.305,2512088
-0.005,0.238,0.967,-0.244,2512092
-0.005,0.238,0.967,-0.244,2512096
-0.006,0.238,0.966,-0.183,2512100
-0.006,0.238,0.966,-0.061,2512104
-0.006,0.24,0.967,-0.122,2512108
-0.006,0.24,0.967,-0.061,2512112
-0.006,0.24,0.967,-0.061,2512116
-0.007,0.237,0.967,-0.183,2512120
-0.007,0.237,0.967,-0.122,2512124
-0.005,0.237,0.969,-0.122,2512128
-0.005,0.237,0.969,-0.061,2512132
-0.005,0.237,0.969,-0.061,2512136
-0.004,0.238,0.968,0.0,2512140
-0.004,0.238,0.968,-0.122,2512144
-0.006,0.238,0.967,-0.183,2512148
-0.006,0.238,0.967,-0.305,2512152
-0.006,0.238,0.967,-0.305,2512156
-0.004,0.238,0.968,-0.366,2512160
-0.004,0.238,0.968,-0.244,2512164
-0.006,0.238,0.969,-0.183,2512167
-0.006,0.238,0.969,-0.244,2512171
-0.006,0.238,0.969,-0.244,2512175
-0.007,0.239,0.966,-0.305,2512179
-0.007,0.239,0.966,-0.244,2512183
-0.006,0.239,0.968,-0.122,2512187
-0.006,0.239,0.968,-0.244,2512191
-0.006,0.239,0.968,-0.244,2512195
-0.006,0.237,0.969,-0.244,2512199
-0.006,0.237,0.969,-0.183,2512203
-0.004,0.237,0.969,-0.305,2512207
-0.004,0.237,0.969,-0.244,2512211
-0.004,0.237,0.969,-0.244,2512215
-0.005,0.238,0.967,-0.183,2512219
-0.005,0.238,0.967,-0.183,2512223
-0.005,0.236,0.967,-0.244,2512227
-0.005,0.236,0.967,-0.183,2512231
-0.005,0.236,0.967,-0.183,2512235
-0.006,0.236,0.969,-0.244,2512239
-0.006,0.236,0.969,-0.305,2512243
-0.006,0.239,0.966,-0.305,2512247
-0.006,0.239,0.966,-0.244,2512251
-0.006,0.239,0.966,-0.244,2512255
-0.005,0.238,0.967,-0.244,2512259
-0.005,0.238,0.967,-0.122,2512263
-0.004,0.236,0.967,-0.122,2512267
-0.004,0.236,0.967,-0.061,2512271
-0.004,0.236,0.967,-0.061,2512275
-0.006,0.238,0.969,-0.183,2512279
-0.006,0.238,0.969,-0.122,2512283
-0.005,0.239,0.968,-0.244,2512287
-0.005,0.239,0.968,-0.122,2512291
-0.005,0.239,0.968,-0.122,2512295
-0.005,0.237,0.967,-0.183,2512299
-0.005,0.237,0.967,-0.244,2512303
-0.005,0.238,0.969,-0.305,2512307
-0.005,0.238,0.969,-0.244,2512311
-0.005,0.238,0.969,-0.244,2512315
-0.007,0.238,0.969,-0.244,2512319
-0.007,0.238,0.969,-0.183,2512322
-0.006,0.237,0.969,-0.122,2512326
-0.006,0.237,0.969,-0.122,2512330
-0.006,0.237,0.969,-0.122,2512334
-0.006,0.239,0.97,-0.122,2512338
-0.006,0.239,0.97,0.061,2512342
-0.005,0.238,0.967,-0.122,2512346
-0.005,0.238,0.967,-0.061,2512350
-0.005,0.238,0.967,-0.061,2512354
-0.005,0.238,0.969,-0.061,2512358
-0.005,0.238,0.969,-0.183,2512362
-0.004,0.239,0.969,-0.183,2512366
-0.004,0.239,0.969,-0.122,2512370
-0.004,0.239,0.969,-0.122,2512374
-0.005,0.237,0.969,-0.122,2512378
-0.005,0.237,0.969,-0.183,2512382
-0.005,0.238,0.969,-0.244,2512386
-0.005,0.238,0.969,-0.183,2512390
-0.005,0.238,0.969,-0.183,2512394
-0.005,0.237,0.968,-0.183,2512398
-0.005,0.237,0.968,-0.244,2512402
-0.008,0.237,0.968,-0.183,2512406
-0.008,0.237,0.968,-0.122,2512410
-0.008,0.237,0.968,-0.122,2512414
-0.007,0.238,0.97,-0.366,2512418
-0.007,0.238,0.97,-0.244,2512422
-0.005,0.236,0.968,-0.244,2512426
-0.005,0.236,0.968,-0.427,2512430
-0.005,0.236,0.968,-0.427,2512434
-0.005,0.237,0.967,-0.305,2512438
-0.005,0.237,0.967,-0.122,2512442
-0.006,0.238,0.967,-0.122,2512446
-0.006,0.238,0.967,-0.183,2512450
-0.006,0.238,0.967,-0.183,2512454
-0.006,0.238,0.968,-0.122,2512458
-0.006,0.238,0.968,-0.183,2512462
-0.007,0.239,0.967,-0.244,2512466
-0.007,0.239,0.967,-0.244,2512470
-0.007,0.239,0.967,-0.244,2512474
-0.005,0.237,0.967,-0.183,2512477
-0.005,0.237,0.967,-0.183,2512481
-0.006,0.237,0.969,-0.244,2512485
-0.006,0.237,0.969,-0.183,2512489
-0.006,0.237,0.969,-0.183,2512493
-0.006,0.237,0.969,-0.183,2512497
-0.006,0.237,0.969,-0.061,2512501
-0.006,0.238,0.969,-0.183,2512505
-0.006,0.238,0.969,-0.183,2512509
-0.006,0.238,0.969,-0.183,2512513
-0.006,0.238,0.966,-0.183,2512517
-0.006,0.238,0.966,-0.244,2512521
-0.005,0.237,0.967,-0.183,2512525
-0.005,0.237,0.967,-0.122,2512529
-0.005,0.237,0.967,-0.122,2512533
-0.006,0.237,0.969,-0.183,2512537
-0.006,0.237,0.969,-0.122,2512541
-0.007,0.237,0.967,-0.122,2512545
-0.007,0.237,0.967,-0.183,2512549
-0.005,0.239,0.968,-0.061,2512553
-0.005,0.239,0.968,-0.061,2512557
-0.005,0.239,0.968,-0.183,2512561
-0.005,0.239,0.967,-0.305,2512565
-0.005,0.239,0.967,-0.244,2512569
-0.004,0.237,0.967,-0.305,2512573
-0.004,0.237,0.967,-0.305,2512577
-0.004,0.237,0.967,-0.183,2512581
-0.006,0.238,0.969,-0.305,2512585
-0.006,0.238,0.969,-0.305,2512589
-0.006,0.238,0.968,-0.244,2512593
-0.006,0.238,0.968,-0.244,2512597
-0.006,0.238,0.968,-0.122,2512601
-0.006,0.237,0.968,-0.244,2512605
-0.006,0.237,0.968,-0.244,2512609
-0.006,0.238,0.967,-0.061,2512613
-0.006,0.238,0.967,-0.061,2512617
-0.006,0.238,0.967,-0.244,2512620
-0.005,0.238,0.967,-0.183,2512624
-0.005,0.238,0.967,-0.183,2512628
-0.005,0.239,0.968,-0.305,2512632
-0.005,0.239,0.968,-0.305,2512636
-0.005,0.239,0.968,-0.305,2512640
-0.006,0.237,0.967,-0.061,2512644
-0.006,0.237,0.967,-0.244,2512648
-0.005,0.237,0.968,-0.244,2512652
-0.005,0.237,0.968,-0.244,2512656
-0.005,0.237,0.968,-0.305,2512660
-0.005,0.237,0.969,-0.183,2512664
-0.005,0.237,0.969,-0.122,2512668
-0.006,0.238,0.968,-0.183,2512672
-0.006,0.238,0.968,-0.183,2512676
-0.006,0.238,0.968,-0.244,2512680
-0.006,0.237,0.969,-0.183,2512684
-0.006,0.237,0.969,-0.366,2512688
-0.005,0.237,0.967,-0.122,2512692
-0.005,0.237,0.967,-0.122,2512696
-0.005,0.237,0.967,-0.061,2512700
-0.007,0.237,0.967,-0.183,2512704
-0.007,0.237,0.967,-0.244,2512708
-0.005,0.237,0.968,-0.183,2512712
-0.005,0.237,0.968,-0.183,2512716
-0.005,0.237,0.968,-0.122,2512720
-0.005,0.236,0.968,-0.061,2512724
-0.005,0.236,0.968,-0.305,2512728
-0.005,0.237,0.968,-0.244,2512732
-0.005,0.237,0.968,-0.244,2512736
-0.005,0.237,0.968,-0.122,2512740
-0.005,0.239,0.967,-0.366,2512744
-0.005,0.239,0.967,-0.305,2512748
-0.005,0.238,0.967,-0.183,2512752
-0.005,0.238,0.967,-0.183,2512756
-0.005,0.238,0.967,-0.122,2512760
-0.006,0.238,0.969,-0.122,2512764
-0.006,0.238,0.969,0.0,2512768
-0.005,0.238,0.968,-0.061,2512771
-0.005,0.238,0.968,-0.061,2512775
-0.005,0.238,0.968,-0.305,2512779
-0.005,0.238,0.967,-0.305,2512783
-0.005,0.238,0.967,-0.244,2512787
-0.004,0.237,0.968,-0.122,2512791
-0.004,0.237,0.968,-0.122,2512795
-0.004,0.237,0.968,-0.183,2512799
-0.006,0.237,0.967,-0.244,2512803
-0.006,0.237,0.967,-0.183,2512807
-0.006,0.239,0.967,-0.244,2512811
-0.006,0.239,0.967,-0.244,2512815
-0.006,0.239,0.967,-0.183,2512819
-0.006,0.238,0.967,-0.122,2512823
-0.006,0.238,0.967,-0.061,2512827
-0.007,0.238,0.968,-0.183,2512831
-0.007,0.238,0.968,-0.183,2512835
-0.007,0.238,0.968,-0.183,2512839
-0.007,0.237,0.968,-0.061,2512843
-0.007,0.237,0.968,-0.244,2512847
-0.006,0.237,0.968,-0.183,2512851
-0.006,0.237,0.968,-0.183,2512855
-0.006,0.237,0.968,-0.122,2512859
-0.004,0.237,0.967,-0.122,2512863
-0.004,0.237,0.967,-0.183,2512867
-0.004,0.239,0.966,-0.183,2512871
-0.004,0.239,0.966,-0.183,2512875
-0.004,0.239,0.966,-0.244,2512879
-0.005,0.238,0.967,-0.244,2512883
-0.005,0.238,0.967,-0.122,2512887
-0.006,0.236,0.966,-0.183,2512891
-0.006,0.236,0.966,-0.183,2512895
-0.006,0.236,0.966,-0.183,2512899
-0.005,0.237,0.968,-0.244,2512903
-0.005,0.237,0.968,-0.183,2512907
-0.006,0.238,0.969,-0.122,2512911
-0.006,0.238,0.969,-0.122,2512915
-0.006,0.238,0.969,-0.244,2512919
-0.006,0.239,0.969,-0.122,2512922
-0.006,0.239,0.969,-0.061,2512926
-0.007,0.239,0.968,-0.244,2512930
-0.007,0.239,0.968,-0.244,2512934
-0.007,0.239,0.968,-0.183,2512938
-0.005,0.238,0.967,-0.244,2512942
-0.005,0.238,0.967,-0.305,2512946
-0.006,0.237,0.968,-0.244,2512950
-0.006,0.237,0.968,-0.244,2512954
-0.006,0.237,0.968,-0.244,2512958
-0.004,0.238,0.969,-0.183,2512962
-0.004,0.238,0.969,-0.183,2512966
-0.004,0.239,0.968,-0.183,2512970
-0.004,0.239,0.968,-0.183,2512974
-0.004,0.239,0.968,-0.183,2512978
-0.006,0.238,0.968,-0.061,2512982
-0.006,0.238,0.968,-0.122,2512986
-0.006,0.237,0.968,-0.122,2512990
-0.006,0.237,0.968,-0.122,2512994
-0.006,0.237,0.968,-0.061,2512998
-0.005,0.238,0.967,-0.122,2513002
-0.005,0.238,0.967,-0.122,2513006
-0.005,0.238,0.969,-0.122,2513010
-0.005,0.238,0.969,-0.122,2513014
-0.005,0.238,0.969,-0.122,2513018
-0.005,0.24,0.969,-0.244,2513022
-0.005,0.24,0.969,-0.122,2513026
-0.006,0.238,0.967,-0.183,2513030
-0.006,0.238,0.967,-0.183,2513034
-0.006,0.238,0.967,-0.183,2513038
-0.006,0.237,0.968,-0.183,2513042
-0.006,0.237,0.968,-0.122,2513046
-0.006,0.237,0.967,-0.183,2513050
-0.006,0.237,0.967,-0.183,2513054
-0.006,0.237,0.967,-0.305,2513058
-0.007,0.238,0.967,-0.244,2513062
-0.007,0.238,0.967,-0.183,2513066
-0.006,0.238,0.97,-0.122,2513070
-0.006,0.238,0.97,-0.122,2513074
-0.006,0.238,0.97,-0.122,2513078
-0.005,0.238,0.968,-0.183,2513082
-0.005,0.238,0.968,-0.244,2513086
-0.006,0.24,0.966,-0.122,2513089
-0.006,0.24,0.966,-0.122,2513093
-0.006,0.24,0.966,-0.244,2513097
-0.005,0.24,0.967,-0.244,2513101
-0.005,0.24,0.967,-0.244,2513105
-0.006,0.238,0.968,-0.061,2513109
-0.006,0.238,0.968,-0.061,2513113
-0.006,0.238,0.968,-0.305,2513117
-0.006,0.237,0.968,-0.305,2513121
-0.006,0.237,0.968,-0.183,2513125
-0.007,0.237,0.967,-0.244,2513129
-0.007,0.237,0.967,-0.244,2513133
-0.007,0.237,0.967,-0.305,2513137
-0.006,0.239,0.968,-0.183,2513141
-0.006,0.239,0.968,-0.183,2513145
-0.006,0.237,0.967,-0.122,2513149
-0.006,0.237,0.967,-0.122,2513153
-0.006,0.237,0.967,-0.183,2513157
-0.005,0.238,0.968,-0.122,2513161
-0.005,0.238,0.968,-0.061,2513165
-0.004,0.238,0.969,-0.122,2513169
-0.004,0.238,0.969,-0.122,2513173
-0.004,0.238,0.969,-0.244,2513177
-0.005,0.238,0.969,-0.305,2513181
-0.005,0.238,0.969,-0.244,2513185
-0.008,0.238,0.969,-0.122,2513189
-0.008,0.238,0.969,-0.122,2513193
-0.008,0.238,0.969,-0.183,2513197
-0.005,0.239,0.968,-0.305,2513201
-0.005,0.239,0.968,-0.183,2513205
-0.004,0.238,0.968,-0.122,2513209
-0.004,0.238,0.968,-0.122,2513213
-0.004,0.238,0.968,-0.122,2513217
-0.004,0.238,0.966,-0.183,2513221
-0.004,0.238,0.966,-0.244,2513224
-0.006,0.238,0.967,-0.244,2513228
-0.006,0.238,0.967,-0.244,2513232
-0.006,0.238,0.967,-0.244,2513236
-0.007,0.238,0.968,-0.183,2513240
-0.007,0.238,0.968,-0.183,2513244
-0.007,0.237,0.966,-0.305,2513248
-0.007,0.237,0.966,-0.183,2513252
-0.007,0.237,0.966,-0.183,2513256
-0.005,0.238,0.968,-0.244,2513260
-0.005,0.238,0.968,-0.305,2513264
-0.004,0.239,0.967,-0.244,2513268
-0.004,0.239,0.967,-0.366,2513272
-0.004,0.239,0.967,-0.366,2513276
-0.006,0.238,0.967,-0.305,2513280
-0.006,0.238,0.967,-0.183,2513284
-0.005,0.237,0.967,-0.183,2513288
-0.005,0.237,0.967,-0.183,2513292
-0.005,0.237,0.967,-0.183,2513296
-0.006,0.238,0.97,-0.366,2513300
-0.006,0.238,0.97,-0.244,2513304
-0.005,0.238,0.968,-0.183,2513308
-0.005,0.238,0.968,-0.061,2513312
-0.005,0.238,0.968,-0.061,2513316
-0.006,0.238,0.968,-0.122,2513320
-0.006,0.238,0.968,-0.244,2513324
-0.007,0.237,0.967,-0.244,2513328
-0.007,0.237,0.967,-0.305,2513332
-0.007,0.237,0.967,-0.305,2513336
-0.006,0.238,0.968,-0.244,2513340
-0.006,0.238,0.968,-0.183,2513344
-0.005,0.236,0.967,-0.122,2513348
-0.005,0.236,0.967,-0.244,2513352
-0.005,0.236,0.967,-0.244,2513356
-0.006,0.237,0.968,-0.305,2513360
-0.006,0.237,0.968,-0.305,2513364
-0.006,0.237,0.969,-0.305,2513368
-0.006,0.237,0.969,-0.305,2513372
-0.006,0.237,0.969,-0.305,2513376
-0.006,0.237,0.966,-0.183,2513380
-0.006,0.237,0.966,-0.305,2513383
-0.006,0.238,0.968,-0.244,2513387
-0.006,0.238,0.968,-0.244,2513391
-0.006,0.238,0.968,-0.244,2513395
-0.005,0.238,0.967,-0.122,2513399
-0.005,0.238,0.967,-0.122,2513403
-0.006,0.237,0.968,-0.122,2513407
-0.006,0.237,0.968,-0.183,2513411
-0.006,0.237,0.968,-0.183,2513415
-0.007,0.238,0.967,-0.244,2513419
-0.007,0.238,0.967,-0.122,2513423
-0.006,0.239,0.967,-0.183,2513427
-0.006,0.239,0.967,-0.183,2513431
-0.006,0.239,0.967,-0.183,2513435
-0.006,0.239,0.968,-0.244,2513439
-0.006,0.239,0.968,-0.244,2513443
-0.006,0.237,0.969,-0.122,2513447
-0.006,0.237,0.969,-0.244,2513451
-0.006,0.237,0.969,-0.244,2513455
-0.006,0.238,0.969,-0.244,2513459
-0.006,0.238,0.969,-0.122,2513463
-0.006,0.24,0.968,-0.244,2513467
-0.006,0.24,0.968,-0.427,2513471
-0.006,0.24,0.968,-0.427,2513475
-0.006,0.238,0.968,-0.244,2513479
-0.006,0.238,0.968,-0.244,2513483
-0.005,0.238,0.968,-0.305,2513487
-0.005,0.238,0.968,-0.366,2513491
-0.005,0.238,0.968,-0.366,2513495
-0.004,0.236,0.967,-0.305,2513499
-0.004,0.236,0.967,-0.183,2513503
-0.004,0.236,0.968,-0.183,2513507
-0.004,0.236,0.968,-0.183,2513511
-0.004,0.236,0.968,-0.183,2513515
-0.005,0.239,0.968,-0.305,2513519
-0.005,0.239,0.968,-0.122,2513523
-0.006,0.238,0.969,-0.061,2513527
-0.006,0.238,0.969,-0.244,2513530
-0.006,0.238,0.969,-0.244,2513534
-0.005,0.237,0.968,-0.183,2513538
-0.005,0.237,0.968,-0.366,2513542
-0.006,0.238,0.968,-0.244,2513546
-0.006,0.238,0.968,-0.244,2513550
-0.006,0.238,0.968,-0.244,2513554
-0.006,0.238,0.967,-0.244,2513558
-0.006,0.238,0.967,-0.122,2513562
-0.005,0.237,0.968,-0.183,2513566
-0.005,0.237,0.968,-0.183,2513570
-0.005,0.237,0.968,-0.183,2513574
-0.005,0.238,0.968,-0.244,2513578
-0.005,0.238,0.968,-0.244,2513582
-0.004,0.239,0.968,-0.244,2513586
-0.004,0.239,0.968,-0.183,2513590
-0.004,0.239,0.968,-0.183,2513594
-0.005,0.238,0.97,-0.183,2513598
-0.005,0.238,0.97,-0.244,2513602
-0.005,0.238,0.969,-0.244,2513606
-0.005,0.238,0.969,-0.122,2513610
-0.005,0.238,0.969,-0.122,2513614
-0.007,0.238,0.965,-0.061,2513618
-0.007,0.238,0.965,-0.122,2513622
-0.008,0.239,0.968,-0.244,2513626
-0.008,0.239,0.968,-0.122,2513630
-0.008,0.239,0.968,-0.122,2513634
-0.007,0.237,0.969,-0.061,2513638
-0.007,0.237,0.969,-0.061,2513642
-0.006,0.238,0.967,-0.122,2513646
-0.006,0.238,0.967,-0.183,2513650
-0.006,0.238,0.967,-0.183,2513654
-0.005,0.238,0.967,-0.244,2513658
-0.005,0.238,0.967,-0.183,2513662
-0.005,0.237,0.967,-0.122,2513666
-0.005,0.237,0.967,-0.122,2513670
-0.005,0.237,0.967,-0.122,2513674
-0.006,0.237,0.967,-0.305,2513678
-0.006,0.237,0.967,-0.244,2513682
-0.007,0.238,0.969,-0.244,2513685
-0.007,0.238,0.969,-0.183,2513689
-0.007,0.238,0.969,-0.183,2513693
-0.006,0.237,0.968,-0.244,2513697
-0.006,0.237,0.968,-0.305,2513701
-0.006,0.237,0.968,-0.244,2513705
-0.006,0.237,0.968,-0.122,2513709
-0.006,0.237,0.968,-0.122,2513713
-0.007,0.238,0.968,-0.183,2513717
-0.007,0.238,0.968,-0.305,2513721
-0.007,0.236,0.967,-0.122,2513725
-0.007,0.236,0.967,-0.244,2513729
-0.007,0.236,0.967,-0.244,2513733
-0.005,0.237,0.968,-0.244,2513737
-0.005,0.237,0.968,-0.122,2513741
-0.004,0.237,0.969,-0.183,2513745
-0.004,0.237,0.969,-0.183,2513749
-0.004,0.237,0.969,-0.183,2513753
-0.004,0.236,0.968,-0.305,2513757
-0.004,0.236,0.968,-0.183,2513761
-0.006,0.237,0.967,-0.183,2513765
-0.006,0.237,0.967,-0.122,2513769
-0.006,0.237,0.967,-0.122,2513773
-0.007,0.238,0.967,-0.183,2513777
-0.007,0.238,0.967,-0.183,2513781
-0.006,0.238,0.967,-0.122,2513785
-0.006,0.238,0.967,-0.244,2513789
-0.006,0.238,0.967,-0.244,2513793
-0.004,0.239,0.966,-0.183,2513797
-0.004,0.239,0.966,-0.122,2513801
-0.006,0.238,0.966,-0.244,2513805
-0.006,0.238,0.966,-0.244,2513809
-0.006,0.238,0.966,-0.244,2513813
-0.005,0.238,0.968,-0.305,2513817
-0.005,0.238,0.968,-0.305,2513821
-0.005,0.239,0.969,-0.183,2513825
-0.005,0.239,0.969,-0.122,2513829
-0.005,0.239,0.969,-0.122,2513833
-0.005,0.238,0.968,-0.244,2513837
-0.005,0.238,0.968,-0.183,2513840
-0.002,0.239,0.969,-0.183,2513844
-0.002,0.239,0.969,-0.183,2513848
-0.002,0.239,0.967,-0.122,2513852
-0.002,0.239,0.967,-0.122,2513856
-0.002,0.239,0.967,-0.183,2513860
-0.004,0.238,0.967,-0.122,2513864
-0.004,0.238,0.967,-0.122,2513868
-0.005,0.238,0.969,-0.305,2513872
-0.005,0.238,0.969,-0.305,2513876
-0.005,0.238,0.969,-0.183,2513880
-0.006,0.239,0.968,-0.183,2513884
-0.006,0.239,0.968,-0.244,2513888
-0.007,0.239,0.967,-0.122,2513892
-0.007,0.239,0.967,-0.122,2513896
-0.007,0.239,0.967,-0.061,2513900
-0.007,0.239,0.966,-0.122,2513904
-0.007,0.239,0.966,-0.366,2513908
-0.008,0.24,0.967,-0.366,2513912
-0.008,0.24,0.967,-0.366,2513916
-0.008,0.24,0.967,-0.244,2513920
-0.008,0.236,0.969,-0.244,2513924
-0.008,0.236,0.969,-0.122,2513928
-0.007,0.236,0.969,-0.122,2513932
-0.007,0.236,0.969,-0.122,2513936
-0.007,0.236,0.969,-0.244,2513940
-0.005,0.235,0.969,-0.183,2513944
-0.005,0.235,0.969,-0.183,2513948
-0.005,0.237,0.968,-0.183,2513952
-0.005,0.237,0.968,-0.183,2513956
-0.005,0.237,0.968,-0.183,2513960
-0.004,0.236,0.967,-0.183,2513964
-0.004,0.236,0.967,-0.183,2513968
-0.007,0.236,0.968,-0.244,2513972
-0.007,0.236,0.968,-0.244,2513976
-0.007,0.236,0.968,0.0,2513979
-0.007,0.237,0.969,-0.183,2513983
-0.007,0.237,0.969,-0.366,2513987
-0.006,0.238,0.968,-0.122,2513991
-0.006,0.238,0.968,-0.122,2513995
-0.006,0.238,0.968,-0.305,2513999
-0.006,0.237,0.969,-0.122,2514003
-0.006,0.237,0.969,-0.061,2514007
-0.006,0.237,0.969,-0.183,2514011
-0.006,0.237,0.969,-0.183,2514015
-0.006,0.237,0.969,-0.244,2514019
-0.006,0.238,0.968,-0.122,2514023
-0.006,0.238,0.968,-0.244,2514027
-0.008,0.24,0.967,-0.244,2514031
-0.008,0.24,0.967,-0.244,2514035
-0.008,0.24,0.967,-0.244,2514039
-0.005,0.239,0.966,-0.183,2514043
-0.005,0.239,0.966,-0.061,2514047
-0.006,0.239,0.968,-0.183,2514051
-0.006,0.239,0.968,-0.183,2514055
-0.006,0.239,0.968,0.0,2514059
-0.004,0.239,0.969,0.061,2514063
-0.004,0.239,0.969,-0.244,2514067
-0.005,0.238,0.968,-0.183,2514071
-0.005,0.238,0.968,-0.183,2514075
-0.005,0.238,0.968,-0.183,2514079
-0.004,0.237,0.966,-0.183,2514083
-0.004,0.237,0.966,-0.244,2514087
-0.005,0.239,0.968,-0.305,2514091
-0.005,0.239,0.968,-0.305,2514095
-0.005,0.239,0.968,-0.244,2514099
-0.005,0.24,0.967,-0.183,2514103
-0.005,0.24,0.967,-0.183,2514107
-0.005,0.239,0.968,-0.183,2514110
-0.005,0.239,0.968,-0.183,2514114
-0.005,0.239,0.968,-0.122,2514118
-0.004,0.237,0.967,-0.183,2514122
-0.004,0.237,0.967,-0.305,2514126
-0.005,0.238,0.969,-0.305,2514130
-0.005,0.238,0.969,-0.305,2514134
-0.005,0.238,0.969,-0.183,2514138
-0.007,0.236,0.969,-0.244,2514142
-0.007,0.236,0.969,-0.183,2514146
-0.006,0.235,0.968,-0.244,2514150
-0.006,0.235,0.968,-0.244,2514154
-0.006,0.235,0.968,-0.122,2514158
-0.007,0.237,0.967,-0.122,2514162
-0.007,0.237,0.967,-0.427,2514166
-0.007,0.236,0.968,-0.305,2514170
-0.007,0.236,0.968,-0.305,2514174
-0.007,0.236,0.968,-0.244,2514178
-0.004,0.235,0.969,-0.183,2514182
-0.004,0.235,0.969,-0.183,2514186
-0.004,0.238,0.968,-0.122,2514190
-0.004,0.238,0.968,-0.122,2514194
-0.004,0.238,0.968,-0.183,2514198
-0.005,0.237,0.968,-0.183,2514202
-0.005,0.237,0.968,-0.366,2514206
-0.006,0.237,0.968,-0.244,2514210
-0.006,0.237,0.968,-0.244,2514214
-0.006,0.237,0.968,-0.183,2514218
-0.006,0.238,0.968,-0.122,2514222
-0.006,0.238,0.968,-0.061,2514226
-0.006,0.238,0.968,-0.183,2514230
-0.006,0.238,0.968,-0.183,2514234
-0.006,0.238,0.968,-0.244,2514238
-0.005,0.239,0.966,-0.183,2514242
-0.005,0.239,0.966,-0.305,2514246
-0.008,0.238,0.966,-0.122,2514250
-0.008,0.238,0.966,-0.122,2514254
-0.008,0.238,0.966,-0.183,2514257
-0.006,0.239,0.967,-0.305,2514261
-0.006,0.239,0.967,-0.122,2514265
-0.006,0.239,0.967,-0.183,2514269
-0.006,0.239,0.967,-0.183,2514273
-0.006,0.239,0.967,-0.183,2514277
-0.007,0.238,0.968,-0.122,2514281
-0.007,0.238,0.968,-0.244,2514285
-0.005,0.24,0.967,-0.183,2514289
-0.005,0.24,0.967,-0.183,2514293
-0.005,0.24,0.967,-0.122,2514297
-0.005,0.239,0.968,-0.183,2514301
-0.005,0.239,0.968,-0.305,2514305
-0.005,0.239,0.967,-0.122,2514309
-0.005,0.239,0.967,-0.122,2514313
-0.005,0.239,0.967,-0.122,2514317
-0.006,0.239,0.968,-0.305,2514321
-0.006,0.239,0.968,-0.183,2514325
-0.005,0.239,0.968,-0.183,2514329
-0.005,0.239,0.968,-0.183,2514333
-0.005,0.239,0.968,-0.061,2514337
-0.005,0.239,0.969,-0.122,2514341
-0.005,0.239,0.969,-0.183,2514345
-0.005,0.237,0.969,-0.183,2514349
-0.005,0.237,0.969,-0.183,2514353
-0.005,0.237,0.969,-0.244,2514357
-0.004,0.237,0.967,-0.183,2514361
-0.004,0.237,0.967,-0.183,2514365
-0.005,0.237,0.968,-0.183,2514369
-0.005,0.237,0.968,-0.183,2514373
-0.005,0.237,0.968,-0.183,2514377
-0.004,0.238,0.969,-0.183,2514381
-0.004,0.238,0.969,-0.183,2514385
-0.005,0.237,0.969,-0.183,2514389
-0.005,0.237,0.969,-0.183,2514393
-0.005,0.237,0.969,-0.061,2514397
-0.006,0.237,0.969,-0.244,2514401
-0.006,0.237,0.969,-0.366,2514405
-0.007,0.236,0.969,-0.366,2514408
-0.007,0.236,0.969,-0.366,2514412
-0.007,0.236,0.969,-0.366,2514416
-0.004,0.237,0.969,-0.061,2514420
-0.004,0.237,0.969,-0.061,2514424
-0.005,0.237,0.97,-0.244,2514428
-0.005,0.237,0.97,-0.244,2514432
-0.005,0.237,0.97,-0.183,2514436
-0.006,0.236,0.967,-0.183,2514440
-0.006,0.236,0.967,-0.244,2514444
-0.005,0.235,0.966,-0.244,2514448
-0.005,0.235,0.966,-0.244,2514452
-0.005,0.235,0.966,-0.122,2514456
-0.003,0.237,0.97,-0.183,2514460
-0.003,0.237,0.97,-0.183,2514464
-0.005,0.237,0.968,-0.122,2514468
-0.005,0.237,0.968,-0.122,2514472
-0.005,0.237,0.968,-0.122,2514476
-0.007,0.239,0.967,-0.122,2514480
-0.007,0.239,0.967,-0.183,2514484
-0.006,0.239,0.967,-0.183,2514488
-0.006,0.239,0.967,-0.183,2514492
-0.006,0.239,0.967,-0.305,2514496
-0.007,0.238,0.967,-0.244,2514500
-0.007,0.238,0.967,-0.122,2514504
-0.006,0.239,0.967,-0.244,2514508
-0.006,0.239,0.967,-0.244,2514512
-0.006,0.239,0.967,-0.122,2514516
-0.004,0.239,0.968,-0.183,2514520
-0.004,0.239,0.968,-0.305,2514524
-0.005,0.239,0.968,-0.244,2514528
-0.005,0.239,0.968,-0.244,2514532
-0.005,0.239,0.968,-0.244,2514536
-0.005,0.238,0.965,-0.244,2514540
-0.005,0.238,0.965,-0.305,2514544
-0.005,0.24,0.968,-0.183,2514547
-0.005,0.24,0.968,-0.183,2514551
-0.005,0.24,0.968,-0.122,2514555
-0.006,0.239,0.969,-0.244,2514559
-0.006,0.239,0.969,-0.183,2514563
-0.005,0.238,0.967,-0.183,2514567
-0.005,0.238,0.967,-0.183,2514571
-0.005,0.238,0.967,-0.305,2514575
-0.006,0.238,0.968,-0.244,2514579
-0.006,0.238,0.968,-0.122,2514583
-0.004,0.237,0.967,-0.305,2514587
-0.004,0.237,0.967,-0.305,2514591
-0.004,0.237,0.967,-0.244,2514595
-0.005,0.237,0.966,-0.244,2514599
-0.005,0.237,0.966,-0.244,2514603
-0.005,0.237,0.966,-0.305,2514607
-0.005,0.237,0.966,-0.305,2514611
-0.005,0.237,0.966,-0.122,2514615
-0.006,0.238,0.967,-0.122,2514619
-0.006,0.238,0.967,-0.122,2514623
-0.005,0.236,0.966,-0.183,2514627
-0.005,0.236,0.966,-0.183,2514631
-0.005,0.236,0.966,-0.305,2514635
-0.006,0.236,0.967,-0.122,2514639
-0.006,0.236,0.967,-0.183,2514643
-0.004,0.236,0.969,-0.183,2514647
-0.004,0.236,0.969,-0.183,2514651
-0.004,0.236,0.969,-0.183,2514655
-0.007,0.235,0.967,-0.244,2514659
-0.007,0.235,0.967,-0.183,2514663
-0.006,0.236,0.966,-0.122,2514667
-0.006,0.236,0.966,-0.122,2514671
-0.006,0.236,0.966,-0.122,2514675
-0.005,0.236,0.968,-0.061,2514679
-0.005,0.236,0.968,-0.061,2514683
-0.006,0.236,0.968,-0.122,2514687
-0.006,0.236,0.968,-0.183,2514691
-0.006,0.236,0.968,-0.183,2514695
-0.006,0.237,0.968,-0.061,2514699
-0.006,0.237,0.968,-0.183,2514703
-0.007,0.238,0.968,-0.244,2514707
-0.007,0.238,0.968,-0.183,2514711
-0.007,0.238,0.968,-0.183,2514714
-0.006,0.238,0.968,-0.122,2514718
-0.006,0.238,0.968,-0.244,2514722
-0.006,0.237,0.968,-0.183,2514726
-0.006,0.237,0.968,-0.183,2514730
-0.006,0.237,0.968,-0.183,2514734
-0.006,0.237,0.968,-0.183,2514738
-0.006,0.237,0.968,-0.244,2514742
-0.005,0.236,0.969,-0.305,2514746
-0.005,0.236,0.969,-0.183,2514750
-0.005,0.236,0.969,-0.183,2514754
-0.005,0.239,0.967,-0.427,2514758
-0.005,0.239,0.967,-0.183,2514762
-0.004,0.239,0.969,-0.122,2514766
-0.004,0.239,0.969,-0.183,2514770
-0.004,0.239,0.969,-0.183,2514774
-0.007,0.238,0.967,-0.244,2514778
-0.007,0.238,0.967,-0.122,2514782
-0.007,0.239,0.968,-0.183,2514786
-0.007,0.239,0.968,-0.122,2514790
-0.007,0.239,0.968,-0.122,2514794
-0.005,0.238,0.968,-0.122,2514798
-0.005,0.238,0.968,-0.183,2514802
-0.005,0.238,0.969,-0.183,2514806
-0.005,0.238,0.969,-0.183,2514810
-0.005,0.238,0.969,-0.183,2514814
-0.005,0.237,0.967,-0.183,2514818
-0.005,0.237,0.967,-0.183,2514822
-0.007,0.237,0.967,-0.183,2514826
-0.007,0.237,0.967,-0.122,2514830
-0.007,0.237,0.967,-0.122,2514834
-0.007,0.237,0.969,-0.244,2514838
-0.007,0.237,0.969,0.0,2514842
-0.006,0.235,0.968,-0.122,2514846
-0.006,0.235,0.968,-0.183,2514850
-0.006,0.235,0.968,-0.183,2514853
-0.006,0.237,0.968,-0.244,2514857
-0.006,0.237,0.968,-0.244,2514861
-0.007,0.237,0.969,-0.244,2514865
-0.007,0.237,0.969,-0.244,2514869
-0.007,0.237,0.969,-0.244,2514873
-0.007,0.235,0.967,-0.183,2514877
-0.007,0.235,0.967,-0.244,2514881
-0.006,0.237,0.969,-0.183,2514885
-0.006,0.237,0.969,-0.183,2514889
-0.006,0.237,0.969,-0.183,2514893
-0.006,0.237,0.967,-0.183,2514897
-0.006,0.237,0.967,-0.122,2514901
-0.006,0.237,0.969,-0.183,2514905
-0.006,0.237,0.969,-0.244,2514909
-0.006,0.237,0.969,-0.244,2514913
-0.005,0.237,0.97,-0.244,2514917
-0.005,0.237,0.97,-0.183,2514921
-0.004,0.238,0.968,-0.244,2514925
-0.004,0.238,0.968,-0.183,2514929
-0.004,0.238,0.968,-0.183,2514933
-0.005,0.237,0.967,-0.122,2514937
-0.005,0.237,0.967,-0.183,2514941
-0.006,0.238,0.969,-0.244,2514945
-0.006,0.238,0.969,-0.244,2514949
-0.006,0.238,0.969,-0.244,2514953
-0.005,0.238,0.968,-0.122,2514957
-0.005,0.238,0.968,-0.122,2514961
-0.005,0.239,0.967,-0.183,2514965
-0.005,0.239,0.967,-0.305,2514969
-0.005,0.239,0.967,-0.305,2514973
-0.005,0.238,0.967,-0.122,2514977
-0.005,0.238,0.967,-0.183,2514981
-0.005,0.238,0.966,-0.183,2514985
-0.005,0.238,0.966,-0.122,2514989
-0.005,0.238,0.966,-0.122,2514993
-0.005,0.237,0.969,-0.244,2514997
-0.005,0.237,0.969,-0.183,2515001
-0.007,0.237,0.969,-0.061,2515005
-0.007,0.237,0.969,-0.183,2515008
-0.007,0.237,0.969,-0.183,2515012
-0.004,0.238,0.968,-0.183,2515016
-0.004,0.238,0.968,-0.061,2515020
-0.005,0.238,0.968,-0.305,2515024
-0.005,0.238,0.968,-0.305,2515028
-0.005,0.238,0.968,-0.305,2515032
-0.004,0.239,0.969,-0.305,2515036
-0.004,0.239,0.969,-0.183,2515040
-0.004,0.237,0.968,-0.305,2515044
-0.004,0.237,0.968,-0.244,2515048
-0.004,0.237,0.968,-0.244,2515052
-0.005,0.238,0.967,-0.183,2515056
-0.005,0.238,0.967,-0.183,2515060
-0.006,0.238,0.967,-0.183,2515064
-0.006,0.238,0.967,-0.305,2515068
-0.006,0.238,0.967,-0.305,2515072
-0.006,0.238,0.968,-0.244,2515076
-0.006,0.238,0.968,-0.122,2515080
-0.004,0.237,0.969,-0.183,2515084
-0.004,0.237,0.969,-0.244,2515088
-0.004,0.237,0.969,-0.244,2515092
-0.006,0.236,0.968,-0.244,2515096
-0.006,0.236,0.968,-0.122,2515100
-0.005,0.236,0.967,-0.305,2515104
-0.005,0.236,0.967,-0.244,2515108
-0.005,0.236,0.967,-0.244,2515112
-0.004,0.235,0.968,-0.305,2515116
-0.004,0.235,0.968,-0.244,2515120
-0.005,0.238,0.968,-0.305,2515124
-0.005,0.238,0.968,-0.183,2515128
-0.005,0.238,0.968,-0.183,2515132
-0.006,0.238,0.967,-0.244,2515136
-0.006,0.238,0.967,-0.244,2515140
-0.005,0.238,0.968,-0.122,2515144
-0.005,0.238,0.968,-0.305,2515148
-0.005,0.238,0.968,-0.305,2515152
-0.006,0.238,0.969,-0.305,2515156
-0.006,0.238,0.969,-0.244,2515160
-0.006,0.239,0.968,-0.122,2515164
-0.006,0.239,0.968,-0.122,2515168
-0.006,0.239,0.968,-0.122,2515171
-0.004,0.239,0.968,-0.305,2515175
-0.004,0.239,0.968,-0.122,2515179
-0.006,0.238,0.967,-0.061,2515183
