Acc_X,Acc_Y,Acc_Z,Rot_Z,Millis
-0.004,0.054,0.999,-0.183,2080974
-0.005,0.052,0.999,-0.061,2080978
-0.005,0.052,0.999,-0.366,2080982
-0.005,0.052,0.999,-0.366,2080986
-0.005,0.053,0.999,-0.244,2080990
-0.005,0.053,0.999,-0.244,2080994
-0.003,0.055,1.0,-0.244,2080998
-0.003,0.055,1.0,-0.061,2081002
-0.003,0.055,1.0,-0.061,2081006
-0.004,0.054,1.0,-0.244,2081010
-0.004,0.054,1.0,-0.244,2081014
-0.003,0.053,0.997,-0.244,2081017
-0.003,0.053,0.997,-0.244,2081021
-0.003,0.053,0.997,-0.244,2081025
-0.004,0.055,0.998,-0.305,2081029
-0.004,0.055,0.998,-0.305,2081033
-0.003,0.053,1.001,-0.183,2081037
-0.003,0.053,1.001,0.0,2081041
-0.003,0.053,1.001,0.0,2081045
-0.004,0.052,0.999,-0.122,2081049
-0.004,0.052,0.999,-0.122,2081053
-0.006,0.052,0.999,-0.183,2081057
-0.006,0.052,0.999,-0.122,2081061
-0.006,0.052,0.999,-0.122,2081065
-0.004,0.052,0.999,-0.244,2081069
-0.004,0.052,0.999,-0.183,2081073
-0.005,0.052,0.998,-0.122,2081077
-0.005,0.052,0.998,-0.122,2081081
-0.005,0.052,0.998,-0.122,2081085
-0.006,0.054,0.999,-0.183,2081089
-0.006,0.054,0.999,-0.305,2081093
-0.005,0.054,0.997,-0.244,2081097
-0.005,0.054,0.997,-0.061,2081101
-0.005,0.054,0.997,-0.061,2081105
-0.005,0.052,0.999,-0.244,2081109
-0.005,0.052,0.999,-0.244,2081113
-0.004,0.052,1.0,-0.122,2081117
-0.004,0.052,1.0,-0.122,2081121
-0.004,0.052,1.0,-0.122,2081124
-0.004,0.053,1.0,-0.122,2081128
-0.004,0.053,1.0,-0.244,2081132
-0.005,0.054,0.999,-0.183,2081136
-0.005,0.054,0.999,-0.061,2081140
-0.005,0.054,0.999,-0.061,2081144
-0.003,0.053,0.999,-0.244,2081148
-0.003,0.053,0.999,-0.244,2081152
-0.005,0.053,0.999,-0.366,2081156
-0.005,0.053,0.999,-0.122,2081160
-0.005,0.053,0.999,-0.122,2081164
-0.006,0.054,0.997,-0.366,2081168
-0.006,0.054,0.997,-0.183,2081172
-0.004,0.054,0.999,-0.122,2081176
-0.004,0.054,0.999,0.0,2081180
-0.004,0.054,0.999,0.0,2081184
-0.003,0.053,1.003,-0.183,2081188
-0.003,0.053,1.003,-0.183,2081192
-0.004,0.053,1.001,-0.122,2081196
-0.004,0.053,1.001,-0.183,2081200
-0.004,0.053,1.001,-0.183,2081204
-0.003,0.053,0.998,-0.122,2081208
-0.003,0.053,0.998,-0.061,2081212
-0.004,0.053,0.998,-0.244,2081216
-0.004,0.053,0.998,-0.366,2081220
-0.004,0.053,0.998,-0.366,2081224
-0.005,0.054,1.0,-0.244,2081228
-0.005,0.054,1.0,-0.244,2081232
-0.004,0.054,1.0,-0.183,2081236
-0.004,0.054,1.0,-0.244,2081240
-0.004,0.054,1.0,-0.244,2081244
-0.005,0.053,1.0,-0.244,2081248
-0.005,0.053,1.0,-0.305,2081252
-0.005,0.053,1.0,-0.305,2081255
-0.005,0.053,1.0,-0.244,2081259
-0.005,0.053,1.0,-0.244,2081263
-0.005,0.052,0.996,-0.244,2081267
-0.005,0.052,0.996,-0.183,2081271
-0.006,0.052,0.998,-0.122,2081275
-0.006,0.052,0.998,-0.244,2081279
-0.006,0.052,0.998,-0.244,2081283
-0.008,0.051,0.999,-0.244,2081287
-0.008,0.051,0.999,-0.183,2081291
-0.006,0.052,0.996,-0.183,2081295
-0.006,0.052,0.996,-0.122,2081299
-0.006,0.052,0.996,-0.122,2081303
-0.006,0.052,0.999,-0.244,2081307
-0.006,0.052,0.999,-0.061,2081311
-0.007,0.053,0.999,-0.122,2081315
-0.007,0.053,0.999,-0.244,2081319
-0.007,0.053,0.999,-0.244,2081323
-0.005,0.053,0.998,-0.305,2081327
-0.005,0.053,0.998,-0.183,2081331
-0.003,0.055,0.997,-0.122,2081335
-0.003,0.055,0.997,-0.183,2081339
-0.003,0.055,0.997,-0.183,2081343
-0.003,0.054,0.999,-0.244,2081347
-0.003,0.054,0.999,-0.305,2081351
-0.002,0.054,1.0,-0.244,2081355
-0.002,0.054,1.0,-0.122,2081359
-0.002,0.054,1.0,-0.122,2081363
-0.002,0.054,1.001,-0.183,2081367
-0.002,0.054,1.001,-0.244,2081371
-0.001,0.052,0.999,-0.244,2081375
-0.001,0.052,0.999,-0.305,2081379
-0.001,0.052,0.999,-0.305,2081383
-0.003,0.052,0.999,-0.244,2081386
-0.003,0.052,0.999,-0.244,2081390
-0.002,0.052,1.0,-0.122,2081394
-0.002,0.052,1.0,-0.244,2081398
-0.002,0.052,1.0,-0.244,2081402
-0.003,0.051,1.001,-0.305,2081406
-0.003,0.051,1.001,-0.244,2081410
-0.002,0.05,1.005,-0.305,2081414
-0.002,0.05,1.005,-0.183,2081418
-0.002,0.05,1.005,-0.183,2081422
-0.001,0.05,0.994,-0.122,2081426
-0.001,0.05,0.994,-0.244,2081430
-0.003,0.05,1.002,-0.244,2081434
-0.003,0.05,1.002,-0.305,2081438
-0.003,0.05,1.002,-0.305,2081442
-0.004,0.052,1.005,-0.122,2081446
-0.004,0.052,1.005,-0.183,2081450
-0.005,0.053,0.995,-0.244,2081454
-0.005,0.053,0.995,-0.122,2081458
-0.005,0.051,1.001,-0.183,2081462
-0.005,0.051,1.001,-0.183,2081466
-0.005,0.051,1.001,-0.061,2081470
-0.004,0.051,0.997,-0.244,2081474
-0.004,0.051,0.997,-0.244,2081478
-0.006,0.054,1.0,-0.183,2081482
-0.006,0.054,1.0,-0.183,2081486
-0.006,0.054,1.0,-0.061,2081490
-0.004,0.054,0.996,-0.183,2081494
-0.004,0.054,0.996,-0.366,2081498
-0.004,0.053,0.997,-0.366,2081502
-0.004,0.053,0.997,-0.366,2081506
-0.004,0.053,0.997,-0.244,2081510
-0.004,0.053,1.002,-0.305,2081513
-0.004,0.053,1.002,-0.305,2081517
-0.005,0.053,1.01,-0.183,2081521
-0.005,0.053,1.01,-0.183,2081525
-0.005,0.053,1.01,-0.244,2081529
-0.004,0.054,1.005,-0.244,2081533
-0.004,0.054,1.005,-0.244,2081537
-0.004,0.054,1.005,-0.244,2081541
-0.004,0.055,0.976,-0.244,2081545
-0.004,0.055,0.976,-0.122,2081549
-0.002,0.055,0.995,-0.183,2081553
-0.002,0.055,0.995,-0.244,2081557
-0.002,0.055,0.995,-0.244,2081561
-0.002,0.052,1.014,-0.183,2081565
-0.002,0.052,1.014,-0.183,2081569
0.001,0.051,1.007,-0.183,2081573
0.001,0.051,1.007,-0.183,2081577
0.001,0.05,0.999,-0.244,2081581
0.001,0.05,0.999,-0.244,2081585
0.001,0.05,0.999,-0.183,2081589
0.0,0.048,0.998,-0.183,2081593
0.0,0.048,0.998,-0.244,2081597
0.001,0.047,1.0,-0.183,2081601
0.001,0.047,1.0,-0.183,2081605
0.001,0.047,1.0,-0.122,2081609
0.001,0.047,0.999,-0.122,2081613
0.001,0.047,0.999,-0.183,2081617
-0.001,0.048,1.001,-0.183,2081621
-0.001,0.048,1.001,-0.183,2081625
-0.001,0.048,1.001,-0.183,2081629
-0.002,0.05,1.002,-0.122,2081633
-0.002,0.05,1.002,-0.183,2081637
-0.001,0.05,1.004,-0.122,2081641
-0.001,0.05,1.004,-0.122,2081645
-0.001,0.05,1.004,-0.122,2081648
-0.002,0.051,0.998,-0.122,2081652
-0.002,0.051,0.998,-0.122,2081656
-0.003,0.051,1.004,-0.122,2081660
-0.003,0.051,1.004,-0.122,2081664
-0.003,0.051,1.004,-0.183,2081668
-0.004,0.052,1.001,-0.366,2081672
-0.004,0.052,1.001,-0.183,2081676
-0.005,0.052,1.0,-0.061,2081680
-0.005,0.052,1.0,-0.061,2081684
-0.005,0.052,1.0,-0.366,2081688
-0.004,0.052,1.002,-0.244,2081692
-0.004,0.052,1.002,-0.183,2081696
-0.005,0.055,0.991,-0.183,2081700
-0.005,0.055,0.991,-0.183,2081704
-0.005,0.055,0.991,-0.122,2081708
-0.009,0.056,0.999,-0.122,2081712
-0.009,0.056,0.999,-0.183,2081716
-0.01,0.057,0.999,-0.122,2081720
-0.01,0.057,0.999,-0.122,2081724
-0.01,0.057,0.999,-0.183,2081728
-0.011,0.058,0.994,-0.122,2081732
-0.011,0.058,0.994,-0.122,2081736
-0.01,0.061,0.994,-0.244,2081740
-0.01,0.061,0.994,-0.244,2081744
-0.01,0.061,0.994,-0.244,2081748
-0.011,0.06,0.993,-0.122,2081752
-0.011,0.06,0.993,-0.244,2081756
-0.011,0.063,0.992,-0.305,2081760
-0.011,0.063,0.992,-0.305,2081764
-0.011,0.063,0.992,-0.183,2081768
-0.01,0.062,0.992,-0.122,2081772
-0.01,0.062,0.992,-0.122,2081776
-0.012,0.062,0.997,-0.183,2081780
-0.012,0.062,0.997,-0.183,2081784
-0.012,0.062,0.997,-0.183,2081788
-0.01,0.057,0.997,-0.183,2081791
-0.01,0.057,0.997,-0.122,2081795
-0.008,0.057,0.994,-0.122,2081799
-0.008,0.057,0.994,-0.122,2081803
-0.008,0.057,0.994,-0.183,2081807
-0.007,0.054,0.998,-0.183,2081811
-0.007,0.054,0.998,-0.244,2081815
-0.005,0.054,0.998,-0.244,2081819
-0.005,0.054,0.998,-0.244,2081823
-0.005,0.054,0.998,-0.244,2081827
-0.004,0.055,0.998,-0.305,2081831
-0.004,0.055,0.998,-0.183,2081835
-0.006,0.054,1.002,-0.183,2081839
-0.006,0.054,1.002,-0.183,2081843
-0.006,0.054,1.002,-0.244,2081847
-0.003,0.054,1.001,-0.244,2081851
-0.003,0.054,1.001,-0.244,2081855
-0.0,0.054,1.003,-0.244,2081859
-0.0,0.054,1.003,-0.244,2081863
-0.0,0.054,1.003,-0.244,2081867
0.0,0.052,1.001,-0.305,2081871
0.0,0.052,1.001,-0.366,2081875
0.0,0.05,1.001,-0.366,2081879
0.0,0.05,1.001,-0.366,2081883
0.0,0.05,1.001,-0.244,2081887
0.001,0.049,1.003,-0.244,2081891
0.001,0.049,1.003,-0.305,2081895
-0.0,0.047,1.002,-0.244,2081899
-0.0,0.047,1.002,-0.244,2081903
-0.0,0.047,1.002,-0.244,2081907
0.001,0.048,1.001,-0.244,2081911
0.001,0.048,1.001,-0.122,2081915
0.001,0.048,1.0,-0.122,2081919
0.001,0.048,1.0,-0.122,2081922
0.001,0.048,1.0,-0.183,2081926
-0.001,0.05,0.989,-0.305,2081930
-0.001,0.05,0.989,-0.183,2081934
-0.004,0.052,1.014,-0.122,2081938
-0.004,0.052,1.014,-0.122,2081942
-0.004,0.052,1.014,-0.122,2081946
-0.008,0.055,0.998,-0.061,2081950
-0.008,0.055,0.998,-0.122,2081954
-0.008,0.058,0.986,-0.183,2081958
-0.008,0.058,0.986,-0.183,2081962
-0.008,0.058,0.986,-0.122,2081966
-0.009,0.057,1.023,-0.122,2081970
-0.009,0.057,1.023,-0.183,2081974
-0.007,0.058,0.987,-0.183,2081978
-0.007,0.058,0.987,-0.183,2081982
-0.007,0.058,0.987,-0.122,2081986
-0.006,0.056,0.984,-0.244,2081990
-0.006,0.056,0.984,-0.183,2081994
-0.008,0.058,1.013,-0.305,2081998
-0.008,0.058,1.013,-0.305,2082002
-0.008,0.058,1.013,-0.183,2082006
-0.008,0.058,1.001,-0.183,2082010
-0.008,0.058,1.001,-0.244,2082014
-0.006,0.054,0.992,-0.244,2082018
-0.006,0.054,0.992,-0.244,2082022
-0.006,0.054,0.992,-0.183,2082026
-0.009,0.054,0.983,-0.183,2082030
-0.009,0.054,0.983,-0.427,2082034
-0.01,0.054,1.01,-0.366,2082038
-0.01,0.054,1.01,-0.366,2082042
-0.01,0.054,1.01,-0.244,2082045
-0.009,0.053,1.023,-0.183,2082049
-0.009,0.053,1.023,-0.183,2082053
-0.007,0.052,0.972,-0.122,2082057
-0.007,0.052,0.972,-0.122,2082061
-0.007,0.052,0.972,-0.122,2082065
-0.005,0.05,0.998,-0.183,2082069
-0.005,0.05,0.998,-0.122,2082073
-0.004,0.052,1.006,-0.061,2082077
-0.004,0.052,1.006,-0.061,2082081
-0.004,0.052,1.006,-0.183,2082085
-0.002,0.054,1.0,-0.061,2082089
-0.002,0.054,1.0,-0.061,2082093
-0.0,0.053,0.993,-0.183,2082097
-0.0,0.053,0.993,-0.183,2082101
-0.0,0.053,0.993,-0.122,2082105
-0.003,0.054,1.003,-0.305,2082109
-0.003,0.054,1.003,-0.366,2082113
-0.002,0.052,1.02,-0.244,2082117
-0.002,0.052,1.02,-0.244,2082121
-0.002,0.052,1.02,-0.183,2082125
-0.001,0.053,0.989,-0.122,2082129
-0.001,0.053,0.989,-0.183,2082133
-0.001,0.053,0.995,-0.122,2082137
-0.001,0.053,0.995,-0.122,2082141
-0.001,0.053,0.995,-0.122,2082145
-0.002,0.053,1.008,-0.122,2082149
-0.002,0.053,1.008,-0.122,2082153
-0.001,0.055,0.994,-0.244,2082157
-0.001,0.055,0.994,-0.244,2082161
-0.001,0.055,0.994,-0.183,2082165
-0.004,0.056,1.0,-0.122,2082169
-0.004,0.056,1.0,-0.183,2082173
-0.005,0.055,1.007,-0.244,2082176
-0.005,0.055,1.007,-0.244,2082180
-0.005,0.055,1.007,-0.244,2082184
-0.005,0.052,0.998,-0.305,2082188
-0.005,0.052,0.998,-0.366,2082192
-0.004,0.053,0.994,-0.183,2082196
-0.004,0.053,0.994,-0.183,2082200
-0.004,0.053,0.994,-0.183,2082204
-0.004,0.051,1.002,-0.244,2082208
-0.004,0.051,1.002,-0.061,2082212
-0.002,0.051,1.004,-0.122,2082216
-0.002,0.051,1.004,-0.122,2082220
-0.002,0.051,1.004,-0.244,2082224
-0.002,0.052,1.0,-0.183,2082228
-0.002,0.052,1.0,-0.122,2082232
-0.003,0.051,0.999,-0.183,2082236
-0.003,0.051,0.999,-0.183,2082240
-0.003,0.051,0.999,-0.244,2082244
-0.002,0.049,1.013,-0.244,2082248
-0.002,0.049,1.013,-0.183,2082252
-0.002,0.049,0.997,-0.183,2082256
-0.002,0.049,0.997,-0.183,2082260
-0.002,0.049,0.997,-0.244,2082264
-0.003,0.05,0.995,-0.183,2082268
-0.003,0.05,0.995,-0.244,2082272
-0.002,0.047,1.028,-0.244,2082276
-0.002,0.047,1.028,-0.244,2082280
-0.002,0.047,1.028,-0.244,2082284
-0.005,0.045,1.021,-0.183,2082288
-0.005,0.045,1.021,-0.183,2082292
-0.009,0.04,0.983,-0.061,2082296
-0.009,0.04,0.983,-0.061,2082300
-0.009,0.04,0.983,-0.061,2082304
-0.01,0.042,0.961,-0.061,2082308
-0.01,0.042,0.961,0.183,2082312
-0.009,0.049,0.998,0.122,2082316
-0.009,0.049,0.998,0.122,2082319
-0.009,0.049,0.998,0.183,2082323
-0.009,0.059,1.015,0.183,2082327
-0.009,0.059,1.015,0.244,2082331
-0.008,0.07,0.989,0.122,2082335
-0.008,0.07,0.989,0.122,2082339
-0.008,0.07,0.989,0.061,2082343
-0.006,0.078,0.985,0.122,2082347
-0.006,0.078,0.985,0.0,2082351
-0.007,0.078,0.995,-0.244,2082355
-0.007,0.078,0.995,-0.244,2082359
-0.007,0.078,0.995,-0.244,2082363
-0.006,0.078,0.992,-0.122,2082367
-0.006,0.078,0.992,-0.427,2082371
-0.005,0.078,0.992,-0.366,2082375
-0.005,0.078,0.992,-0.366,2082379
-0.005,0.078,0.992,-0.366,2082383
-0.006,0.072,1.0,-0.305,2082387
-0.006,0.072,1.0,-0.427,2082391
-0.007,0.066,0.995,-0.366,2082395
-0.007,0.066,0.995,-0.366,2082399
-0.007,0.066,0.995,-0.305,2082403
-0.011,0.061,0.989,-0.305,2082407
-0.011,0.061,0.989,-0.244,2082411
-0.013,0.057,0.998,-0.305,2082415
-0.013,0.057,0.998,-0.305,2082419
-0.013,0.057,0.998,-0.305,2082423
-0.012,0.052,0.997,-0.244,2082427
-0.012,0.052,0.997,-0.183,2082431
-0.01,0.049,1.0,-0.244,2082435
-0.01,0.049,1.0,-0.244,2082438
-0.01,0.049,1.0,-0.183,2082442
-0.01,0.047,0.997,-0.183,2082446
-0.01,0.047,0.997,-0.305,2082450
-0.006,0.047,1.003,-0.305,2082454
-0.006,0.047,1.003,-0.305,2082458
-0.006,0.047,1.003,-0.183,2082462
-0.005,0.045,1.005,-0.244,2082466
-0.005,0.045,1.005,-0.183,2082470
0.001,0.043,0.995,-0.305,2082474
0.001,0.043,0.995,-0.305,2082478
0.001,0.043,0.995,-0.305,2082482
0.002,0.042,1.005,-0.305,2082486
0.002,0.042,1.005,-0.244,2082490
0.006,0.042,1.011,-0.305,2082494
0.006,0.042,1.011,-0.305,2082498
0.006,0.042,1.011,-0.183,2082502
0.009,0.042,1.005,-0.183,2082506
0.009,0.042,1.005,-0.244,2082510
0.01,0.045,1.002,-0.183,2082514
0.01,0.045,1.002,-0.183,2082518
0.01,0.045,1.002,-0.061,2082522
0.006,0.049,1.006,-0.122,2082526
0.006,0.049,1.006,-0.061,2082530
0.003,0.052,1.008,0.061,2082534
0.003,0.052,1.008,0.061,2082538
0.003,0.052,1.008,0.183,2082542
0.0,0.057,0.999,-0.061,2082546
0.0,0.057,0.999,-0.122,2082550
-0.001,0.061,0.993,-0.061,2082553
-0.001,0.061,0.993,-0.061,2082557
-0.001,0.061,0.993,-0.183,2082561
-0.003,0.063,0.997,-0.183,2082565
-0.003,0.063,0.997,-0.122,2082569
-0.006,0.065,1.002,-0.244,2082573
-0.006,0.065,1.002,-0.244,2082577
-0.006,0.065,1.002,-0.244,2082581
-0.008,0.067,0.997,-0.122,2082585
-0.008,0.067,0.997,-0.183,2082589
-0.01,0.064,0.995,-0.244,2082593
-0.01,0.064,0.995,-0.244,2082597
-0.01,0.064,0.995,-0.244,2082601
-0.011,0.06,0.994,-0.183,2082605
-0.011,0.06,0.994,-0.183,2082609
-0.012,0.06,0.997,-0.183,2082613
-0.012,0.06,0.997,-0.183,2082617
-0.012,0.06,0.997,-0.183,2082621
-0.012,0.059,0.999,-0.305,2082625
-0.012,0.059,0.999,-0.183,2082629
-0.011,0.057,0.993,-0.305,2082633
-0.011,0.057,0.993,-0.305,2082637
-0.011,0.057,0.993,-0.305,2082641
-0.013,0.058,0.992,-0.122,2082645
-0.013,0.058,0.992,-0.122,2082649
-0.016,0.06,0.994,-0.366,2082653
-0.016,0.06,0.994,-0.366,2082657
-0.016,0.06,0.994,-0.183,2082661
-0.017,0.059,0.995,-0.061,2082665
-0.017,0.059,0.995,-0.244,2082669
-0.017,0.058,0.993,-0.305,2082673
-0.017,0.058,0.993,-0.305,2082677
-0.017,0.058,0.993,-0.244,2082681
-0.017,0.057,0.995,-0.244,2082685
-0.017,0.057,0.995,-0.305,2082689
-0.013,0.055,0.998,-0.366,2082693
-0.013,0.055,0.998,-0.366,2082697
-0.013,0.055,0.998,-0.305,2082701
-0.009,0.052,1.0,-0.244,2082705
-0.009,0.052,1.0,-0.366,2082708
-0.005,0.048,0.997,-0.183,2082712
-0.005,0.048,0.997,-0.183,2082716
-0.005,0.048,0.997,-0.366,2082720
-0.002,0.049,1.002,-0.366,2082724
-0.002,0.049,1.002,-0.366,2082728
0.002,0.047,1.004,-0.244,2082732
0.002,0.047,1.004,-0.244,2082736
0.002,0.047,1.004,-0.183,2082740
0.006,0.047,1.003,-0.183,2082744
0.006,0.047,1.003,-0.183,2082748
0.01,0.05,1.005,-0.183,2082752
0.01,0.05,1.005,-0.183,2082756
0.01,0.05,1.005,0.0,2082760
0.012,0.052,1.006,-0.183,2082764
0.012,0.052,1.006,-0.183,2082768
0.009,0.054,1.006,0.0,2082772
0.009,0.054,1.006,0.0,2082776
0.009,0.054,1.006,-0.122,2082780
0.008,0.057,1.004,-0.183,2082784
0.008,0.057,1.004,-0.183,2082788
0.006,0.058,1.001,-0.122,2082792
0.006,0.058,1.001,-0.122,2082796
0.006,0.058,1.001,-0.122,2082800
0.001,0.058,1.003,-0.244,2082804
0.001,0.058,1.003,-0.244,2082808
0.0,0.058,1.001,-0.305,2082812
0.0,0.058,1.001,-0.305,2082816
0.0,0.058,1.001,-0.305,2082820
-0.003,0.057,1.001,-0.366,2082823
-0.003,0.057,1.001,-0.244,2082827
-0.007,0.052,1.0,-0.244,2082831
-0.007,0.052,1.0,-0.244,2082835
-0.007,0.052,1.0,-0.305,2082839
-0.009,0.051,0.999,-0.305,2082843
-0.009,0.051,0.999,-0.183,2082847
-0.013,0.05,0.996,-0.183,2082851
-0.013,0.05,0.996,-0.183,2082855
-0.013,0.05,0.996,-0.244,2082859
-0.015,0.052,0.99,-0.122,2082863
-0.015,0.052,0.99,0.0,2082867
-0.019,0.053,0.996,0.0,2082871
-0.019,0.053,0.996,0.0,2082875
-0.019,0.053,0.996,-0.244,2082879
-0.018,0.054,0.997,-0.183,2082883
-0.018,0.054,0.997,-0.122,2082887
-0.019,0.058,0.993,-0.122,2082891
-0.019,0.058,0.993,-0.122,2082895
-0.019,0.058,0.993,-0.122,2082899
-0.018,0.059,0.992,-0.061,2082903
-0.018,0.059,0.992,-0.122,2082907
-0.015,0.064,0.994,-0.183,2082911
-0.015,0.064,0.994,-0.183,2082915
-0.015,0.064,0.994,-0.244,2082919
-0.015,0.064,0.998,-0.183,2082923
-0.015,0.064,0.998,-0.244,2082927
-0.011,0.065,0.993,-0.244,2082931
-0.011,0.065,0.993,-0.244,2082935
-0.011,0.065,0.993,-0.183,2082939
-0.008,0.062,0.993,-0.305,2082942
-0.008,0.062,0.993,-0.305,2082946
-0.005,0.06,0.997,-0.183,2082950
-0.005,0.06,0.997,-0.183,2082954
-0.005,0.06,0.997,-0.305,2082958
-0.002,0.058,1.001,-0.244,2082962
-0.002,0.058,1.001,-0.061,2082966
0.001,0.057,1.003,-0.122,2082970
0.001,0.057,1.003,-0.122,2082974
0.001,0.057,1.003,-0.366,2082978
0.001,0.055,1.002,-0.305,2082982
0.001,0.055,1.002,-0.122,2082986
0.003,0.053,1.003,-0.183,2082990
0.003,0.053,1.003,-0.183,2082994
0.003,0.053,1.003,-0.244,2082998
0.003,0.052,1.001,-0.183,2083002
0.003,0.052,1.001,-0.183,2083006
0.004,0.051,1.003,-0.244,2083010
0.004,0.051,1.003,-0.244,2083014
0.004,0.051,1.003,-0.122,2083018
0.004,0.05,1.005,-0.183,2083022
0.004,0.05,1.005,-0.183,2083026
0.002,0.049,1.004,-0.244,2083030
0.002,0.049,1.004,-0.244,2083034
0.002,0.049,1.004,-0.183,2083038
0.002,0.048,1.001,-0.183,2083042
0.002,0.048,1.001,-0.305,2083046
0.003,0.048,1.002,-0.244,2083050
0.003,0.048,1.002,-0.244,2083054
0.003,0.048,1.002,-0.183,2083058
-0.0,0.049,1.004,-0.061,2083062
-0.0,0.049,1.004,-0.122,2083066
-0.003,0.049,1.004,-0.183,2083070
-0.003,0.049,1.004,-0.183,2083073
-0.003,0.049,1.004,-0.244,2083077
-0.004,0.047,1.0,-0.061,2083081
-0.004,0.047,1.0,-0.122,2083085
-0.005,0.05,1.0,-0.183,2083089
-0.005,0.05,1.0,-0.183,2083093
-0.005,0.05,1.0,-0.183,2083097
-0.008,0.052,1.0,-0.183,2083101
-0.008,0.052,1.0,-0.183,2083105
-0.009,0.054,0.997,-0.122,2083109
-0.009,0.054,0.997,-0.122,2083113
-0.009,0.054,0.997,0.0,2083117
-0.01,0.058,0.996,-0.061,2083121
-0.01,0.058,0.996,-0.244,2083125
-0.013,0.061,0.996,-0.183,2083129
-0.013,0.061,0.996,-0.183,2083133
-0.013,0.061,0.996,-0.122,2083137
-0.013,0.063,0.992,-0.122,2083141
-0.013,0.063,0.992,-0.183,2083145
-0.013,0.063,0.995,-0.305,2083149
-0.013,0.063,0.995,-0.305,2083153
-0.013,0.063,0.995,-0.244,2083157
-0.012,0.067,0.994,-0.122,2083161
-0.012,0.067,0.994,-0.183,2083165
-0.012,0.066,0.993,-0.183,2083169
-0.012,0.066,0.993,-0.183,2083173
-0.012,0.066,0.993,-0.122,2083177
-0.012,0.064,0.994,-0.183,2083181
-0.012,0.064,0.994,-0.183,2083185
-0.009,0.064,0.994,-0.244,2083189
-0.009,0.064,0.994,-0.244,2083193
-0.009,0.064,0.994,-0.122,2083197
-0.008,0.062,0.998,-0.061,2083201
-0.008,0.062,0.998,-0.122,2083204
-0.006,0.061,0.998,-0.244,2083208
-0.006,0.061,0.998,-0.244,2083212
-0.006,0.061,0.998,-0.183,2083216
-0.005,0.055,0.996,-0.305,2083220
-0.005,0.055,0.996,-0.488,2083224
-0.004,0.053,0.997,-0.183,2083228
-0.004,0.053,0.997,-0.183,2083232
-0.004,0.053,0.997,-0.305,2083236
-0.003,0.05,1.0,-0.244,2083240
-0.003,0.05,1.0,-0.305,2083244
-0.002,0.048,1.003,-0.183,2083248
-0.002,0.048,1.003,-0.183,2083252
-0.002,0.048,1.003,-0.183,2083256
-0.001,0.047,1.004,-0.244,2083260
-0.001,0.047,1.004,-0.183,2083264
0.001,0.046,1.004,-0.183,2083268
0.001,0.046,1.004,-0.183,2083272
0.001,0.046,1.004,-0.122,2083276
-0.002,0.047,1.002,-0.183,2083280
-0.002,0.047,1.002,-0.305,2083284
-0.001,0.047,1.003,-0.183,2083288
-0.001,0.047,1.003,-0.183,2083292
-0.001,0.047,1.003,-0.244,2083296
0.0,0.047,1.004,-0.122,2083300
0.0,0.047,1.004,-0.244,2083304
0.002,0.049,1.001,-0.244,2083308
0.002,0.049,1.001,-0.244,2083312
0.002,0.049,1.001,-0.183,2083316
0.003,0.05,1.0,-0.183,2083320
0.003,0.05,1.0,-0.122,2083324
0.001,0.052,1.005,-0.061,2083327
0.001,0.052,1.005,-0.061,2083331
0.001,0.052,1.005,-0.183,2083335
0.002,0.053,1.001,-0.183,2083339
0.002,0.053,1.001,-0.122,2083343
-0.0,0.055,0.999,-0.183,2083347
-0.0,0.055,0.999,-0.183,2083351
-0.0,0.055,0.999,-0.244,2083355
-0.002,0.057,0.996,-0.183,2083359
-0.002,0.057,0.996,-0.244,2083363
-0.005,0.059,0.997,-0.183,2083367
-0.005,0.059,0.997,-0.183,2083371
-0.005,0.059,0.997,-0.183,2083375
-0.007,0.061,0.996,-0.244,2083379
-0.007,0.061,0.996,-0.183,2083383
-0.01,0.062,0.996,-0.122,2083387
-0.01,0.062,0.996,-0.122,2083391
-0.01,0.062,0.996,-0.183,2083395
-0.011,0.062,0.994,-0.244,2083399
-0.011,0.062,0.994,-0.183,2083403
-0.012,0.062,0.991,-0.122,2083407
-0.012,0.062,0.991,-0.122,2083411
-0.012,0.062,0.991,-0.244,2083415
-0.015,0.063,0.991,-0.122,2083419
-0.015,0.063,0.991,-0.122,2083423
-0.016,0.061,0.996,-0.183,2083427
-0.016,0.061,0.996,-0.183,2083431
-0.016,0.061,0.996,-0.122,2083435
-0.015,0.058,0.996,-0.244,2083439
-0.015,0.058,0.996,-0.244,2083443
-0.015,0.057,0.994,-0.305,2083447
-0.015,0.057,0.994,-0.305,2083451
-0.015,0.057,0.994,-0.305,2083455
-0.014,0.055,0.994,-0.305,2083459
-0.014,0.055,0.994,-0.183,2083463
-0.014,0.053,0.999,-0.061,2083467
-0.014,0.053,0.999,-0.061,2083471
-0.014,0.053,0.999,-0.122,2083475
-0.009,0.054,0.999,-0.244,2083479
-0.009,0.054,0.999,-0.183,2083482
-0.007,0.053,1.001,-0.305,2083486
-0.007,0.053,1.001,-0.305,2083490
-0.007,0.053,1.001,-0.122,2083494
-0.005,0.052,1.002,-0.305,2083498
-0.005,0.052,1.002,-0.305,2083502
-0.002,0.052,0.999,-0.183,2083506
-0.002,0.052,0.999,-0.183,2083510
-0.002,0.052,0.999,-0.183,2083514
0.0,0.052,0.998,-0.122,2083518
0.0,0.052,0.998,-0.183,2083522
0.003,0.053,1.005,-0.183,2083526
0.003,0.053,1.005,-0.183,2083530
0.003,0.053,1.005,-0.122,2083534
0.005,0.052,1.005,-0.183,2083538
0.005,0.052,1.005,-0.244,2083542
0.005,0.051,1.001,-0.244,2083546
0.005,0.051,1.001,-0.244,2083550
0.005,0.051,1.001,-0.183,2083554
0.005,0.051,1.0,-0.244,2083558
0.005,0.051,1.0,-0.305,2083562
0.003,0.052,1.005,-0.183,2083566
0.003,0.052,1.005,-0.183,2083570
0.003,0.052,1.005,-0.244,2083574
0.005,0.053,1.007,-0.183,2083578
0.005,0.053,1.007,-0.183,2083582
0.002,0.053,1.003,-0.427,2083586
0.002,0.053,1.003,-0.427,2083590
0.002,0.053,1.003,-0.366,2083594
0.0,0.053,1.0,-0.244,2083598
0.0,0.053,1.0,-0.244,2083602
-0.002,0.054,0.999,-0.183,2083606
-0.002,0.054,0.999,-0.183,2083610
-0.002,0.054,0.999,-0.183,2083613
-0.004,0.054,1.002,-0.305,2083617
-0.004,0.054,1.002,-0.305,2083621
-0.007,0.054,1.0,-0.183,2083625
-0.007,0.054,1.0,-0.183,2083629
-0.007,0.054,1.0,-0.122,2083633
-0.01,0.055,0.996,-0.122,2083637
-0.01,0.055,0.996,-0.305,2083641
-0.013,0.055,0.995,-0.183,2083645
-0.013,0.055,0.995,-0.183,2083649
-0.013,0.055,0.995,-0.183,2083653
-0.013,0.056,0.994,-0.122,2083657
-0.013,0.056,0.994,-0.183,2083661
-0.015,0.058,0.995,-0.183,2083665
-0.015,0.058,0.995,-0.183,2083669
-0.015,0.058,0.995,-0.366,2083673
-0.018,0.059,0.994,-0.183,2083677
-0.018,0.059,0.994,-0.122,2083681
-0.014,0.06,0.995,-0.183,2083685
-0.014,0.06,0.995,-0.183,2083689
-0.014,0.06,0.995,-0.305,2083693
-0.013,0.061,0.996,-0.305,2083697
-0.013,0.061,0.996,-0.122,2083701
-0.013,0.061,0.995,-0.183,2083705
-0.013,0.061,0.995,-0.183,2083709
-0.013,0.061,0.995,-0.244,2083713
-0.01,0.061,0.995,-0.183,2083717
-0.01,0.061,0.995,-0.183,2083721
-0.008,0.06,0.997,-0.305,2083725
-0.008,0.06,0.997,-0.305,2083729
-0.008,0.06,0.997,-0.244,2083733
-0.006,0.058,1.0,-0.244,2083737
-0.006,0.058,1.0,-0.244,2083741
-0.002,0.058,1.0,-0.122,2083744
-0.002,0.058,1.0,-0.122,2083748
-0.002,0.058,1.0,-0.122,2083752
-0.002,0.056,0.999,-0.305,2083756
-0.002,0.056,0.999,-0.244,2083760
0.003,0.055,1.002,-0.244,2083764
0.003,0.055,1.002,-0.244,2083768
0.003,0.055,1.002,-0.366,2083772
0.002,0.054,1.002,-0.366,2083776
0.002,0.054,1.002,-0.122,2083780
0.001,0.053,1.001,-0.122,2083784
0.001,0.053,1.001,-0.122,2083788
0.001,0.053,1.001,-0.183,2083792
0.002,0.049,1.002,-0.244,2083796
0.002,0.049,1.002,-0.244,2083800
0.001,0.049,1.003,-0.244,2083804
0.001,0.049,1.003,-0.183,2083808
0.001,0.049,1.003,-0.183,2083812
0.002,0.049,1.003,-0.244,2083816
0.002,0.049,1.003,-0.183,2083820
-0.0,0.048,1.004,-0.183,2083824
-0.0,0.048,1.004,-0.122,2083828
-0.0,0.048,1.004,-0.122,2083832
-0.0,0.047,1.003,-0.244,2083836
-0.0,0.047,1.003,-0.183,2083840
0.001,0.049,1.001,-0.244,2083844
0.001,0.049,1.001,-0.183,2083848
0.001,0.049,1.001,-0.183,2083852
-0.003,0.048,1.001,-0.366,2083856
-0.003,0.048,1.001,-0.183,2083860
-0.003,0.05,1.001,-0.183,2083864
-0.003,0.05,1.001,-0.122,2083868
-0.003,0.05,1.001,-0.122,2083872
-0.005,0.053,0.998,-0.122,2083876
-0.005,0.053,0.998,-0.244,2083879
-0.006,0.053,1.0,-0.244,2083883
-0.006,0.053,1.0,-0.183,2083887
-0.006,0.053,1.0,-0.183,2083891
-0.006,0.058,0.997,-0.183,2083895
-0.006,0.058,0.997,-0.244,2083899
-0.009,0.059,0.996,-0.244,2083903
-0.009,0.059,0.996,-0.244,2083907
-0.009,0.059,0.996,-0.244,2083911
-0.009,0.061,0.995,-0.244,2083915
-0.009,0.061,0.995,-0.427,2083919
-0.011,0.062,0.994,-0.305,2083923
-0.011,0.062,0.994,-0.122,2083927
-0.011,0.062,0.994,-0.122,2083931
-0.01,0.062,0.995,-0.244,2083935
-0.01,0.062,0.995,-0.244,2083939
-0.011,0.062,0.995,-0.244,2083943
-0.011,0.062,0.995,-0.183,2083947
-0.011,0.062,0.995,-0.183,2083951
-0.012,0.062,0.994,-0.244,2083955
-0.012,0.062,0.994,-0.244,2083959
-0.011,0.062,0.995,-0.183,2083963
-0.011,0.062,0.995,-0.183,2083967
-0.011,0.062,0.995,-0.183,2083971
-0.01,0.06,0.998,-0.305,2083975
-0.01,0.06,0.998,-0.244,2083979
-0.008,0.059,0.998,-0.244,2083983
-0.008,0.059,0.998,-0.183,2083987
-0.008,0.059,0.998,-0.183,2083991
-0.008,0.058,0.997,-0.183,2083995
-0.008,0.058,0.997,-0.183,2083999
-0.007,0.055,0.999,-0.305,2084003
-0.007,0.055,0.999,-0.244,2084007
-0.007,0.055,0.999,-0.244,2084011
-0.004,0.055,0.999,-0.183,2084015
-0.004,0.055,0.999,-0.183,2084019
-0.003,0.052,0.999,-0.183,2084023
-0.003,0.052,0.999,-0.122,2084027
-0.003,0.052,0.999,-0.122,2084031
-0.002,0.049,1.0,-0.122,2084034
-0.002,0.049,1.0,-0.183,2084038
-0.001,0.049,1.001,-0.244,2084042
-0.001,0.049,1.001,-0.122,2084046
-0.001,0.049,1.001,-0.122,2084050
0.001,0.047,1.002,-0.305,2084054
0.001,0.047,1.002,-0.427,2084058
0.001,0.048,1.003,-0.244,2084062
0.001,0.048,1.003,-0.183,2084066
0.001,0.048,1.003,-0.183,2084070
0.0,0.049,1.004,-0.122,2084074
0.0,0.049,1.004,-0.122,2084078
0.002,0.049,1.002,-0.244,2084082
0.002,0.049,1.002,-0.183,2084086
0.002,0.049,1.002,-0.183,2084090
0.003,0.05,1.001,-0.122,2084094
0.003,0.05,1.001,-0.183,2084098
0.002,0.05,1.0,-0.183,2084102
0.002,0.05,1.0,-0.183,2084106
0.002,0.05,1.0,-0.183,2084110
0.0,0.053,1.003,-0.122,2084114
0.0,0.053,1.003,-0.244,2084118
-0.001,0.055,1.0,-0.305,2084122
-0.001,0.055,1.0,-0.427,2084126
-0.001,0.055,1.0,-0.427,2084130
-0.002,0.056,1.0,0.0,2084134
-0.002,0.056,1.0,-0.061,2084138
-0.004,0.057,0.999,-0.183,2084141
-0.004,0.057,0.999,-0.183,2084145
-0.004,0.057,0.999,-0.183,2084149
-0.005,0.059,0.998,-0.183,2084153
-0.005,0.059,0.998,-0.183,2084157
-0.006,0.059,0.997,-0.122,2084161
-0.006,0.059,0.997,-0.183,2084165
-0.006,0.059,0.997,-0.183,2084169
-0.007,0.06,0.996,-0.183,2084173
-0.007,0.06,0.996,-0.183,2084177
-0.01,0.06,0.995,-0.183,2084181
-0.01,0.06,0.995,-0.183,2084185
-0.01,0.06,0.995,-0.183,2084189
-0.013,0.059,0.995,-0.183,2084193
-0.013,0.059,0.995,-0.305,2084197
-0.013,0.059,0.996,-0.305,2084201
-0.013,0.059,0.996,-0.122,2084205
-0.013,0.059,0.996,-0.122,2084209
-0.013,0.057,0.995,-0.122,2084213
-0.013,0.057,0.995,-0.244,2084217
-0.013,0.057,0.995,-0.122,2084221
-0.013,0.057,0.995,-0.183,2084225
-0.013,0.057,0.995,-0.183,2084229
-0.012,0.058,0.996,-0.183,2084233
-0.012,0.058,0.996,-0.305,2084237
-0.011,0.056,0.998,-0.244,2084241
-0.011,0.056,0.998,-0.244,2084245
-0.011,0.056,0.998,-0.244,2084249
-0.009,0.055,0.996,-0.183,2084253
-0.009,0.055,0.996,-0.183,2084257
-0.008,0.054,1.0,-0.244,2084261
-0.008,0.054,1.0,-0.183,2084265
-0.008,0.054,1.0,-0.183,2084269
-0.005,0.053,1.0,-0.183,2084273
-0.005,0.053,1.0,-0.183,2084277
-0.002,0.053,0.999,-0.244,2084281
-0.002,0.053,0.999,-0.244,2084285
-0.002,0.053,0.999,-0.244,2084289
-0.001,0.052,0.999,-0.061,2084293
-0.001,0.052,0.999,-0.061,2084297
-0.002,0.052,1.002,-0.244,2084301
-0.002,0.052,1.002,-0.244,2084304
-0.002,0.052,1.002,-0.244,2084308
-0.002,0.052,1.003,-0.122,2084312
-0.002,0.052,1.003,-0.183,2084316
0.003,0.053,1.001,-0.244,2084320
0.003,0.053,1.001,-0.244,2084324
0.003,0.053,1.001,-0.244,2084328
0.004,0.052,1.001,-0.183,2084332
0.004,0.052,1.001,-0.244,2084336
0.003,0.051,1.002,-0.244,2084340
0.003,0.051,1.002,-0.183,2084344
0.003,0.051,1.002,-0.183,2084348
0.001,0.052,1.003,-0.183,2084352
0.001,0.052,1.003,-0.122,2084356
0.0,0.052,1.002,-0.061,2084360
0.0,0.052,1.002,-0.122,2084364
0.0,0.052,1.002,-0.122,2084368
-0.0,0.054,1.001,-0.122,2084372
-0.0,0.054,1.001,-0.183,2084376
-0.003,0.053,1.001,-0.183,2084380
-0.003,0.053,1.001,-0.183,2084384
-0.003,0.053,1.001,-0.183,2084388
-0.003,0.055,0.999,-0.061,2084392
-0.003,0.055,0.999,-0.305,2084396
-0.003,0.054,0.997,-0.244,2084400
-0.003,0.054,0.997,-0.122,2084404
-0.003,0.054,0.997,-0.122,2084408
-0.006,0.054,0.998,-0.061,2084412
-0.006,0.054,0.998,-0.061,2084416
-0.01,0.056,0.995,-0.183,2084420
-0.01,0.056,0.995,-0.244,2084424
-0.01,0.056,0.995,-0.244,2084427
-0.01,0.056,0.997,-0.122,2084431
-0.01,0.056,0.997,-0.183,2084435
-0.012,0.057,0.998,-0.122,2084439
-0.012,0.057,0.998,-0.122,2084443
-0.012,0.057,0.998,-0.122,2084447
-0.012,0.058,0.995,-0.122,2084451
-0.012,0.058,0.995,-0.122,2084455
-0.013,0.058,0.994,-0.122,2084459
-0.013,0.058,0.994,-0.122,2084463
-0.013,0.058,0.994,-0.122,2084467
-0.012,0.058,0.995,-0.183,2084471
-0.012,0.058,0.995,-0.122,2084475
-0.01,0.058,0.997,-0.183,2084479
-0.01,0.058,0.997,-0.183,2084483
-0.01,0.058,0.997,-0.183,2084487
-0.012,0.059,0.996,-0.183,2084491
-0.012,0.059,0.996,-0.061,2084495
-0.011,0.059,0.996,-0.244,2084499
-0.011,0.059,0.996,-0.183,2084503
-0.011,0.059,0.996,-0.183,2084507
-0.007,0.057,0.997,-0.183,2084511
-0.007,0.057,0.997,-0.183,2084515
-0.006,0.057,0.997,-0.183,2084519
-0.006,0.057,0.997,-0.061,2084523
-0.006,0.057,0.997,-0.061,2084527
-0.004,0.056,0.999,-0.244,2084531
-0.004,0.056,0.999,-0.122,2084535
-0.001,0.057,1.001,-0.244,2084539
-0.001,0.057,1.001,-0.183,2084543
-0.001,0.057,1.001,-0.183,2084547
0.001,0.054,0.999,-0.183,2084551
0.001,0.054,0.999,-0.183,2084555
0.002,0.053,1.0,0.0,2084559
0.002,0.053,1.0,-0.244,2084563
0.002,0.053,1.0,-0.244,2084567
0.0,0.053,1.001,-0.244,2084570
0.0,0.053,1.001,-0.122,2084574
0.002,0.052,1.001,-0.183,2084578
0.002,0.052,1.001,-0.244,2084582
0.002,0.052,1.001,-0.244,2084586
0.0,0.051,1.0,-0.183,2084590
0.0,0.051,1.0,-0.366,2084594
-0.001,0.05,1.001,-0.305,2084598
-0.001,0.05,1.001,-0.122,2084602
-0.001,0.05,1.001,-0.122,2084606
0.0,0.052,1.003,-0.183,2084610
0.0,0.052,1.003,-0.183,2084614
-0.001,0.051,1.002,-0.305,2084618
-0.001,0.051,1.002,-0.061,2084622
-0.001,0.051,1.002,-0.061,2084626
-0.003,0.051,1.002,-0.061,2084630
-0.003,0.051,1.002,-0.061,2084634
-0.003,0.051,1.0,-0.183,2084638
-0.003,0.051,1.0,-0.122,2084642
-0.003,0.051,1.0,-0.122,2084646
-0.004,0.052,1.0,-0.305,2084650
-0.004,0.052,1.0,-0.305,2084654
-0.006,0.054,0.999,-0.183,2084658
-0.006,0.054,0.999,-0.183,2084662
-0.006,0.054,0.999,-0.183,2084666
-0.007,0.056,1.0,-0.244,2084670
-0.007,0.056,1.0,-0.183,2084674
-0.007,0.057,0.997,-0.183,2084677
-0.007,0.057,0.997,-0.244,2084681
-0.007,0.057,0.997,-0.244,2084685
-0.008,0.057,0.996,-0.183,2084689
-0.008,0.057,0.996,-0.183,2084693
-0.009,0.057,0.997,-0.183,2084697
-0.009,0.057,0.997,-0.244,2084701
-0.009,0.057,0.997,-0.244,2084705
-0.01,0.059,0.995,-0.183,2084709
-0.01,0.059,0.995,-0.244,2084713
-0.01,0.061,0.996,-0.183,2084717
-0.01,0.061,0.996,-0.122,2084721
-0.01,0.061,0.996,-0.122,2084725
-0.011,0.06,0.997,-0.122,2084729
-0.011,0.06,0.997,-0.122,2084733
-0.009,0.059,0.995,-0.244,2084737
-0.009,0.059,0.995,-0.427,2084741
-0.009,0.059,0.995,-0.427,2084745
-0.009,0.058,0.995,-0.244,2084749
-0.009,0.058,0.995,-0.244,2084753
-0.01,0.059,0.997,-0.244,2084757
-0.01,0.059,0.997,-0.305,2084761
-0.01,0.059,0.997,-0.305,2084765
-0.006,0.057,0.997,-0.305,2084769
-0.006,0.057,0.997,-0.183,2084773
-0.006,0.056,0.999,-0.183,2084777
-0.006,0.056,0.999,-0.183,2084781
-0.006,0.056,0.999,-0.183,2084785
-0.005,0.054,0.998,-0.122,2084789
-0.005,0.054,0.998,-0.244,2084793
-0.006,0.051,1.0,-0.427,2084797
-0.006,0.051,1.0,-0.244,2084801
-0.006,0.051,1.0,-0.244,2084805
-0.004,0.052,1.001,-0.061,2084809
-0.004,0.052,1.001,-0.183,2084812
-0.003,0.051,1.001,-0.244,2084816
-0.003,0.051,1.001,-0.244,2084820
-0.003,0.051,1.001,-0.244,2084824
0.0,0.051,1.001,-0.366,2084828
0.0,0.051,1.001,-0.366,2084832
-0.001,0.05,1.003,-0.061,2084836
-0.001,0.05,1.003,-0.183,2084840
-0.001,0.05,1.003,-0.183,2084844
-0.003,0.05,1.003,-0.183,2084848
-0.003,0.05,1.003,-0.183,2084852
-0.001,0.05,1.001,-0.183,2084856
-0.001,0.05,1.001,-0.122,2084860
-0.001,0.05,1.001,-0.122,2084864
-0.0,0.051,1.003,-0.183,2084868
-0.0,0.051,1.003,-0.183,2084872
-0.002,0.052,1.0,-0.061,2084876
-0.002,0.052,1.0,-0.061,2084880
-0.002,0.052,1.0,-0.061,2084884
-0.003,0.053,1.003,-0.122,2084888
-0.003,0.053,1.003,-0.183,2084892
-0.003,0.054,1.001,-0.183,2084896
-0.003,0.054,1.001,-0.061,2084900
-0.003,0.054,1.001,-0.061,2084904
-0.004,0.056,1.001,-0.183,2084908
-0.004,0.056,1.001,0.061,2084912
-0.004,0.056,0.999,-0.122,2084916
-0.004,0.056,0.999,-0.305,2084919
-0.004,0.056,0.999,-0.305,2084923
-0.006,0.057,1.0,-0.183,2084927
-0.006,0.057,1.0,-0.122,2084931
-0.006,0.059,0.999,-0.183,2084935
-0.006,0.059,0.999,-0.122,2084939
-0.006,0.059,0.999,-0.122,2084943
-0.006,0.059,0.998,-0.122,2084947
-0.006,0.059,0.998,-0.122,2084951
-0.007,0.059,0.997,-0.183,2084955
-0.007,0.059,0.997,-0.061,2084959
-0.007,0.059,0.997,-0.061,2084963
-0.01,0.057,0.997,-0.122,2084967
-0.01,0.057,0.997,-0.183,2084971
-0.011,0.059,0.996,-0.305,2084975
-0.011,0.059,0.996,-0.183,2084979
-0.011,0.059,0.996,-0.183,2084983
-0.01,0.057,0.996,-0.061,2084987
-0.01,0.057,0.996,-0.183,2084991
-0.011,0.055,0.997,-0.122,2084995
-0.011,0.055,0.997,-0.305,2084999
-0.011,0.055,0.997,-0.305,2085003
-0.011,0.056,0.997,-0.183,2085007
-0.011,0.056,0.997,-0.122,2085011
-0.01,0.053,0.998,-0.183,2085015
-0.01,0.053,0.998,-0.183,2085019
-0.01,0.053,0.998,-0.183,2085023
-0.008,0.055,0.997,-0.183,2085027
-0.008,0.055,0.997,-0.244,2085031
-0.008,0.054,0.999,-0.244,2085035
-0.008,0.054,0.999,-0.183,2085039
-0.008,0.054,0.999,-0.183,2085043
-0.006,0.054,0.999,-0.244,2085047
-0.006,0.054,0.999,-0.366,2085051
-0.003,0.052,1.0,-0.183,2085055
-0.003,0.052,1.0,-0.122,2085059
-0.003,0.052,1.0,-0.122,2085062
-0.002,0.053,1.0,-0.061,2085066
-0.002,0.053,1.0,-0.183,2085070
-0.001,0.054,1.001,-0.183,2085074
-0.001,0.054,1.001,-0.183,2085078
-0.001,0.054,1.001,-0.183,2085082
-0.001,0.053,1.0,-0.122,2085086
-0.001,0.053,1.0,-0.244,2085090
-0.001,0.051,1.001,-0.244,2085094
-0.001,0.051,1.001,-0.183,2085098
-0.001,0.051,1.001,-0.183,2085102
0.002,0.053,1.002,-0.183,2085106
0.002,0.053,1.002,-0.183,2085110
0.002,0.053,1.003,-0.122,2085114
0.002,0.053,1.003,-0.122,2085118
0.002,0.053,1.003,-0.122,2085122
-0.0,0.052,1.002,-0.122,2085126
-0.0,0.052,1.002,-0.183,2085130
-0.002,0.052,1.002,-0.122,2085134
-0.002,0.052,1.002,-0.122,2085138
-0.002,0.052,1.002,-0.122,2085142
-0.003,0.053,1.0,-0.244,2085146
-0.003,0.053,1.0,-0.244,2085150
-0.003,0.052,0.999,-0.061,2085154
-0.003,0.052,0.999,-0.061,2085158
-0.003,0.052,0.999,-0.061,2085162
-0.003,0.055,1.0,-0.183,2085166
-0.003,0.055,1.0,-0.244,2085170
-0.003,0.057,0.998,-0.183,2085174
-0.003,0.057,0.998,-0.122,2085178
-0.003,0.057,0.998,-0.122,2085182
-0.005,0.054,0.999,-0.244,2085186
-0.005,0.054,0.999,-0.244,2085189
-0.007,0.055,0.997,-0.244,2085193
-0.007,0.055,0.997,-0.244,2085197
-0.007,0.055,0.997,-0.244,2085201
-0.008,0.056,0.996,-0.244,2085205
-0.008,0.056,0.996,-0.183,2085209
-0.011,0.055,0.997,-0.183,2085213
-0.011,0.055,0.997,-0.061,2085217
-0.011,0.055,0.997,-0.061,2085221
-0.01,0.058,0.998,-0.061,2085225
-0.01,0.058,0.998,-0.122,2085229
-0.009,0.059,0.997,-0.183,2085233
-0.009,0.059,0.997,-0.183,2085237
-0.009,0.059,0.997,-0.183,2085241
-0.008,0.057,0.995,-0.244,2085245
-0.008,0.057,0.995,-0.244,2085249
-0.01,0.057,0.996,-0.122,2085253
-0.01,0.057,0.996,-0.305,2085257
-0.01,0.057,0.996,-0.305,2085261
-0.009,0.058,0.998,-0.244,2085265
-0.009,0.058,0.998,-0.122,2085269
-0.008,0.058,0.997,-0.244,2085273
-0.008,0.058,0.997,-0.183,2085277
-0.008,0.058,0.997,-0.183,2085281
-0.006,0.057,0.999,-0.244,2085285
-0.006,0.057,0.999,-0.244,2085289
-0.006,0.057,0.998,-0.305,2085293
-0.006,0.057,0.998,-0.183,2085297
-0.006,0.057,0.998,-0.183,2085301
-0.005,0.057,0.998,-0.305,2085305
-0.005,0.057,0.998,-0.244,2085309
-0.004,0.056,0.999,-0.183,2085313
-0.004,0.056,0.999,-0.244,2085317
-0.004,0.056,0.999,-0.244,2085321
-0.002,0.055,1.001,-0.183,2085325
-0.002,0.055,1.001,-0.244,2085328
0.0,0.053,1.0,-0.183,2085332
0.0,0.053,1.0,-0.122,2085336
0.0,0.053,1.0,-0.122,2085340
-0.0,0.052,1.001,-0.122,2085344
-0.0,0.052,1.001,-0.305,2085348
-0.001,0.053,1.0,-0.183,2085352
-0.001,0.053,1.0,-0.061,2085356
-0.001,0.053,1.0,-0.061,2085360
-0.001,0.052,1.001,-0.183,2085364
-0.001,0.052,1.001,-0.305,2085368
-0.004,0.051,1.002,-0.244,2085372
-0.004,0.051,1.002,-0.244,2085376
-0.004,0.051,1.002,-0.244,2085380
-0.002,0.051,1.001,-0.183,2085384
-0.002,0.051,1.001,-0.366,2085388
0.0,0.052,1.002,-0.244,2085392
0.0,0.052,1.002,0.0,2085396
0.0,0.052,1.002,0.0,2085399
-0.003,0.053,1.001,-0.061,2085403
-0.003,0.053,1.001,-0.305,2085407
-0.004,0.054,0.998,-0.305,2085411
-0.004,0.054,0.998,-0.244,2085415
-0.004,0.054,0.998,-0.244,2085419
-0.005,0.053,0.999,-0.183,2085423
-0.005,0.053,0.999,-0.122,2085427
-0.005,0.054,0.999,-0.122,2085431
-0.005,0.054,0.999,-0.183,2085435
-0.005,0.054,0.999,-0.183,2085439
-0.006,0.054,0.998,-0.183,2085443
-0.006,0.054,0.998,-0.183,2085447
-0.006,0.056,0.999,-0.122,2085451
-0.006,0.056,0.999,-0.183,2085455
-0.006,0.056,0.999,-0.183,2085459
-0.007,0.056,0.998,-0.183,2085463
-0.007,0.056,0.998,-0.183,2085467
-0.008,0.057,0.998,-0.183,2085471
-0.008,0.057,0.998,-0.183,2085475
-0.008,0.057,0.998,-0.183,2085479
-0.008,0.06,0.997,-0.305,2085483
-0.008,0.06,0.997,-0.305,2085487
-0.007,0.06,0.996,-0.366,2085491
-0.007,0.06,0.996,0.0,2085495
-0.007,0.06,0.996,0.0,2085499
-0.008,0.058,0.997,-0.122,2085503
-0.008,0.058,0.997,-0.244,2085507
-0.01,0.059,0.996,-0.244,2085511
-0.01,0.059,0.996,-0.183,2085514
-0.01,0.059,0.996,-0.183,2085518
-0.008,0.059,0.997,-0.122,2085522
-0.008,0.059,0.997,-0.183,2085526
-0.006,0.058,0.996,-0.305,2085530
-0.006,0.058,0.996,-0.183,2085534
-0.006,0.058,0.996,-0.183,2085538
-0.006,0.056,0.998,-0.183,2085542
-0.006,0.056,0.998,-0.244,2085546
-0.006,0.056,0.997,-0.183,2085550
-0.006,0.056,0.997,-0.122,2085554
-0.006,0.056,0.997,-0.122,2085558
-0.007,0.055,0.998,-0.122,2085562
-0.007,0.055,0.998,-0.244,2085566
-0.005,0.055,0.999,-0.244,2085570
-0.005,0.055,0.999,-0.061,2085574
-0.005,0.055,0.999,-0.061,2085578
-0.002,0.053,1.001,-0.244,2085582
-0.002,0.053,1.001,-0.427,2085586
-0.004,0.052,1.001,-0.244,2085590
-0.004,0.052,1.001,-0.122,2085594
-0.004,0.052,1.001,-0.122,2085598
-0.003,0.05,1.0,-0.305,2085602
-0.003,0.05,1.0,-0.305,2085606
-0.001,0.051,1.0,-0.061,2085610
-0.001,0.051,1.0,-0.122,2085614
-0.001,0.051,1.0,-0.122,2085618
-0.001,0.051,1.001,-0.244,2085622
-0.001,0.051,1.001,-0.305,2085626
-0.002,0.052,1.001,-0.305,2085630
-0.002,0.052,1.001,-0.183,2085634
-0.002,0.052,1.001,-0.183,2085638
-0.0,0.052,1.002,-0.122,2085641
-0.0,0.052,1.002,-0.244,2085645
-0.001,0.052,1.0,-0.183,2085649
-0.001,0.052,1.0,-0.244,2085653
-0.001,0.052,1.0,-0.244,2085657
-0.001,0.052,1.002,-0.366,2085661
-0.001,0.052,1.002,-0.061,2085665
-0.002,0.054,1.001,-0.122,2085669
-0.002,0.054,1.001,-0.305,2085673
-0.002,0.054,1.001,-0.305,2085677
-0.004,0.054,0.999,-0.244,2085681
-0.004,0.054,0.999,-0.366,2085685
-0.004,0.057,0.998,-0.305,2085689
-0.004,0.057,0.998,-0.122,2085693
-0.004,0.057,0.998,-0.122,2085697
-0.003,0.057,0.999,-0.122,2085701
-0.003,0.057,0.999,-0.122,2085705
-0.007,0.057,0.997,-0.122,2085709
-0.007,0.057,0.997,-0.183,2085713
-0.007,0.057,0.997,-0.183,2085717
-0.007,0.057,0.997,-0.183,2085721
-0.007,0.057,0.997,-0.122,2085725
-0.007,0.058,0.999,-0.122,2085729
-0.007,0.058,0.999,-0.122,2085733
-0.007,0.058,0.999,-0.122,2085737
-0.008,0.057,0.997,-0.122,2085741
-0.008,0.057,0.997,-0.061,2085745
-0.009,0.057,0.995,-0.183,2085749
-0.009,0.057,0.995,-0.244,2085753
-0.009,0.057,0.995,-0.244,2085757
-0.01,0.058,0.999,-0.244,2085761
-0.01,0.058,0.999,-0.061,2085765
-0.01,0.058,0.998,-0.366,2085769
-0.01,0.058,0.998,-0.244,2085772
-0.01,0.058,0.998,-0.244,2085776
-0.011,0.055,0.997,-0.122,2085780
-0.011,0.055,0.997,-0.122,2085784
-0.007,0.056,0.996,-0.183,2085788
-0.007,0.056,0.996,-0.183,2085792
-0.007,0.056,0.996,-0.183,2085796
-0.009,0.056,0.998,-0.183,2085800
-0.009,0.056,0.998,-0.305,2085804
-0.008,0.055,0.999,-0.244,2085808
-0.008,0.055,0.999,-0.244,2085812
-0.008,0.055,0.999,-0.244,2085816
-0.006,0.055,0.999,-0.244,2085820
-0.006,0.055,0.999,-0.183,2085824
-0.004,0.053,0.998,-0.061,2085828
-0.004,0.053,0.998,-0.244,2085832
-0.004,0.053,0.998,-0.244,2085836
-0.003,0.053,1.0,-0.183,2085840
-0.003,0.053,1.0,-0.183,2085844
-0.001,0.054,1.0,-0.183,2085848
-0.001,0.054,1.0,-0.183,2085852
-0.001,0.054,1.0,-0.183,2085856
-0.002,0.052,1.0,-0.183,2085860
-0.002,0.052,1.0,-0.122,2085864
-0.001,0.052,1.001,-0.244,2085868
-0.001,0.052,1.001,-0.183,2085872
-0.001,0.052,1.001,-0.183,2085876
-0.001,0.053,1.002,-0.122,2085880
-0.001,0.053,1.002,-0.183,2085884
0.0,0.054,1.002,-0.244,2085888
0.0,0.054,1.002,-0.183,2085892
0.0,0.054,1.002,-0.183,2085896
-0.0,0.053,1.001,-0.244,2085900
-0.0,0.053,1.001,-0.244,2085903
-0.001,0.053,1.001,-0.244,2085907
-0.001,0.053,1.001,-0.183,2085911
-0.001,0.053,1.001,-0.183,2085915
-0.001,0.054,1.001,-0.183,2085919
-0.001,0.054,1.001,-0.366,2085923
-0.003,0.053,1.0,-0.183,2085927
-0.003,0.053,1.0,-0.061,2085931
-0.003,0.053,1.0,-0.061,2085935
-0.003,0.053,1.0,-0.244,2085939
-0.003,0.053,1.0,-0.183,2085943
-0.004,0.055,1.001,-0.183,2085947
-0.004,0.055,1.001,-0.183,2085951
-0.004,0.055,1.001,-0.183,2085955
-0.006,0.056,0.999,-0.061,2085959
-0.006,0.056,0.999,-0.061,2085963
-0.008,0.054,0.998,-0.122,2085967
-0.008,0.054,0.998,-0.122,2085971
-0.008,0.054,0.998,-0.122,2085975
-0.009,0.056,0.998,-0.122,2085979
-0.009,0.056,0.998,-0.183,2085983
-0.009,0.057,0.997,-0.122,2085987
-0.009,0.057,0.997,-0.122,2085991
-0.009,0.057,0.997,-0.122,2085995
-0.01,0.057,0.995,-0.061,2085999
-0.01,0.057,0.995,-0.183,2086003
-0.009,0.056,0.995,-0.244,2086007
-0.009,0.056,0.995,-0.183,2086011
-0.009,0.056,0.995,-0.183,2086015
-0.009,0.056,0.996,-0.183,2086019
-0.009,0.056,0.996,-0.244,2086023
-0.01,0.056,0.997,-0.183,2086027
-0.01,0.056,0.997,-0.244,2086030
-0.01,0.056,0.997,-0.244,2086034
-0.008,0.057,0.997,-0.183,2086038
-0.008,0.057,0.997,-0.183,2086042
-0.008,0.057,0.997,-0.061,2086046
-0.008,0.057,0.997,-0.244,2086050
-0.008,0.057,0.997,-0.244,2086054
-0.007,0.056,0.999,-0.244,2086058
-0.007,0.056,0.999,-0.183,2086062
-0.005,0.057,0.998,-0.122,2086066
-0.005,0.057,0.998,-0.122,2086070
-0.005,0.057,0.998,-0.122,2086074
-0.005,0.055,0.997,-0.122,2086078
-0.005,0.055,0.997,-0.244,2086082
-0.004,0.055,1.0,-0.244,2086086
-0.004,0.055,1.0,-0.061,2086090
-0.004,0.055,1.0,-0.061,2086094
-0.004,0.055,1.0,-0.183,2086098
-0.004,0.055,1.0,-0.244,2086102
-0.002,0.053,0.999,-0.305,2086106
-0.002,0.053,0.999,-0.244,2086110
-0.002,0.053,0.999,-0.244,2086114
-0.002,0.053,1.001,-0.183,2086118
-0.002,0.053,1.001,-0.183,2086122
-0.002,0.053,1.002,-0.122,2086126
-0.002,0.053,1.002,-0.122,2086130
-0.002,0.053,1.002,-0.122,2086134
-0.002,0.052,1.001,-0.244,2086138
-0.002,0.052,1.001,-0.305,2086142
0.0,0.053,1.0,-0.183,2086145
0.0,0.053,1.0,-0.183,2086149
0.0,0.053,1.0,-0.183,2086153
-0.001,0.052,1.002,-0.061,2086157
-0.001,0.052,1.002,-0.244,2086161
-0.004,0.052,1.002,-0.183,2086165
-0.004,0.052,1.002,-0.244,2086169
-0.004,0.052,1.002,-0.244,2086173
-0.003,0.052,1.001,-0.183,2086177
-0.003,0.052,1.001,-0.244,2086181
-0.004,0.052,1.001,-0.244,2086185
-0.004,0.052,1.001,-0.244,2086189
-0.004,0.052,1.001,-0.244,2086193
-0.004,0.054,1.0,-0.305,2086197
-0.004,0.054,1.0,-0.183,2086201
-0.004,0.054,0.999,-0.305,2086205
-0.004,0.054,0.999,-0.305,2086209
-0.004,0.054,0.999,-0.305,2086213
-0.006,0.054,0.999,-0.244,2086217
-0.006,0.054,0.999,-0.244,2086221
-0.007,0.056,1.0,-0.244,2086225
-0.007,0.056,1.0,-0.244,2086229
-0.007,0.056,1.0,-0.244,2086233
-0.006,0.056,0.999,-0.061,2086237
-0.006,0.056,0.999,-0.122,2086241
-0.007,0.056,0.996,-0.061,2086245
-0.007,0.056,0.996,-0.183,2086249
-0.007,0.056,0.996,-0.183,2086253
-0.009,0.057,0.998,-0.305,2086257
-0.009,0.057,0.998,-0.183,2086261
-0.009,0.058,0.998,0.0,2086264
-0.009,0.058,0.998,-0.122,2086268
-0.009,0.058,0.998,-0.122,2086272
-0.009,0.057,0.997,-0.183,2086276
-0.009,0.057,0.997,-0.366,2086280
-0.007,0.058,0.997,-0.183,2086284
-0.007,0.058,0.997,-0.122,2086288
-0.007,0.058,0.997,-0.122,2086292
-0.008,0.059,0.997,-0.122,2086296
-0.008,0.059,0.997,-0.122,2086300
-0.007,0.057,0.998,-0.122,2086304
-0.007,0.057,0.998,-0.122,2086308
-0.007,0.057,0.998,-0.122,2086312
-0.007,0.056,0.997,-0.244,2086316
-0.007,0.056,0.997,-0.122,2086320
-0.006,0.055,0.998,-0.183,2086324
-0.006,0.055,0.998,-0.244,2086328
-0.006,0.055,0.998,-0.244,2086332
-0.006,0.054,1.001,-0.183,2086336
-0.006,0.054,1.001,-0.244,2086340
-0.005,0.054,1.0,-0.122,2086344
-0.005,0.054,1.0,-0.244,2086348
-0.005,0.054,1.0,-0.244,2086352
-0.005,0.054,0.999,-0.183,2086356
-0.005,0.054,0.999,-0.244,2086360
-0.004,0.053,0.998,-0.305,2086364
-0.004,0.053,0.998,-0.244,2086368
-0.004,0.053,0.998,-0.244,2086372
-0.002,0.053,0.999,-0.305,2086376
-0.002,0.053,0.999,-0.244,2086380
-0.004,0.053,1.0,-0.122,2086384
-0.004,0.053,1.0,-0.305,2086387
-0.004,0.053,1.0,-0.305,2086391
-0.003,0.053,1.0,-0.244,2086395
-0.003,0.053,1.0,-0.183,2086399
-0.003,0.052,1.001,-0.183,2086403
-0.003,0.052,1.001,-0.244,2086407
-0.003,0.052,1.001,-0.244,2086411
-0.001,0.051,1.001,-0.183,2086415
-0.001,0.051,1.001,-0.122,2086419
-0.003,0.052,1.0,-0.244,2086423
-0.003,0.052,1.0,-0.183,2086427
-0.003,0.052,1.0,-0.183,2086431
-0.003,0.052,1.0,-0.122,2086435
-0.003,0.052,1.0,-0.122,2086439
-0.002,0.053,1.0,-0.366,2086443
-0.002,0.053,1.0,-0.183,2086447
-0.002,0.053,1.0,-0.183,2086451
-0.005,0.055,0.998,-0.061,2086455
-0.005,0.055,0.998,-0.122,2086459
-0.006,0.056,0.999,-0.366,2086463
-0.006,0.056,0.999,-0.488,2086467
-0.006,0.056,0.999,-0.488,2086471
-0.005,0.056,0.998,-0.244,2086475
-0.005,0.056,0.998,-0.183,2086479
-0.007,0.056,1.0,-0.244,2086483
-0.007,0.056,1.0,-0.183,2086487
-0.007,0.056,1.0,-0.183,2086491
-0.006,0.058,0.999,-0.122,2086495
-0.006,0.058,0.999,-0.244,2086499
-0.007,0.057,0.999,-0.244,2086503
-0.007,0.057,0.999,-0.244,2086507
-0.007,0.057,0.999,-0.244,2086511
-0.01,0.058,0.996,-0.244,2086515
-0.01,0.058,0.996,-0.183,2086518
-0.01,0.056,0.997,-0.183,2086522
-0.01,0.056,0.997,-0.244,2086526
-0.01,0.056,0.997,-0.244,2086530
-0.01,0.057,0.996,-0.122,2086534
-0.01,0.057,0.996,-0.122,2086538
-0.007,0.057,0.997,-0.122,2086542
-0.007,0.057,0.997,-0.183,2086546
-0.007,0.057,0.997,-0.183,2086550
-0.008,0.055,0.998,-0.244,2086554
-0.008,0.055,0.998,-0.244,2086558
-0.009,0.056,0.998,-0.244,2086562
-0.009,0.056,0.998,-0.122,2086566
-0.009,0.056,0.998,-0.122,2086570
-0.006,0.055,0.998,-0.183,2086574
-0.006,0.055,0.998,-0.061,2086578
-0.006,0.053,0.998,-0.122,2086582
-0.006,0.053,0.998,-0.244,2086586
-0.006,0.053,0.998,-0.244,2086590
-0.005,0.054,0.999,-0.244,2086594
-0.005,0.054,0.999,-0.183,2086598
-0.006,0.055,0.998,-0.183,2086602
-0.006,0.055,0.998,-0.122,2086606
-0.006,0.055,0.998,-0.122,2086610
-0.005,0.054,1.0,-0.061,2086614
-0.005,0.054,1.0,-0.305,2086618
-0.003,0.053,1.001,-0.244,2086622
-0.003,0.053,1.001,-0.122,2086626
-0.003,0.053,1.001,-0.122,2086630
-0.002,0.055,1.002,-0.183,2086634
-0.002,0.055,1.002,-0.183,2086638
-0.003,0.054,1.001,-0.305,2086642
-0.003,0.054,1.001,-0.427,2086646
-0.003,0.054,1.001,-0.427,2086650
-0.002,0.053,1.0,-0.244,2086654
-0.002,0.053,1.0,-0.244,2086658
-0.002,0.054,1.003,-0.305,2086662
-0.002,0.054,1.003,-0.183,2086665
-0.002,0.054,1.003,-0.183,2086669
-0.002,0.055,1.002,-0.244,2086673
-0.002,0.055,1.002,-0.183,2086677
-0.003,0.054,1.0,-0.183,2086681
-0.003,0.054,1.0,-0.183,2086685
-0.003,0.054,1.0,-0.183,2086689
-0.005,0.054,1.0,-0.183,2086693
-0.005,0.054,1.0,-0.244,2086697
-0.003,0.055,1.0,-0.244,2086701
-0.003,0.055,1.0,-0.183,2086705
-0.003,0.055,1.0,-0.183,2086709
-0.004,0.055,1.0,-0.122,2086713
-0.004,0.055,1.0,-0.244,2086717
-0.008,0.056,0.998,-0.244,2086721
-0.008,0.056,0.998,-0.061,2086725
-0.008,0.056,0.998,-0.061,2086729
-0.007,0.057,0.998,-0.183,2086733
-0.007,0.057,0.998,-0.183,2086737
-0.007,0.055,1.0,-0.122,2086741
-0.007,0.055,1.0,-0.061,2086745
-0.007,0.055,1.0,-0.061,2086749
-0.008,0.056,0.998,-0.183,2086753
-0.008,0.056,0.998,-0.183,2086757
-0.008,0.056,0.998,-0.244,2086761
-0.008,0.056,0.998,-0.183,2086765
-0.008,0.056,0.998,-0.183,2086769
-0.009,0.059,0.998,-0.122,2086773
-0.009,0.059,0.998,-0.122,2086777
-0.009,0.058,0.998,-0.122,2086781
-0.009,0.058,0.998,-0.244,2086785
-0.009,0.058,0.998,-0.244,2086789
-0.008,0.056,0.995,-0.183,2086793
-0.008,0.056,0.995,-0.305,2086797
-0.01,0.056,0.997,-0.183,2086800
-0.01,0.056,0.997,0.0,2086804
-0.01,0.056,0.997,0.0,2086808
-0.007,0.056,0.998,-0.061,2086812
-0.007,0.056,0.998,-0.244,2086816
-0.008,0.056,0.998,-0.183,2086820
-0.008,0.056,0.998,-0.244,2086824
-0.008,0.056,0.998,-0.244,2086828
-0.006,0.055,0.998,-0.305,2086832
-0.006,0.055,0.998,-0.061,2086836
-0.005,0.054,0.998,-0.183,2086840
-0.005,0.054,0.998,-0.183,2086844
-0.005,0.054,0.998,-0.183,2086848
-0.005,0.056,1.0,-0.183,2086852
-0.005,0.056,1.0,-0.244,2086856
-0.004,0.055,1.0,-0.305,2086860
-0.004,0.055,1.0,-0.244,2086864
-0.004,0.055,1.0,-0.244,2086868
-0.002,0.055,1.0,-0.183,2086872
-0.002,0.055,1.0,-0.244,2086876
-0.001,0.054,0.999,-0.305,2086880
-0.001,0.054,0.999,-0.183,2086884
-0.001,0.054,0.999,-0.183,2086888
-0.004,0.053,0.999,-0.305,2086892
-0.004,0.053,0.999,-0.183,2086896
-0.004,0.053,1.001,-0.305,2086900
-0.004,0.053,1.001,-0.183,2086904
-0.004,0.053,1.001,-0.183,2086908
-0.003,0.053,1.002,-0.122,2086911
-0.003,0.053,1.002,-0.183,2086915
-0.002,0.053,1.001,-0.244,2086919
-0.002,0.053,1.001,-0.244,2086923
-0.002,0.053,1.001,-0.244,2086927
-0.003,0.052,0.999,-0.244,2086931
-0.003,0.052,0.999,-0.122,2086935
-0.003,0.052,0.998,-0.061,2086939
-0.003,0.052,0.998,-0.122,2086943
-0.003,0.052,0.998,-0.122,2086947
-0.005,0.052,0.998,-0.122,2086951
-0.005,0.052,0.998,-0.061,2086955
-0.005,0.054,1.0,-0.183,2086959
-0.005,0.054,1.0,-0.183,2086963
-0.005,0.054,1.0,-0.183,2086967
-0.004,0.055,0.999,-0.122,2086971
-0.004,0.055,0.999,-0.305,2086975
-0.005,0.055,1.0,-0.183,2086979
-0.005,0.055,1.0,-0.183,2086983
-0.005,0.055,1.0,-0.183,2086987
-0.006,0.055,1.0,-0.244,2086991
-0.006,0.055,1.0,-0.183,2086995
-0.005,0.056,0.998,-0.122,2086999
-0.005,0.056,0.998,0.0,2087003
-0.005,0.056,0.998,0.0,2087007
-0.005,0.056,0.998,-0.244,2087011
-0.005,0.056,0.998,-0.305,2087015
-0.008,0.056,0.996,-0.244,2087019
-0.008,0.056,0.996,-0.122,2087023
-0.008,0.056,0.996,-0.122,2087027
-0.008,0.058,0.998,-0.122,2087030
-0.008,0.058,0.998,-0.244,2087034
-0.007,0.058,0.998,-0.183,2087038
-0.007,0.058,0.998,-0.183,2087042
-0.007,0.058,0.998,-0.183,2087046
-0.008,0.057,0.998,-0.183,2087050
-0.008,0.057,0.998,-0.183,2087054
-0.007,0.056,0.997,-0.305,2087058
-0.007,0.056,0.997,-0.122,2087062
-0.007,0.056,0.997,-0.122,2087066
-0.006,0.057,0.998,-0.122,2087070
-0.006,0.057,0.998,-0.183,2087074
-0.006,0.056,0.998,-0.244,2087078
-0.006,0.056,0.998,-0.305,2087082
-0.006,0.056,0.998,-0.305,2087086
-0.007,0.056,0.999,-0.244,2087090
-0.007,0.056,0.999,-0.244,2087094
-0.005,0.055,1.0,-0.244,2087098
-0.005,0.055,1.0,-0.244,2087102
-0.005,0.055,1.0,-0.244,2087106
-0.004,0.055,0.999,-0.122,2087110
-0.004,0.055,0.999,-0.244,2087114
-0.004,0.053,1.001,-0.305,2087118
-0.004,0.053,1.001,-0.244,2087122
-0.004,0.053,1.001,-0.244,2087126
-0.004,0.053,1.0,-0.305,2087130
-0.004,0.053,1.0,-0.183,2087134
-0.003,0.054,0.999,-0.244,2087138
-0.003,0.054,0.999,-0.183,2087142
-0.003,0.054,0.999,-0.183,2087146
-0.002,0.054,1.0,-0.183,2087150
-0.002,0.054,1.0,-0.305,2087154
-0.002,0.053,1.001,-0.305,2087158
-0.002,0.053,1.001,-0.183,2087162
-0.002,0.053,1.001,-0.183,2087165
-0.002,0.052,1.001,-0.244,2087169
-0.002,0.052,1.001,-0.183,2087173
-0.001,0.052,1.0,-0.244,2087177
-0.001,0.052,1.0,-0.183,2087181
-0.001,0.052,1.0,-0.183,2087185
-0.004,0.053,1.001,-0.244,2087189
-0.004,0.053,1.001,-0.122,2087193
-0.002,0.054,1.0,-0.122,2087197
-0.002,0.054,1.0,-0.183,2087201
-0.002,0.054,1.0,-0.183,2087205
-0.004,0.054,1.001,-0.183,2087209
-0.004,0.054,1.001,-0.244,2087213
-0.005,0.054,1.0,-0.183,2087217
-0.005,0.054,1.0,-0.244,2087221
-0.005,0.054,1.0,-0.244,2087225
-0.004,0.055,1.0,-0.244,2087229
-0.004,0.055,1.0,-0.183,2087233
-0.006,0.056,0.998,-0.244,2087237
-0.006,0.056,0.998,-0.122,2087241
-0.006,0.056,0.998,-0.122,2087245
-0.006,0.056,0.998,-0.305,2087249
-0.006,0.056,0.998,-0.183,2087253
-0.007,0.058,0.998,-0.183,2087257
-0.007,0.058,0.998,-0.061,2087261
-0.007,0.058,0.998,-0.061,2087265
-0.006,0.057,0.997,-0.183,2087269
-0.006,0.057,0.997,-0.183,2087273
-0.007,0.058,0.999,-0.061,2087277
-0.007,0.058,0.999,-0.244,2087281
-0.007,0.058,0.999,-0.244,2087285
-0.009,0.057,0.999,-0.244,2087289
-0.009,0.057,0.999,-0.244,2087293
-0.007,0.057,0.998,-0.244,2087297
-0.007,0.057,0.998,-0.122,2087300
-0.007,0.057,0.998,-0.122,2087304
-0.008,0.056,0.998,-0.122,2087308
-0.008,0.056,0.998,-0.244,2087312
-0.008,0.057,0.998,-0.366,2087316
-0.008,0.057,0.998,-0.366,2087320
-0.008,0.057,0.998,-0.366,2087324
-0.006,0.056,0.998,-0.183,2087328
-0.006,0.056,0.998,-0.183,2087332
-0.005,0.054,0.998,-0.183,2087336
-0.005,0.054,0.998,-0.183,2087340
-0.005,0.054,0.998,-0.183,2087344
-0.004,0.055,0.999,-0.183,2087348
-0.004,0.055,0.999,-0.183,2087352
-0.007,0.055,0.999,-0.122,2087356
-0.007,0.055,0.999,-0.183,2087360
-0.007,0.055,0.999,-0.183,2087364
-0.005,0.054,1.001,-0.183,2087368
-0.005,0.054,1.001,-0.244,2087372
-0.005,0.053,1.001,-0.122,2087376
-0.005,0.053,1.001,-0.122,2087380
-0.005,0.053,1.001,-0.122,2087384
-0.003,0.055,1.0,-0.122,2087388
-0.003,0.055,1.0,-0.122,2087392
-0.003,0.054,1.0,-0.244,2087396
-0.003,0.054,1.0,-0.244,2087400
-0.003,0.054,1.0,-0.244,2087404
-0.001,0.054,1.001,-0.183,2087408
-0.001,0.054,1.001,0.0,2087412
-0.003,0.054,1.002,0.0,2087415
-0.003,0.054,1.002,-0.122,2087419
-0.003,0.054,1.002,-0.122,2087423
-0.001,0.053,0.999,-0.244,2087427
-0.001,0.053,0.999,-0.244,2087431
-0.002,0.054,0.999,-0.366,2087435
-0.002,0.054,0.999,-0.122,2087439
-0.002,0.054,0.999,-0.122,2087443
-0.003,0.054,1.0,-0.183,2087447
-0.003,0.054,1.0,-0.366,2087451
-0.003,0.054,1.0,-0.183,2087455
-0.003,0.054,1.0,-0.183,2087459
-0.003,0.054,1.0,-0.183,2087463
-0.004,0.054,1.001,-0.305,2087467
-0.004,0.054,1.001,-0.244,2087471
-0.005,0.054,1.0,-0.244,2087475
-0.005,0.054,1.0,-0.244,2087479
-0.005,0.054,1.0,-0.244,2087483
-0.006,0.055,0.999,-0.122,2087487
-0.006,0.055,0.999,0.0,2087491
-0.007,0.054,1.0,-0.183,2087495
-0.007,0.054,1.0,-0.244,2087499
-0.007,0.054,1.0,-0.244,2087503
-0.007,0.055,0.999,-0.183,2087507
-0.007,0.055,0.999,-0.122,2087511
-0.007,0.057,0.996,-0.122,2087515
-0.007,0.057,0.996,-0.183,2087519
-0.007,0.057,0.996,-0.183,2087523
-0.005,0.057,0.997,-0.305,2087527
-0.005,0.057,0.997,-0.183,2087530
-0.008,0.055,0.998,-0.122,2087534
-0.008,0.055,0.998,-0.122,2087538
-0.008,0.055,0.998,-0.122,2087542
-0.009,0.055,0.999,-0.244,2087546
-0.009,0.055,0.999,-0.244,2087550
-0.007,0.057,0.997,-0.122,2087554
-0.007,0.057,0.997,-0.183,2087558
-0.007,0.057,0.997,-0.183,2087562
-0.009,0.056,0.997,-0.244,2087566
-0.009,0.056,0.997,-0.244,2087570
-0.008,0.057,0.999,-0.366,2087574
-0.008,0.057,0.999,-0.244,2087578
-0.008,0.057,0.999,-0.244,2087582
-0.007,0.056,0.997,-0.183,2087586
-0.007,0.056,0.997,-0.122,2087590
-0.007,0.056,0.997,-0.122,2087594
-0.007,0.056,0.997,-0.305,2087598
-0.007,0.056,0.997,-0.305,2087602
-0.006,0.056,1.0,-0.244,2087606
-0.006,0.056,1.0,-0.122,2087610
-0.006,0.056,0.999,-0.305,2087614
-0.006,0.056,0.999,-0.183,2087618
-0.006,0.056,0.999,-0.183,2087622
-0.003,0.056,0.999,-0.183,2087626
-0.003,0.056,0.999,-0.244,2087630
-0.004,0.056,0.997,-0.183,2087634
-0.004,0.056,0.997,-0.122,2087638
-0.004,0.056,0.997,-0.122,2087642
-0.004,0.055,0.998,-0.122,2087646
-0.004,0.055,0.998,-0.122,2087650
-0.003,0.054,1.0,-0.183,2087654
-0.003,0.054,1.0,-0.305,2087658
-0.003,0.054,1.0,-0.305,2087662
-0.002,0.054,1.001,-0.244,2087665
-0.002,0.054,1.001,-0.122,2087669
-0.004,0.054,0.999,-0.244,2087673
-0.004,0.054,0.999,-0.183,2087677
-0.004,0.054,0.999,-0.183,2087681
-0.003,0.052,1.0,-0.244,2087685
-0.003,0.052,1.0,-0.366,2087689
-0.003,0.054,1.0,-0.244,2087693
-0.003,0.054,1.0,-0.061,2087697
-0.003,0.054,1.0,-0.061,2087701
-0.004,0.052,1.0,-0.244,2087705
-0.004,0.052,1.0,-0.183,2087709
-0.004,0.054,0.998,-0.183,2087713
-0.004,0.054,0.998,-0.183,2087717
-0.004,0.054,0.998,-0.183,2087721
-0.006,0.055,0.999,-0.305,2087725
-0.006,0.055,0.999,-0.244,2087729
-0.004,0.055,1.0,-0.244,2087733
-0.004,0.055,1.0,-0.122,2087737
-0.004,0.055,1.0,-0.122,2087741
-0.005,0.056,1.0,-0.305,2087745
-0.005,0.056,1.0,-0.244,2087749
-0.005,0.055,1.0,-0.122,2087753
-0.005,0.055,1.0,-0.122,2087757
-0.005,0.055,1.0,-0.122,2087761
-0.005,0.056,1.0,-0.305,2087765
-0.005,0.056,1.0,-0.305,2087769
-0.006,0.056,0.997,-0.244,2087773
-0.006,0.056,0.997,-0.427,2087777
-0.006,0.056,0.997,-0.427,2087781
-0.006,0.056,0.998,-0.366,2087785
-0.006,0.056,0.998,-0.366,2087789
-0.007,0.057,0.999,-0.244,2087792
-0.007,0.057,0.999,-0.244,2087796
-0.007,0.057,0.999,-0.244,2087800
-0.008,0.058,0.998,-0.305,2087804
-0.008,0.058,0.998,-0.244,2087808
-0.007,0.058,0.999,-0.183,2087812
-0.007,0.058,0.999,-0.183,2087816
-0.007,0.058,0.999,-0.183,2087820
-0.005,0.057,1.0,-0.122,2087824
-0.005,0.057,1.0,-0.244,2087828
-0.007,0.055,0.997,-0.122,2087832
-0.007,0.055,0.997,-0.122,2087836
-0.007,0.055,0.997,-0.122,2087840
-0.006,0.056,0.997,-0.244,2087844
-0.006,0.056,0.997,-0.183,2087848
-0.005,0.056,0.998,-0.183,2087852
-0.005,0.056,0.998,-0.183,2087856
-0.005,0.056,0.998,-0.183,2087860
-0.006,0.055,0.998,-0.305,2087864
-0.006,0.055,0.998,-0.366,2087868
-0.006,0.055,0.999,-0.305,2087872
-0.006,0.055,0.999,-0.122,2087876
-0.006,0.055,0.999,-0.122,2087880
-0.005,0.055,0.998,-0.183,2087884
-0.005,0.055,0.998,-0.122,2087888
-0.004,0.053,1.0,-0.183,2087892
-0.004,0.053,1.0,-0.183,2087896
-0.004,0.053,1.0,-0.183,2087900
-0.004,0.052,1.0,-0.122,2087904
-0.004,0.052,1.0,-0.122,2087908
-0.003,0.052,1.0,-0.122,2087912
-0.003,0.052,1.0,-0.183,2087916
-0.003,0.052,1.0,-0.183,2087920
-0.002,0.053,1.0,-0.244,2087924
-0.002,0.053,1.0,-0.183,2087928
-0.003,0.054,1.001,-0.183,2087931
-0.003,0.054,1.001,-0.122,2087935
-0.003,0.054,1.001,-0.122,2087939
-0.003,0.054,1.0,-0.061,2087943
-0.003,0.054,1.0,-0.305,2087947
-0.003,0.053,0.999,-0.366,2087951
-0.003,0.053,0.999,-0.061,2087955
-0.003,0.053,0.999,-0.061,2087959
-0.003,0.053,1.001,-0.183,2087963
-0.003,0.053,1.001,-0.183,2087967
-0.003,0.053,1.0,-0.061,2087971
-0.003,0.053,1.0,-0.122,2087975
-0.003,0.053,1.0,-0.122,2087979
-0.003,0.053,1.0,-0.061,2087983
-0.003,0.053,1.0,-0.061,2087987
-0.004,0.053,1.001,-0.244,2087991
-0.004,0.053,1.001,-0.122,2087995
-0.004,0.053,1.001,-0.122,2087999
-0.006,0.056,1.001,-0.244,2088003
-0.006,0.056,1.001,-0.183,2088007
-0.006,0.056,1.0,-0.122,2088011
-0.006,0.056,1.0,-0.122,2088015
-0.006,0.056,1.0,-0.122,2088019
-0.007,0.056,0.999,-0.305,2088023
-0.007,0.056,0.999,-0.366,2088027
-0.007,0.057,0.999,-0.122,2088031
-0.007,0.057,0.999,-0.122,2088035
-0.007,0.057,0.999,-0.122,2088039
-0.007,0.055,0.999,-0.244,2088043
-0.007,0.055,0.999,-0.183,2088047
-0.006,0.056,0.999,-0.183,2088051
-0.006,0.056,0.999,-0.244,2088055
-0.006,0.056,0.999,-0.244,2088059
-0.008,0.057,0.998,-0.183,2088063
-0.008,0.057,0.998,-0.061,2088066
-0.008,0.056,0.998,-0.183,2088070
-0.008,0.056,0.998,-0.122,2088074
-0.008,0.056,0.998,-0.122,2088078
-0.008,0.056,0.999,-0.122,2088082
-0.008,0.056,0.999,-0.122,2088086
-0.006,0.056,0.998,-0.183,2088090
-0.006,0.056,0.998,-0.244,2088094
-0.006,0.056,0.998,-0.244,2088098
-0.006,0.054,0.998,-0.183,2088102
-0.006,0.054,0.998,-0.183,2088106
-0.007,0.057,1.0,-0.183,2088110
-0.007,0.057,1.0,-0.244,2088114
-0.007,0.057,1.0,-0.244,2088118
-0.006,0.057,0.999,-0.366,2088122
-0.006,0.057,0.999,-0.244,2088126
-0.005,0.054,1.0,-0.305,2088130
-0.005,0.054,1.0,-0.244,2088134
-0.005,0.054,1.0,-0.244,2088138
-0.005,0.053,1.0,-0.183,2088142
-0.005,0.053,1.0,-0.183,2088146
-0.003,0.054,0.999,-0.183,2088150
-0.003,0.054,0.999,-0.122,2088154
-0.003,0.054,0.999,-0.122,2088158
-0.003,0.054,1.0,-0.183,2088162
-0.003,0.054,1.0,-0.244,2088166
-0.004,0.054,0.999,-0.183,2088170
-0.004,0.054,0.999,-0.183,2088174
-0.004,0.054,0.999,-0.183,2088178
-0.004,0.053,0.998,-0.183,2088182
-0.004,0.053,0.998,-0.183,2088186
-0.004,0.054,1.0,-0.244,2088190
-0.004,0.054,1.0,-0.366,2088194
-0.004,0.054,1.0,-0.366,2088198
-0.002,0.053,1.0,-0.305,2088202
-0.002,0.053,1.0,-0.061,2088205
-0.002,0.053,1.0,-0.183,2088209
-0.002,0.053,1.0,-0.305,2088213
-0.002,0.053,1.0,-0.305,2088217
-0.003,0.053,0.999,-0.183,2088221
-0.003,0.053,0.999,-0.183,2088225
-0.005,0.055,1.0,-0.183,2088229
-0.005,0.055,1.0,-0.183,2088233
-0.005,0.055,1.0,-0.183,2088237
-0.003,0.055,1.0,-0.183,2088241
-0.003,0.055,1.0,-0.183,2088245
-0.004,0.055,0.999,-0.183,2088249
-0.004,0.055,0.999,-0.183,2088253
-0.004,0.055,0.999,-0.183,2088257
-0.006,0.055,0.997,-0.183,2088261
-0.006,0.055,0.997,-0.183,2088265
-0.007,0.055,0.999,-0.244,2088269
-0.007,0.055,0.999,-0.122,2088273
-0.007,0.054,0.999,-0.183,2088277
-0.007,0.054,0.999,-0.183,2088281
-0.007,0.054,0.999,-0.183,2088285
-0.007,0.055,0.997,-0.183,2088289
-0.007,0.055,0.997,-0.305,2088293
-0.007,0.057,0.998,-0.305,2088297
-0.007,0.057,0.998,-0.305,2088301
-0.007,0.057,0.998,-0.122,2088305
-0.009,0.057,0.997,-0.183,2088309
-0.009,0.057,0.997,-0.183,2088313
-0.007,0.057,0.997,-0.183,2088317
-0.007,0.057,0.997,-0.183,2088321
-0.007,0.057,0.997,-0.183,2088325
-0.007,0.056,0.998,-0.183,2088329
-0.007,0.056,0.998,-0.244,2088333
-0.007,0.055,0.999,-0.244,2088337
-0.007,0.055,0.999,-0.244,2088341
-0.007,0.055,0.999,-0.244,2088345
-0.007,0.057,0.997,-0.244,2088349
-0.007,0.057,0.997,-0.244,2088353
-0.006,0.056,0.998,-0.183,2088357
-0.006,0.056,0.998,-0.183,2088360
-0.006,0.056,0.998,-0.244,2088364
-0.006,0.057,0.999,-0.305,2088368
-0.006,0.057,0.999,-0.183,2088372
-0.008,0.055,1.0,-0.183,2088376
-0.008,0.055,1.0,-0.183,2088380
-0.008,0.055,1.0,-0.183,2088384
-0.007,0.055,1.0,-0.244,2088388
-0.007,0.055,1.0,-0.244,2088392
-0.005,0.056,1.0,-0.183,2088396
-0.005,0.056,1.0,-0.183,2088400
-0.005,0.056,1.0,-0.122,2088404
-0.004,0.054,0.999,-0.183,2088408
-0.004,0.054,0.999,-0.183,2088412
-0.003,0.054,1.0,-0.183,2088416
-0.003,0.054,1.0,-0.183,2088420
-0.003,0.054,1.0,-0.244,2088424
-0.003,0.054,1.001,-0.305,2088428
-0.003,0.054,1.001,-0.183,2088432
-0.003,0.054,1.001,-0.061,2088436
-0.003,0.054,1.001,-0.061,2088440
-0.003,0.054,1.001,-0.183,2088444
-0.005,0.054,0.999,-0.244,2088448
-0.005,0.054,0.999,-0.122,2088452
-0.004,0.054,1.001,0.0,2088456
-0.004,0.054,1.001,0.0,2088460
-0.004,0.054,1.001,-0.244,2088463
-0.002,0.053,1.0,-0.305,2088467
-0.002,0.053,1.0,-0.183,2088471
-0.005,0.054,1.0,0.0,2088475
-0.005,0.054,1.0,0.0,2088479
-0.005,0.054,1.0,0.0,2088483
-0.005,0.055,0.999,-0.244,2088487
-0.005,0.055,0.999,-0.305,2088491
-0.005,0.055,0.999,-0.305,2088495
-0.006,0.054,0.999,-0.122,2088499
-0.006,0.054,0.999,-0.183,2088503
-0.005,0.055,1.0,-0.183,2088507
-0.005,0.055,1.0,-0.244,2088511
-0.005,0.055,1.0,-0.244,2088515
-0.005,0.055,0.998,-0.244,2088519
-0.005,0.055,0.998,-0.061,2088523
-0.007,0.055,0.999,-0.183,2088527
-0.007,0.055,0.999,-0.061,2088531
-0.007,0.055,0.999,-0.061,2088535
-0.004,0.057,0.999,-0.183,2088539
-0.004,0.057,0.999,-0.244,2088543
-0.006,0.056,1.0,-0.244,2088547
-0.006,0.056,1.0,-0.244,2088551
-0.006,0.056,1.0,-0.244,2088555
-0.008,0.056,1.0,-0.122,2088559
-0.008,0.056,1.0,-0.122,2088563
-0.006,0.057,0.999,0.0,2088566
-0.006,0.057,0.999,-0.061,2088570
-0.006,0.057,0.999,-0.061,2088574
-0.007,0.057,0.997,-0.183,2088578
-0.007,0.057,0.997,-0.122,2088582
-0.006,0.056,0.999,-0.183,2088586
-0.006,0.056,0.999,-0.183,2088590
-0.006,0.056,0.999,-0.183,2088594
-0.006,0.056,1.0,-0.244,2088598
-0.006,0.056,1.0,-0.244,2088602
-0.006,0.056,0.997,-0.122,2088606
-0.006,0.056,0.997,-0.061,2088610
-0.006,0.056,0.997,-0.061,2088614
-0.006,0.055,0.998,-0.244,2088618
-0.006,0.055,0.998,-0.305,2088622
-0.005,0.056,0.999,-0.183,2088626
-0.005,0.056,0.999,-0.244,2088630
-0.005,0.056,0.999,-0.244,2088634
-0.005,0.056,0.998,-0.061,2088638
-0.005,0.056,0.998,-0.244,2088642
-0.004,0.054,1.0,-0.183,2088646
-0.004,0.054,1.0,-0.183,2088650
-0.004,0.054,1.0,-0.183,2088654
-0.004,0.054,1.0,-0.244,2088658
-0.004,0.054,1.0,-0.244,2088662
-0.004,0.055,1.001,-0.183,2088666
-0.004,0.055,1.001,-0.244,2088670
-0.004,0.055,1.001,-0.244,2088674
-0.004,0.053,0.999,-0.183,2088678
-0.004,0.053,0.999,-0.061,2088681
-0.003,0.053,0.999,-0.183,2088685
-0.003,0.053,0.999,-0.183,2088689
-0.003,0.053,0.999,-0.183,2088693
-0.003,0.055,1.0,-0.244,2088697
-0.003,0.055,1.0,-0.061,2088701
-0.004,0.054,1.001,-0.061,2088705
-0.004,0.054,1.001,-0.122,2088709
-0.004,0.054,1.001,-0.122,2088713
-0.002,0.054,1.001,-0.061,2088717
-0.002,0.054,1.001,0.0,2088721
-0.003,0.055,1.0,-0.305,2088725
-0.003,0.055,1.0,-0.305,2088729
-0.003,0.055,1.0,-0.305,2088733
-0.004,0.054,0.999,-0.061,2088737
-0.004,0.054,0.999,-0.061,2088741
-0.004,0.054,0.998,-0.061,2088745
-0.004,0.054,0.998,-0.244,2088749
-0.004,0.054,0.998,-0.244,2088753
-0.005,0.055,0.999,-0.183,2088757
-0.005,0.055,0.999,-0.183,2088761
-0.005,0.056,0.999,-0.183,2088765
-0.005,0.056,0.999,-0.183,2088769
-0.005,0.056,0.999,-0.183,2088773
-0.006,0.054,0.999,-0.183,2088777
-0.006,0.054,0.999,-0.305,2088781
-0.006,0.055,0.998,-0.244,2088785
-0.006,0.055,0.998,-0.183,2088789
-0.006,0.055,0.998,-0.183,2088793
-0.005,0.056,0.999,-0.244,2088797
-0.005,0.056,0.999,-0.305,2088801
-0.005,0.055,0.998,-0.183,2088805
-0.005,0.055,0.998,-0.061,2088808
-0.005,0.055,0.998,-0.061,2088812
-0.005,0.055,0.997,-0.305,2088816
-0.005,0.055,0.997,-0.366,2088820
-0.006,0.055,0.997,-0.244,2088824
-0.006,0.055,0.997,-0.244,2088828
-0.006,0.055,0.997,-0.244,2088832
-0.008,0.056,0.997,-0.244,2088836
-0.008,0.056,0.997,-0.122,2088840
-0.007,0.056,0.998,-0.244,2088844
-0.007,0.056,0.998,-0.244,2088848
-0.007,0.056,0.998,-0.244,2088852
-0.008,0.055,0.999,-0.183,2088856
-0.008,0.055,0.999,-0.183,2088860
-0.007,0.055,0.999,-0.244,2088864
-0.007,0.055,0.999,-0.183,2088868
-0.007,0.055,0.999,-0.183,2088872
-0.007,0.055,0.999,-0.183,2088876
-0.007,0.055,0.999,-0.183,2088880
-0.006,0.055,1.0,-0.122,2088884
-0.006,0.055,1.0,-0.244,2088888
-0.006,0.055,1.0,-0.244,2088892
-0.006,0.053,0.998,-0.183,2088896
-0.006,0.053,0.998,-0.305,2088900
-0.006,0.053,1.0,-0.183,2088904
-0.006,0.053,1.0,-0.305,2088908
-0.006,0.053,1.0,-0.305,2088912
-0.005,0.055,1.0,-0.244,2088916
-0.005,0.055,1.0,-0.183,2088920
-0.005,0.055,0.998,-0.122,2088924
-0.005,0.055,0.998,-0.244,2088928
-0.005,0.055,0.998,-0.244,2088932
-0.006,0.055,1.0,-0.122,2088935
-0.006,0.055,1.0,-0.122,2088939
-0.003,0.055,1.0,-0.122,2088943
-0.003,0.055,1.0,-0.305,2088947
-0.003,0.055,1.0,-0.305,2088951
-0.003,0.054,1.0,-0.244,2088955
-0.003,0.054,1.0,-0.122,2088959
-0.003,0.053,1.0,-0.244,2088963
-0.003,0.053,1.0,-0.244,2088967
-0.003,0.053,1.0,-0.244,2088971
-0.003,0.053,1.001,-0.244,2088975
-0.003,0.053,1.001,-0.183,2088979
-0.004,0.053,1.0,0.061,2088983
-0.004,0.053,1.0,-0.244,2088987
-0.004,0.053,1.0,-0.244,2088991
-0.002,0.054,1.0,-0.305,2088995
-0.002,0.054,1.0,-0.305,2088999
-0.004,0.054,0.999,-0.244,2089003
-0.004,0.054,0.999,-0.183,2089007
-0.004,0.054,0.999,-0.183,2089011
-0.004,0.055,0.999,-0.122,2089015
-0.004,0.055,0.999,-0.183,2089019
-0.006,0.057,1.0,-0.183,2089023
-0.006,0.057,1.0,-0.183,2089027
-0.006,0.057,1.0,-0.183,2089031
-0.006,0.055,0.999,-0.122,2089035
-0.006,0.055,0.999,-0.122,2089039
-0.005,0.055,0.999,-0.183,2089043
-0.005,0.055,0.999,-0.244,2089047
-0.005,0.055,0.999,-0.244,2089051
-0.005,0.056,1.0,-0.183,2089055
-0.005,0.056,1.0,-0.122,2089059
-0.006,0.055,0.999,-0.244,2089063
-0.006,0.055,0.999,-0.244,2089067
-0.006,0.055,0.999,-0.244,2089071
-0.007,0.056,1.0,-0.183,2089074
-0.007,0.056,1.0,-0.305,2089078
-0.007,0.056,0.999,-0.305,2089082
-0.007,0.056,0.999,-0.244,2089086
-0.007,0.056,0.999,-0.244,2089090
-0.006,0.056,0.998,-0.305,2089094
-0.006,0.056,0.998,-0.244,2089098
-0.007,0.056,0.996,-0.183,2089102
-0.007,0.056,0.996,-0.183,2089106
-0.007,0.056,0.996,-0.183,2089110
-0.006,0.055,0.999,-0.061,2089114
-0.006,0.055,0.999,-0.183,2089118
-0.007,0.056,0.999,-0.183,2089122
-0.007,0.056,0.999,-0.122,2089126
-0.007,0.056,0.999,-0.122,2089130
-0.005,0.056,0.999,-0.244,2089134
-0.005,0.056,0.999,-0.122,2089138
-0.005,0.056,1.001,-0.183,2089142
-0.005,0.056,1.001,-0.366,2089146
-0.005,0.056,1.001,-0.366,2089150
-0.005,0.055,0.999,-0.183,2089154
-0.005,0.055,0.999,-0.366,2089158
-0.004,0.055,1.0,-0.244,2089162
-0.004,0.055,1.0,-0.183,2089166
-0.004,0.055,1.0,-0.183,2089170
-0.003,0.054,1.001,-0.183,2089174
-0.003,0.054,1.001,-0.244,2089178
-0.004,0.054,0.999,-0.244,2089182
-0.004,0.054,0.999,-0.305,2089186
-0.004,0.054,0.999,-0.305,2089190
-0.005,0.054,0.998,-0.244,2089193
-0.005,0.054,0.998,-0.305,2089197
-0.002,0.054,1.0,-0.183,2089201
-0.002,0.054,1.0,-0.244,2089205
-0.002,0.054,1.0,-0.244,2089209
-0.003,0.054,1.001,-0.183,2089213
-0.003,0.054,1.001,-0.122,2089217
-0.003,0.053,1.0,-0.122,2089221
-0.003,0.053,1.0,-0.244,2089225
-0.003,0.053,1.0,-0.244,2089229
-0.004,0.053,0.999,-0.122,2089233
-0.004,0.053,0.999,-0.244,2089237
-0.005,0.053,0.999,-0.183,2089241
-0.005,0.053,0.999,-0.122,2089245
-0.005,0.053,0.999,-0.122,2089249
-0.003,0.054,1.0,-0.244,2089253
-0.003,0.054,1.0,-0.183,2089257
-0.004,0.054,1.001,-0.061,2089261
-0.004,0.054,1.001,-0.122,2089265
-0.004,0.054,1.001,-0.122,2089269
-0.005,0.055,0.997,-0.183,2089273
-0.005,0.055,0.997,-0.183,2089277
-0.006,0.055,0.997,-0.183,2089281
-0.006,0.055,0.997,-0.183,2089285
-0.006,0.055,0.997,-0.183,2089289
-0.005,0.056,1.0,-0.183,2089293
-0.005,0.056,1.0,-0.183,2089297
-0.005,0.055,1.001,-0.122,2089301
-0.005,0.055,1.001,-0.183,2089305
-0.005,0.055,1.001,-0.183,2089309
-0.006,0.056,1.0,-0.244,2089313
-0.006,0.056,1.0,-0.183,2089317
-0.006,0.057,0.998,-0.305,2089320
-0.006,0.057,0.998,-0.244,2089324
-0.006,0.057,0.998,-0.244,2089328
-0.005,0.056,0.999,0.0,2089332
-0.005,0.056,0.999,-0.183,2089336
-0.006,0.056,0.997,-0.244,2089340
-0.006,0.056,0.997,-0.305,2089344
-0.006,0.056,0.997,-0.305,2089348
-0.006,0.055,0.999,-0.427,2089352
-0.006,0.055,0.999,-0.244,2089356
-0.006,0.056,0.996,-0.183,2089360
-0.006,0.056,0.996,-0.183,2089364
-0.006,0.056,0.996,-0.183,2089368
-0.009,0.055,0.998,-0.183,2089372
-0.009,0.055,0.998,-0.183,2089376
-0.007,0.055,0.999,-0.183,2089380
-0.007,0.055,0.999,-0.183,2089384
-0.007,0.055,0.999,-0.183,2089388
-0.006,0.055,0.998,-0.122,2089392
-0.006,0.055,0.998,-0.244,2089396
-0.005,0.054,1.0,-0.183,2089400
-0.005,0.054,1.0,-0.244,2089404
-0.005,0.054,1.0,-0.244,2089408
-0.004,0.054,0.999,-0.305,2089412
-0.004,0.054,0.999,-0.183,2089416
-0.004,0.053,0.999,-0.244,2089420
-0.004,0.053,0.999,-0.305,2089424
-0.004,0.053,0.999,-0.305,2089428
-0.005,0.054,0.999,-0.244,2089432
-0.005,0.054,0.999,-0.244,2089436
-0.004,0.055,0.999,-0.183,2089440
-0.004,0.055,0.999,-0.244,2089444
-0.004,0.055,0.999,-0.244,2089448
-0.004,0.054,1.0,-0.122,2089451
-0.004,0.054,1.0,-0.183,2089455
-0.004,0.054,0.998,-0.183,2089459
-0.004,0.054,0.998,-0.244,2089463
-0.003,0.053,1.0,-0.183,2089467
-0.003,0.053,1.0,-0.183,2089471
-0.003,0.053,1.0,-0.244,2089475
-0.003,0.054,0.999,-0.122,2089479
-0.003,0.054,0.999,-0.183,2089483
-0.004,0.053,0.999,-0.244,2089487
-0.004,0.053,0.999,-0.244,2089491
-0.004,0.053,0.999,-0.244,2089495
-0.004,0.054,1.0,-0.183,2089499
-0.004,0.054,1.0,-0.244,2089503
-0.005,0.055,1.0,-0.122,2089507
-0.005,0.055,1.0,-0.122,2089511
-0.005,0.055,1.0,-0.122,2089515
-0.005,0.055,0.999,-0.244,2089519
-0.005,0.055,0.999,-0.183,2089523
-0.005,0.056,0.999,-0.183,2089527
-0.005,0.056,0.999,-0.183,2089531
-0.005,0.056,0.999,-0.244,2089535
-0.005,0.054,0.998,-0.183,2089539
-0.005,0.054,0.998,-0.183,2089543
-0.007,0.055,0.999,-0.183,2089547
-0.007,0.055,0.999,-0.183,2089551
-0.007,0.055,0.999,-0.183,2089555
-0.006,0.055,0.999,-0.183,2089559
-0.006,0.055,0.999,-0.183,2089563
-0.006,0.055,0.999,-0.122,2089567
-0.006,0.055,0.999,-0.122,2089571
-0.006,0.055,0.999,-0.122,2089575
-0.009,0.055,0.998,-0.122,2089579
-0.009,0.055,0.998,-0.122,2089583
-0.008,0.056,0.998,-0.244,2089586
-0.008,0.056,0.998,-0.244,2089590
-0.008,0.056,0.998,-0.244,2089594
-0.006,0.055,0.998,-0.366,2089598
-0.006,0.055,0.998,-0.183,2089602
-0.005,0.054,0.998,-0.244,2089606
-0.005,0.054,0.998,-0.244,2089610
-0.005,0.054,0.998,-0.183,2089614
-0.006,0.055,0.999,-0.244,2089618
-0.006,0.055,0.999,-0.244,2089622
-0.004,0.056,0.999,-0.183,2089626
-0.004,0.056,0.999,-0.183,2089630
-0.004,0.056,0.999,-0.061,2089634
-0.008,0.055,0.998,-0.061,2089638
-0.008,0.055,0.998,-0.183,2089642
-0.006,0.054,0.998,-0.183,2089646
-0.006,0.054,0.998,-0.183,2089650
-0.006,0.054,0.998,-0.244,2089654
-0.005,0.055,0.999,-0.183,2089658
-0.005,0.055,0.999,-0.122,2089662
-0.005,0.055,0.999,-0.122,2089666
-0.005,0.055,0.999,-0.122,2089670
-0.005,0.055,0.999,-0.122,2089674
-0.005,0.055,1.0,-0.244,2089678
-0.005,0.055,1.0,-0.305,2089682
-0.003,0.055,0.999,-0.244,2089686
-0.003,0.055,0.999,-0.244,2089690
-0.003,0.055,0.999,-0.122,2089694
-0.002,0.054,0.999,-0.244,2089698
-0.002,0.054,0.999,-0.305,2089702
-0.002,0.054,1.0,-0.183,2089706
-0.002,0.054,1.0,-0.183,2089710
-0.002,0.054,1.0,-0.244,2089714
-0.004,0.055,1.001,-0.183,2089718
-0.004,0.055,1.001,-0.244,2089722
-0.005,0.053,0.999,-0.183,2089726
-0.005,0.053,0.999,-0.183,2089729
-0.005,0.053,0.999,-0.122,2089733
-0.004,0.054,1.001,-0.061,2089737
-0.004,0.054,1.001,-0.183,2089741
-0.004,0.054,1.0,-0.244,2089745
-0.004,0.054,1.0,-0.244,2089749
-0.004,0.054,1.0,-0.244,2089753
-0.004,0.052,0.999,-0.183,2089757
-0.004,0.052,0.999,-0.061,2089761
-0.005,0.053,0.998,-0.183,2089765
-0.005,0.053,0.998,-0.183,2089769
-0.005,0.053,0.998,-0.061,2089773
-0.003,0.054,0.999,-0.244,2089777
-0.003,0.054,0.999,-0.244,2089781
-0.004,0.054,0.997,-0.183,2089785
-0.004,0.054,0.997,-0.183,2089789
-0.004,0.054,0.997,-0.305,2089793
-0.007,0.055,0.997,-0.244,2089797
-0.007,0.055,0.997,-0.244,2089801
-0.007,0.056,0.999,-0.244,2089805
-0.007,0.056,0.999,-0.244,2089809
-0.007,0.056,0.999,-0.244,2089813
-0.005,0.055,1.0,-0.305,2089817
-0.005,0.055,1.0,-0.366,2089821
-0.007,0.055,0.997,-0.183,2089825
-0.007,0.055,0.997,-0.183,2089829
-0.007,0.055,0.997,-0.183,2089833
-0.006,0.055,0.997,-0.183,2089837
-0.006,0.055,0.997,-0.183,2089841
-0.006,0.055,0.997,-0.183,2089845
-0.006,0.055,0.997,-0.183,2089849
-0.006,0.055,0.997,-0.183,2089853
-0.006,0.055,0.999,-0.183,2089857
-0.006,0.055,0.999,0.0,2089861
-0.005,0.056,0.999,-0.183,2089864
-0.005,0.056,0.999,-0.183,2089868
-0.005,0.056,0.999,-0.305,2089872
-0.005,0.056,0.999,-0.122,2089876
-0.005,0.056,0.999,-0.183,2089880
-0.004,0.056,0.999,-0.244,2089884
-0.004,0.056,0.999,-0.244,2089888
-0.004,0.056,0.999,-0.244,2089892
-0.004,0.055,0.998,-0.183,2089896
-0.004,0.055,0.998,-0.244,2089900
-0.006,0.055,0.997,-0.122,2089904
-0.006,0.055,0.997,-0.122,2089908
-0.006,0.055,0.997,-0.122,2089912
-0.006,0.055,0.999,-0.061,2089916
-0.006,0.055,0.999,-0.183,2089920
-0.004,0.055,1.0,-0.061,2089924
-0.004,0.055,1.0,-0.061,2089928
-0.004,0.055,1.0,-0.122,2089932
-0.005,0.056,1.0,-0.244,2089936
-0.005,0.056,1.0,-0.366,2089940
-0.003,0.055,1.0,-0.122,2089944
-0.003,0.055,1.0,-0.122,2089948
-0.003,0.055,1.0,-0.061,2089952
-0.004,0.054,0.998,-0.061,2089956
-0.004,0.054,0.998,-0.122,2089960
-0.005,0.056,0.999,-0.183,2089964
-0.005,0.056,0.999,-0.183,2089968
-0.005,0.056,0.999,-0.183,2089972
-0.005,0.056,0.999,-0.183,2089976
-0.005,0.056,0.999,-0.244,2089980
-0.004,0.054,1.0,-0.244,2089984
-0.004,0.054,1.0,-0.244,2089988
-0.004,0.054,1.0,-0.183,2089992
-0.003,0.055,1.001,-0.305,2089995
-0.003,0.055,1.001,-0.244,2089999
-0.005,0.054,1.0,-0.183,2090003
-0.005,0.054,1.0,-0.183,2090007
-0.005,0.054,1.0,-0.305,2090011
-0.004,0.054,0.998,-0.122,2090015
-0.004,0.054,0.998,-0.122,2090019
-0.004,0.054,1.0,-0.244,2090023
-0.004,0.054,1.0,-0.244,2090027
-0.004,0.054,1.0,-0.183,2090031
-0.004,0.053,0.999,-0.244,2090035
-0.004,0.053,0.999,-0.244,2090039
-0.005,0.056,0.998,-0.122,2090043
-0.005,0.056,0.998,-0.122,2090047
-0.005,0.056,0.998,-0.183,2090051
-0.006,0.055,0.999,-0.366,2090055
-0.006,0.055,0.999,-0.305,2090059
-0.006,0.056,0.999,-0.183,2090063
-0.006,0.056,0.999,-0.183,2090067
-0.006,0.056,0.999,-0.122,2090071
-0.006,0.055,0.998,-0.244,2090075
-0.006,0.055,0.998,-0.183,2090079
-0.006,0.055,0.999,-0.061,2090083
-0.006,0.055,0.999,-0.061,2090087
-0.006,0.055,0.999,-0.244,2090091
-0.006,0.055,0.999,-0.061,2090095
-0.006,0.055,0.999,-0.122,2090099
-0.006,0.056,0.999,-0.305,2090103
-0.006,0.056,0.999,-0.305,2090107
-0.006,0.056,0.999,-0.305,2090111
-0.007,0.056,1.0,-0.305,2090115
-0.007,0.056,1.0,-0.183,2090119
-0.006,0.056,0.998,-0.061,2090123
-0.006,0.056,0.998,-0.061,2090126
-0.006,0.056,0.998,-0.061,2090130
-0.005,0.055,0.999,-0.122,2090134
-0.005,0.055,0.999,-0.183,2090138
-0.005,0.055,0.999,-0.061,2090142
-0.005,0.055,0.999,-0.061,2090146
-0.005,0.055,0.999,-0.122,2090150
-0.005,0.055,0.998,-0.305,2090154
-0.005,0.055,0.998,-0.244,2090158
-0.004,0.055,1.0,-0.183,2090162
-0.004,0.055,1.0,-0.183,2090166
-0.004,0.055,1.0,-0.122,2090170
-0.004,0.056,0.999,-0.122,2090174
-0.004,0.056,0.999,-0.183,2090178
-0.004,0.053,0.999,-0.183,2090182
-0.004,0.053,0.999,-0.183,2090186
-0.004,0.053,0.999,-0.061,2090190
-0.004,0.053,1.0,-0.183,2090194
-0.004,0.053,1.0,-0.122,2090198
-0.005,0.054,0.999,-0.061,2090202
-0.005,0.054,0.999,-0.061,2090206
-0.005,0.054,0.999,-0.122,2090210
-0.005,0.055,1.0,-0.183,2090214
-0.005,0.055,1.0,-0.244,2090218
-0.005,0.055,1.0,-0.305,2090222
-0.005,0.055,1.0,-0.305,2090226
-0.005,0.055,1.0,-0.061,2090230
-0.002,0.054,0.998,-0.061,2090234
-0.002,0.054,0.998,-0.183,2090238
-0.003,0.055,0.999,-0.122,2090242
-0.003,0.055,0.999,-0.122,2090246
-0.003,0.055,0.999,-0.061,2090250
-0.004,0.054,0.999,-0.183,2090254
-0.004,0.054,0.999,-0.244,2090258
-0.004,0.054,1.0,-0.244,2090261
-0.004,0.054,1.0,-0.244,2090265
-0.004,0.054,1.0,-0.244,2090269
-0.005,0.055,1.0,-0.122,2090273
-0.005,0.055,1.0,-0.244,2090277
-0.003,0.054,0.999,-0.122,2090281
-0.003,0.054,0.999,-0.122,2090285
-0.003,0.054,0.999,-0.183,2090289
-0.004,0.054,0.998,-0.244,2090293
-0.004,0.054,0.998,-0.122,2090297
-0.004,0.055,0.995,-0.183,2090301
-0.004,0.055,0.995,-0.183,2090305
-0.004,0.055,0.995,-0.244,2090309
-0.005,0.054,0.999,-0.183,2090313
-0.005,0.054,0.999,-0.244,2090317
-0.006,0.055,1.0,-0.183,2090321
-0.006,0.055,1.0,-0.183,2090325
-0.006,0.055,1.0,-0.183,2090329
-0.007,0.055,0.998,-0.244,2090333
-0.007,0.055,0.998,-0.244,2090337
-0.006,0.056,0.998,-0.183,2090341
-0.006,0.056,0.998,-0.183,2090345
-0.006,0.056,0.998,-0.183,2090349
-0.006,0.056,0.998,-0.183,2090353
-0.006,0.056,0.998,-0.122,2090357
-0.005,0.056,0.999,-0.122,2090361
-0.005,0.056,0.999,-0.122,2090365
-0.005,0.056,0.999,-0.244,2090369
-0.005,0.055,0.998,-0.183,2090373
-0.005,0.055,0.998,0.0,2090377
-0.005,0.055,0.998,-0.183,2090381
-0.005,0.055,0.998,-0.183,2090385
-0.005,0.055,0.998,-0.366,2090388
-0.005,0.056,0.999,-0.122,2090392
-0.005,0.056,0.999,-0.122,2090396
-0.005,0.055,0.997,-0.061,2090400
-0.005,0.055,0.997,-0.061,2090404
-0.005,0.055,0.997,-0.122,2090408
-0.002,0.055,0.999,-0.183,2090412
-0.002,0.055,0.999,-0.244,2090416
-0.003,0.054,1.001,-0.183,2090420
-0.003,0.054,1.001,-0.183,2090424
-0.003,0.054,1.001,-0.122,2090428
-0.004,0.053,1.0,-0.244,2090432
-0.004,0.053,1.0,-0.061,2090436
-0.006,0.055,1.0,-0.183,2090440
-0.006,0.055,1.0,-0.183,2090444
-0.006,0.055,1.0,-0.244,2090448
-0.004,0.055,0.999,-0.183,2090452
-0.004,0.055,0.999,-0.244,2090456
-0.003,0.053,1.0,-0.305,2090460
-0.003,0.053,1.0,-0.305,2090464
-0.003,0.053,1.0,-0.305,2090468
-0.002,0.053,0.998,-0.244,2090472
-0.002,0.053,0.998,-0.244,2090476
-0.004,0.053,1.001,-0.183,2090480
-0.004,0.053,1.001,-0.183,2090484
-0.004,0.053,1.001,-0.122,2090488
-0.005,0.054,1.001,-0.244,2090492
-0.005,0.054,1.001,-0.122,2090496
-0.005,0.056,0.999,-0.122,2090500
-0.005,0.056,0.999,-0.122,2090504
-0.005,0.056,0.999,-0.244,2090508
-0.004,0.054,1.0,-0.122,2090512
-0.004,0.054,1.0,-0.122,2090516
-0.005,0.054,1.0,-0.061,2090520
-0.005,0.054,1.0,-0.061,2090523
-0.005,0.054,1.0,-0.244,2090527
-0.005,0.054,1.0,-0.183,2090531
-0.005,0.054,1.0,-0.305,2090535
-0.005,0.054,1.0,-0.244,2090539
-0.005,0.054,1.0,-0.244,2090543
-0.005,0.054,1.0,0.0,2090547
-0.006,0.055,1.0,-0.244,2090551
-0.006,0.055,1.0,-0.244,2090555
-0.007,0.054,0.998,-0.183,2090559
-0.007,0.054,0.998,-0.183,2090563
-0.007,0.054,0.998,-0.244,2090567
-0.006,0.056,0.999,-0.244,2090571
-0.006,0.056,0.999,-0.244,2090575
-0.005,0.055,0.999,-0.244,2090579
-0.005,0.055,0.999,-0.244,2090583
-0.005,0.055,0.999,-0.061,2090587
-0.005,0.056,0.997,-0.183,2090591
-0.005,0.056,0.997,-0.183,2090595
-0.006,0.056,0.997,-0.244,2090599
-0.006,0.056,0.997,-0.244,2090603
-0.006,0.056,0.997,-0.244,2090607
-0.007,0.055,0.999,-0.183,2090611
-0.007,0.055,0.999,-0.122,2090615
-0.008,0.054,1.0,-0.061,2090619
-0.008,0.054,1.0,-0.061,2090623
-0.008,0.054,1.0,-0.183,2090627
-0.003,0.055,0.999,-0.122,2090631
-0.003,0.055,0.999,-0.244,2090635
-0.004,0.057,0.999,-0.305,2090639
-0.004,0.057,0.999,-0.305,2090643
-0.004,0.057,0.999,-0.305,2090647
-0.006,0.057,1.0,-0.122,2090651
-0.006,0.057,1.0,-0.122,2090654
-0.005,0.055,0.999,-0.244,2090658
-0.005,0.055,0.999,-0.244,2090662
-0.005,0.055,0.999,-0.366,2090666
-0.007,0.057,0.999,-0.244,2090670
-0.007,0.057,0.999,-0.122,2090674
-0.006,0.056,1.0,-0.122,2090678
-0.006,0.056,1.0,-0.122,2090682
-0.006,0.056,1.0,-0.183,2090686
-0.003,0.055,1.0,-0.183,2090690
-0.003,0.055,1.0,-0.183,2090694
-0.005,0.054,1.0,-0.305,2090698
-0.005,0.054,1.0,-0.305,2090702
-0.005,0.054,1.0,-0.122,2090706
-0.004,0.054,0.999,-0.244,2090710
-0.004,0.054,0.999,-0.244,2090714
-0.004,0.055,1.0,-0.244,2090718
-0.004,0.055,1.0,-0.244,2090722
-0.004,0.055,1.0,-0.122,2090726
-0.004,0.055,1.0,-0.244,2090730
-0.004,0.055,1.0,-0.183,2090734
-0.004,0.054,0.999,-0.122,2090738
-0.004,0.054,0.999,-0.122,2090742
-0.004,0.054,0.999,-0.122,2090746
-0.004,0.055,0.999,-0.183,2090750
-0.004,0.055,0.999,-0.244,2090754
-0.003,0.055,0.999,-0.183,2090758
-0.003,0.055,0.999,-0.183,2090762
-0.003,0.055,0.999,-0.122,2090766
-0.004,0.054,0.999,-0.122,2090770
-0.004,0.054,0.999,-0.183,2090774
-0.005,0.054,0.998,-0.366,2090778
-0.005,0.054,0.998,-0.366,2090782
-0.005,0.054,0.998,-0.305,2090785
-0.005,0.056,0.998,-0.183,2090789
-0.005,0.056,0.998,-0.061,2090793
-0.006,0.055,0.999,-0.122,2090797
-0.006,0.055,0.999,-0.122,2090801
-0.006,0.055,0.999,-0.183,2090805
-0.006,0.054,0.997,-0.305,2090809
-0.006,0.054,0.997,-0.244,2090813
-0.005,0.054,0.999,-0.183,2090817
-0.005,0.054,0.999,-0.183,2090821
-0.005,0.054,0.999,-0.305,2090825
-0.005,0.056,1.0,-0.183,2090829
-0.005,0.056,1.0,-0.305,2090833
-0.005,0.055,0.997,-0.244,2090837
-0.005,0.055,0.997,-0.244,2090841
-0.005,0.055,0.997,-0.122,2090845
-0.004,0.057,1.0,-0.122,2090849
-0.004,0.057,1.0,-0.183,2090853
-0.007,0.057,1.0,-0.244,2090857
-0.007,0.057,1.0,-0.244,2090861
-0.007,0.057,1.0,-0.183,2090865
-0.007,0.055,0.997,-0.183,2090869
-0.007,0.055,0.997,-0.305,2090873
-0.005,0.055,0.998,-0.183,2090877
-0.005,0.055,0.998,-0.183,2090881
-0.005,0.055,0.998,-0.183,2090885
-0.007,0.055,1.0,-0.244,2090889
-0.007,0.055,1.0,-0.244,2090893
-0.008,0.056,0.999,-0.122,2090897
-0.008,0.056,0.999,-0.122,2090901
-0.008,0.056,0.999,-0.122,2090905
-0.004,0.057,0.999,-0.061,2090909
-0.004,0.057,0.999,-0.244,2090912
-0.004,0.056,1.0,-0.122,2090916
-0.004,0.056,1.0,-0.122,2090920
-0.004,0.056,1.0,-0.122,2090924
-0.005,0.054,0.999,-0.122,2090928
-0.005,0.054,0.999,-0.183,2090932
-0.005,0.055,0.998,-0.244,2090936
-0.005,0.055,0.998,-0.244,2090940
-0.005,0.055,0.998,-0.244,2090944
-0.005,0.054,1.0,-0.122,2090948
-0.005,0.054,1.0,-0.122,2090952
-0.006,0.055,1.0,-0.366,2090956
-0.006,0.055,1.0,-0.366,2090960
-0.006,0.055,1.0,-0.305,2090964
-0.004,0.055,1.0,0.0,2090968
-0.004,0.055,1.0,-0.122,2090972
-0.004,0.054,1.0,-0.122,2090976
-0.004,0.054,1.0,-0.122,2090980
-0.004,0.054,1.0,-0.183,2090984
-0.003,0.055,0.999,-0.061,2090988
-0.003,0.055,0.999,-0.122,2090992
-0.004,0.055,1.0,-0.122,2090996
-0.004,0.055,1.0,-0.122,2091000
-0.004,0.055,1.0,-0.244,2091004
-0.004,0.056,0.998,-0.244,2091008
-0.004,0.056,0.998,-0.122,2091012
-0.005,0.054,0.998,-0.122,2091016
-0.005,0.054,0.998,-0.122,2091020
-0.005,0.054,0.998,-0.183,2091024
-0.004,0.054,0.998,-0.122,2091028
-0.004,0.054,0.998,-0.061,2091032
-0.003,0.055,1.0,-0.122,2091036
-0.003,0.055,1.0,-0.122,2091040
-0.003,0.055,1.0,-0.244,2091043
-0.004,0.056,1.0,-0.244,2091047
-0.004,0.056,1.0,-0.122,2091051
-0.004,0.056,0.998,-0.305,2091055
-0.004,0.056,0.998,-0.305,2091059
-0.004,0.056,0.998,-0.305,2091063
-0.005,0.055,0.997,-0.183,2091067
-0.005,0.055,0.997,-0.366,2091071
-0.005,0.055,0.998,-0.427,2091075
-0.005,0.055,0.998,-0.427,2091079
-0.005,0.055,0.998,-0.244,2091083
-0.005,0.056,0.999,-0.366,2091087
-0.005,0.056,0.999,-0.305,2091091
-0.006,0.055,0.998,-0.183,2091095
-0.006,0.055,0.998,-0.183,2091099
-0.006,0.055,0.998,-0.244,2091103
-0.005,0.056,0.998,-0.183,2091107
-0.005,0.056,0.998,-0.244,2091111
-0.005,0.056,0.998,-0.244,2091115
-0.005,0.056,0.998,-0.244,2091119
-0.005,0.056,0.998,-0.122,2091123
-0.006,0.054,0.999,-0.183,2091127
-0.006,0.054,0.999,-0.244,2091131
-0.005,0.054,0.997,-0.244,2091135
-0.005,0.054,0.997,-0.244,2091139
-0.005,0.054,0.997,-0.122,2091143
-0.007,0.057,0.998,-0.061,2091147
-0.007,0.057,0.998,-0.305,2091151
-0.006,0.055,0.999,-0.244,2091155
-0.006,0.055,0.999,-0.244,2091159
-0.006,0.055,0.999,-0.122,2091163
-0.006,0.055,0.999,-0.122,2091167
-0.006,0.055,0.999,-0.305,2091171
-0.006,0.054,1.0,-0.305,2091175
-0.006,0.054,1.0,-0.305,2091179
-0.006,0.054,1.0,-0.183,2091183
-0.005,0.055,0.999,-0.122,2091186
-0.005,0.055,0.999,-0.122,2091190
-0.004,0.055,0.998,-0.183,2091194
-0.004,0.055,0.998,-0.183,2091198
-0.004,0.055,0.998,-0.244,2091202
-0.005,0.055,0.999,-0.305,2091206
-0.005,0.055,0.999,-0.244,2091210
-0.005,0.055,0.998,-0.183,2091214
-0.005,0.055,0.998,-0.183,2091218
-0.005,0.055,0.998,-0.244,2091222
-0.003,0.055,0.999,-0.122,2091226
-0.003,0.055,0.999,-0.122,2091230
-0.004,0.055,0.999,-0.122,2091234
-0.004,0.055,0.999,-0.122,2091238
-0.004,0.055,0.999,-0.244,2091242
-0.005,0.055,1.0,-0.122,2091246
-0.005,0.055,1.0,-0.122,2091250
-0.005,0.054,1.0,-0.122,2091254
-0.005,0.054,1.0,-0.122,2091258
-0.005,0.054,1.0,-0.183,2091262
-0.004,0.054,1.001,-0.244,2091266
-0.004,0.054,1.001,-0.183,2091270
-0.006,0.055,0.999,-0.061,2091274
-0.006,0.055,0.999,-0.061,2091278
-0.006,0.055,0.999,-0.183,2091282
-0.006,0.054,1.0,-0.183,2091286
-0.006,0.054,1.0,-0.183,2091290
-0.005,0.054,0.999,-0.183,2091294
-0.005,0.054,0.999,-0.183,2091298
-0.005,0.054,0.999,-0.183,2091302
-0.006,0.055,1.0,-0.183,2091306
-0.006,0.055,1.0,-0.366,2091309
-0.007,0.056,1.0,-0.183,2091313
-0.007,0.056,1.0,-0.183,2091317
-0.007,0.056,1.0,-0.061,2091321
-0.004,0.056,0.998,-0.305,2091325
-0.004,0.056,0.998,-0.366,2091329
-0.006,0.055,0.999,-0.244,2091333
-0.006,0.055,0.999,-0.244,2091337
-0.006,0.055,0.999,-0.183,2091341
-0.005,0.056,1.0,-0.244,2091345
-0.005,0.056,1.0,-0.122,2091349
-0.004,0.055,0.999,-0.061,2091353
-0.004,0.055,0.999,-0.061,2091357
-0.004,0.055,0.999,-0.244,2091361
-0.007,0.055,0.999,-0.244,2091365
-0.007,0.055,0.999,-0.183,2091369
-0.007,0.057,0.998,-0.183,2091373
-0.007,0.057,0.998,-0.183,2091377
-0.007,0.057,0.998,-0.061,2091381
-0.006,0.056,0.999,-0.122,2091385
-0.006,0.056,0.999,-0.244,2091389
-0.005,0.055,1.0,-0.244,2091393
-0.005,0.055,1.0,-0.244,2091397
-0.005,0.055,1.0,-0.305,2091401
-0.004,0.056,0.999,-0.305,2091405
-0.004,0.056,0.999,-0.183,2091409
-0.006,0.056,0.998,-0.122,2091413
-0.006,0.056,0.998,-0.122,2091417
-0.006,0.056,0.998,-0.183,2091421
-0.006,0.053,0.998,-0.366,2091425
-0.006,0.053,0.998,-0.366,2091429
-0.005,0.055,0.998,-0.183,2091433
-0.005,0.055,0.998,-0.183,2091437
-0.005,0.055,0.998,-0.183,2091441
-0.005,0.055,1.0,-0.122,2091444
-0.005,0.055,1.0,-0.122,2091448
-0.004,0.054,1.0,-0.183,2091452
-0.004,0.054,1.0,-0.183,2091456
-0.004,0.054,1.0,-0.244,2091460
-0.005,0.056,1.0,-0.183,2091464
-0.005,0.056,1.0,-0.244,2091468
-0.005,0.055,0.998,-0.305,2091472
-0.005,0.055,0.998,-0.305,2091476
-0.005,0.055,0.998,-0.244,2091480
-0.005,0.053,0.999,-0.305,2091484
-0.005,0.053,0.999,-0.122,2091488
-0.004,0.055,0.999,-0.244,2091492
-0.004,0.055,0.999,-0.244,2091496
-0.004,0.055,0.999,-0.244,2091500
-0.004,0.055,1.0,-0.061,2091504
-0.004,0.055,1.0,-0.122,2091508
-0.003,0.055,0.999,-0.122,2091512
-0.003,0.055,0.999,-0.122,2091516
-0.003,0.055,0.999,-0.183,2091520
-0.004,0.055,0.999,-0.244,2091524
-0.004,0.055,0.999,-0.305,2091528
-0.006,0.054,0.999,-0.183,2091532
-0.006,0.054,0.999,-0.183,2091536
-0.006,0.054,0.999,-0.061,2091540
-0.004,0.054,0.999,-0.244,2091544
-0.004,0.054,0.999,-0.244,2091548
-0.004,0.054,1.0,-0.061,2091552
-0.004,0.054,1.0,-0.061,2091556
-0.004,0.054,1.0,-0.122,2091560
-0.006,0.055,0.997,-0.183,2091564
-0.006,0.055,0.997,-0.244,2091568
-0.005,0.056,0.997,-0.061,2091572
-0.005,0.056,0.997,-0.061,2091575
-0.005,0.056,0.997,-0.061,2091579
-0.005,0.056,0.999,-0.305,2091583
-0.005,0.056,0.999,-0.183,2091587
-0.005,0.057,0.999,-0.305,2091591
-0.005,0.057,0.999,-0.244,2091595
-0.005,0.057,0.999,-0.244,2091599
-0.006,0.056,0.998,-0.183,2091603
-0.006,0.056,0.998,-0.183,2091607
-0.006,0.055,0.998,-0.122,2091611
-0.006,0.055,0.998,-0.122,2091615
-0.006,0.055,0.998,-0.122,2091619
-0.007,0.056,0.999,-0.122,2091623
-0.007,0.056,0.999,-0.183,2091627
-0.007,0.057,0.998,-0.244,2091631
-0.007,0.057,0.998,-0.183,2091635
-0.007,0.057,0.998,-0.183,2091639
-0.005,0.057,0.997,-0.244,2091643
-0.005,0.057,0.997,-0.061,2091647
-0.005,0.056,0.998,-0.122,2091651
-0.005,0.056,0.998,-0.244,2091655
-0.005,0.056,0.998,-0.244,2091659
-0.005,0.055,0.999,-0.183,2091663
-0.005,0.055,0.999,-0.122,2091667
-0.004,0.056,0.997,-0.244,2091671
-0.004,0.056,0.997,-0.366,2091675
-0.004,0.056,0.997,-0.366,2091679
-0.004,0.054,0.998,-0.122,2091683
-0.004,0.054,0.998,-0.244,2091687
-0.006,0.056,0.998,-0.244,2091691
-0.006,0.056,0.998,-0.183,2091695
-0.006,0.056,0.998,-0.183,2091699
-0.003,0.055,0.999,-0.183,2091703
-0.003,0.055,0.999,-0.183,2091707
-0.006,0.054,0.998,-0.183,2091711
-0.006,0.054,0.998,-0.183,2091715
-0.006,0.054,0.998,-0.183,2091719
-0.005,0.056,0.999,-0.244,2091723
-0.005,0.056,0.999,-0.244,2091726
-0.004,0.055,0.998,-0.122,2091730
-0.004,0.055,0.998,-0.122,2091734
-0.004,0.055,0.998,-0.122,2091738
-0.004,0.055,0.999,-0.244,2091742
-0.004,0.055,0.999,-0.122,2091746
-0.004,0.054,1.0,-0.122,2091750
-0.004,0.054,1.0,-0.061,2091754
-0.004,0.054,1.0,-0.061,2091758
-0.005,0.055,1.0,-0.122,2091762
-0.005,0.055,1.0,-0.305,2091766
-0.004,0.056,1.0,-0.183,2091770
-0.004,0.056,1.0,-0.183,2091774
-0.004,0.056,1.0,-0.183,2091778
-0.004,0.055,0.998,-0.366,2091782
-0.004,0.055,0.998,-0.244,2091786
-0.005,0.056,0.997,-0.061,2091790
-0.005,0.056,0.997,-0.183,2091794
-0.005,0.056,0.997,-0.183,2091798
-0.005,0.054,0.999,-0.244,2091802
-0.005,0.054,0.999,-0.122,2091806
-0.005,0.054,1.0,-0.244,2091810
-0.005,0.054,1.0,-0.183,2091814
-0.005,0.054,1.0,-0.183,2091818
-0.004,0.054,0.999,-0.244,2091822
-0.004,0.054,0.999,-0.366,2091826
-0.007,0.055,0.999,-0.244,2091830
-0.007,0.055,0.999,-0.244,2091834
-0.007,0.055,0.999,-0.244,2091838
-0.005,0.055,0.998,-0.183,2091842
-0.005,0.055,0.998,-0.183,2091846
-0.005,0.056,0.999,-0.305,2091850
-0.005,0.056,0.999,-0.183,2091854
-0.005,0.056,0.999,-0.183,2091858
-0.006,0.055,0.999,-0.122,2091861
-0.006,0.055,0.999,-0.244,2091865
-0.006,0.055,0.998,-0.305,2091869
-0.006,0.055,0.998,-0.183,2091873
-0.006,0.055,0.998,-0.183,2091877
-0.007,0.055,0.998,-0.183,2091881
-0.007,0.055,0.998,-0.244,2091885
-0.007,0.055,0.999,-0.244,2091889
-0.007,0.055,0.999,-0.244,2091893
-0.007,0.055,0.999,-0.244,2091897
-0.005,0.054,1.001,-0.244,2091901
-0.005,0.054,1.001,-0.305,2091905
-0.005,0.056,1.0,-0.183,2091909
-0.005,0.056,1.0,-0.183,2091913
-0.005,0.056,1.0,-0.183,2091917
-0.006,0.056,1.0,-0.122,2091921
-0.006,0.056,1.0,-0.061,2091925
-0.005,0.055,0.999,-0.183,2091929
-0.005,0.055,0.999,-0.183,2091933
-0.005,0.055,0.999,-0.183,2091937
-0.006,0.054,0.998,-0.183,2091941
-0.006,0.054,0.998,-0.122,2091945
-0.006,0.054,0.999,-0.183,2091949
-0.006,0.054,0.999,-0.122,2091953
-0.006,0.054,0.999,-0.122,2091957
-0.004,0.056,1.0,-0.183,2091961
-0.004,0.056,1.0,-0.244,2091965
-0.006,0.054,1.0,-0.305,2091969
-0.006,0.054,1.0,-0.244,2091973
-0.006,0.054,1.0,-0.244,2091977
-0.004,0.056,0.999,-0.122,2091981
-0.004,0.056,0.999,-0.061,2091985
-0.004,0.056,0.998,-0.183,2091989
-0.004,0.056,0.998,-0.183,2091992
-0.004,0.056,0.998,-0.183,2091996
-0.005,0.054,0.998,-0.244,2092000
-0.005,0.054,0.998,-0.183,2092004
-0.004,0.054,0.999,-0.305,2092008
-0.004,0.054,0.999,-0.122,2092012
-0.004,0.054,0.999,-0.122,2092016
-0.004,0.055,1.0,-0.366,2092020
-0.004,0.055,1.0,-0.122,2092024
-0.004,0.054,0.999,-0.061,2092028
-0.004,0.054,0.999,-0.305,2092032
-0.004,0.054,0.999,-0.305,2092036
-0.006,0.055,1.0,-0.244,2092040
-0.006,0.055,1.0,-0.183,2092044
-0.005,0.054,0.999,-0.183,2092048
-0.005,0.054,0.999,-0.244,2092052
-0.005,0.054,0.999,-0.244,2092056
-0.005,0.055,0.999,-0.122,2092060
-0.005,0.055,0.999,-0.183,2092064
-0.005,0.055,1.0,-0.183,2092068
-0.005,0.055,1.0,-0.244,2092072
-0.005,0.055,1.0,-0.244,2092076
-0.006,0.055,0.998,-0.244,2092080
-0.006,0.055,0.998,-0.305,2092084
-0.006,0.057,0.999,-0.122,2092088
-0.006,0.057,0.999,-0.122,2092092
-0.006,0.057,0.999,-0.122,2092096
-0.008,0.055,0.998,-0.183,2092100
-0.008,0.055,0.998,-0.183,2092104
-0.005,0.055,0.999,-0.122,2092108
-0.005,0.055,0.999,-0.122,2092112
-0.005,0.055,0.999,-0.122,2092116
-0.007,0.054,0.999,-0.244,2092120
-0.007,0.054,0.999,-0.244,2092124
-0.004,0.056,0.998,-0.244,2092128
-0.004,0.056,0.998,-0.122,2092132
-0.004,0.056,0.998,-0.122,2092136
-0.004,0.056,0.999,-0.244,2092140
-0.004,0.056,0.999,-0.183,2092143
-0.007,0.057,0.999,-0.244,2092147
-0.007,0.057,0.999,-0.305,2092151
-0.007,0.057,0.999,-0.305,2092155
-0.006,0.056,1.0,-0.183,2092159
-0.006,0.056,1.0,-0.122,2092163
-0.005,0.055,1.0,-0.122,2092167
-0.005,0.055,1.0,-0.183,2092171
-0.005,0.055,1.0,-0.183,2092175
-0.002,0.055,0.998,-0.244,2092179
-0.002,0.055,0.998,-0.305,2092183
-0.004,0.055,1.0,-0.366,2092187
-0.004,0.055,1.0,-0.305,2092191
-0.004,0.055,1.0,-0.305,2092195
-0.007,0.056,0.999,-0.244,2092199
-0.007,0.056,0.999,-0.183,2092203
-0.006,0.056,0.999,-0.122,2092207
-0.006,0.056,0.999,-0.244,2092211
-0.006,0.056,0.999,-0.244,2092215
-0.006,0.054,0.998,-0.122,2092219
-0.006,0.054,0.998,-0.122,2092223
-0.005,0.054,0.997,-0.061,2092227
-0.005,0.054,0.997,-0.183,2092231
-0.005,0.054,0.997,-0.183,2092235
-0.003,0.055,0.999,-0.183,2092239
-0.003,0.055,0.999,-0.183,2092243
-0.004,0.054,0.999,-0.183,2092247
-0.004,0.054,0.999,-0.183,2092251
-0.004,0.054,0.999,-0.183,2092255
-0.004,0.054,1.001,-0.183,2092259
-0.004,0.054,1.001,-0.122,2092263
-0.003,0.054,1.0,-0.122,2092267
-0.003,0.054,1.0,-0.061,2092271
-0.003,0.054,1.0,-0.061,2092274
-0.005,0.054,1.0,-0.122,2092278
-0.005,0.054,1.0,-0.183,2092282
-0.006,0.054,1.0,-0.122,2092286
-0.006,0.054,1.0,-0.305,2092290
-0.006,0.054,1.0,-0.305,2092294
-0.006,0.055,1.0,-0.366,2092298
-0.006,0.055,1.0,-0.244,2092302
-0.007,0.056,0.998,-0.122,2092306
-0.007,0.056,0.998,-0.183,2092310
-0.007,0.056,0.998,-0.183,2092314
-0.006,0.055,0.999,-0.305,2092318
-0.006,0.055,0.999,-0.244,2092322
-0.005,0.055,0.999,-0.183,2092326
-0.005,0.055,0.999,-0.244,2092330
-0.005,0.055,0.999,-0.244,2092334
-0.006,0.055,0.999,-0.183,2092338
-0.006,0.055,0.999,-0.183,2092342
-0.004,0.054,0.999,-0.122,2092346
-0.004,0.054,0.999,-0.183,2092350
-0.004,0.054,0.999,-0.183,2092354
-0.004,0.054,1.0,-0.244,2092358
-0.004,0.054,1.0,-0.183,2092362
-0.005,0.057,0.999,-0.244,2092366
-0.005,0.057,0.999,-0.183,2092370
-0.005,0.057,0.999,-0.183,2092374
-0.008,0.056,1.0,-0.183,2092378
-0.008,0.056,1.0,-0.366,2092382
-0.006,0.056,0.998,-0.183,2092386
-0.006,0.056,0.998,-0.061,2092390
-0.006,0.056,0.998,-0.061,2092394
-0.006,0.055,0.998,-0.183,2092398
-0.006,0.055,0.998,-0.183,2092402
-0.006,0.055,1.0,-0.183,2092406
-0.006,0.055,1.0,-0.183,2092409
-0.006,0.055,1.0,-0.183,2092413
-0.006,0.056,0.999,-0.244,2092417
-0.006,0.056,0.999,-0.244,2092421
-0.004,0.056,0.998,-0.244,2092425
-0.004,0.056,0.998,-0.183,2092429
-0.004,0.056,0.998,-0.183,2092433
-0.005,0.056,0.997,-0.244,2092437
-0.005,0.056,0.997,0.0,2092441
-0.007,0.054,1.0,-0.122,2092445
-0.007,0.054,1.0,-0.244,2092449
-0.007,0.054,1.0,-0.244,2092453
-0.006,0.055,1.0,-0.122,2092457
-0.006,0.055,1.0,-0.122,2092461
-0.004,0.056,0.998,-0.183,2092465
-0.004,0.056,0.998,-0.244,2092469
-0.004,0.056,0.998,-0.244,2092473
-0.003,0.053,1.0,-0.244,2092477
-0.003,0.053,1.0,-0.244,2092481
-0.004,0.053,1.0,-0.183,2092485
-0.004,0.053,1.0,-0.183,2092489
-0.004,0.053,1.0,-0.183,2092493
-0.006,0.054,0.999,-0.122,2092497
-0.006,0.054,0.999,-0.183,2092501
-0.006,0.055,0.998,-0.183,2092505
-0.006,0.055,0.998,-0.183,2092509
-0.006,0.055,0.998,-0.183,2092513
-0.006,0.056,0.999,-0.305,2092517
-0.006,0.056,0.999,-0.305,2092521
-0.004,0.054,0.999,-0.183,2092525
-0.004,0.054,0.999,-0.061,2092529
-0.004,0.054,0.999,-0.061,2092532
-0.005,0.054,1.0,-0.244,2092536
-0.005,0.054,1.0,-0.305,2092540
-0.005,0.055,1.0,-0.183,2092544
-0.005,0.055,1.0,-0.183,2092548
-0.005,0.055,1.0,-0.183,2092552
-0.005,0.056,0.998,0.0,2092556
-0.005,0.056,0.998,0.0,2092560
-0.004,0.055,0.997,-0.244,2092564
-0.004,0.055,0.997,-0.183,2092568
-0.004,0.055,0.997,-0.183,2092572
-0.005,0.056,1.0,-0.183,2092576
-0.005,0.056,1.0,-0.122,2092580
-0.004,0.056,1.0,0.0,2092584
-0.004,0.056,1.0,-0.183,2092588
-0.004,0.056,1.0,-0.183,2092592
-0.006,0.054,0.998,-0.183,2092596
-0.006,0.054,0.998,-0.122,2092600
-0.007,0.055,0.998,-0.183,2092604
-0.007,0.055,0.998,-0.305,2092608
-0.007,0.055,0.998,-0.305,2092612
-0.007,0.056,0.998,-0.305,2092616
-0.007,0.056,0.998,-0.305,2092620
-0.006,0.056,0.999,-0.122,2092624
-0.006,0.056,0.999,-0.061,2092628
-0.006,0.056,0.999,-0.061,2092631
-0.005,0.056,0.999,-0.244,2092635
-0.005,0.056,0.999,-0.305,2092639
-0.007,0.056,0.997,-0.122,2092643
-0.007,0.056,0.997,-0.122,2092647
-0.007,0.056,0.997,-0.122,2092651
-0.006,0.054,0.999,-0.305,2092655
-0.006,0.054,0.999,-0.122,2092659
-0.004,0.055,1.0,-0.183,2092663
-0.004,0.055,1.0,-0.122,2092667
-0.004,0.055,1.0,-0.122,2092671
-0.004,0.054,0.998,-0.183,2092675
-0.004,0.054,0.998,-0.305,2092679
-0.005,0.054,0.999,-0.244,2092683
-0.005,0.054,0.999,-0.305,2092687
-0.005,0.054,0.999,-0.305,2092691
-0.005,0.055,0.999,-0.244,2092695
-0.005,0.055,0.999,-0.183,2092699
-0.003,0.056,1.0,-0.244,2092703
-0.003,0.056,1.0,-0.244,2092707
-0.003,0.056,1.0,-0.244,2092711
-0.004,0.055,0.999,-0.183,2092715
-0.004,0.055,0.999,-0.183,2092719
-0.005,0.056,1.0,-0.183,2092723
-0.005,0.056,1.0,-0.122,2092727
-0.005,0.056,1.0,-0.122,2092731
-0.004,0.054,1.0,-0.305,2092735
-0.004,0.054,1.0,-0.366,2092739
-0.004,0.053,0.999,-0.366,2092743
-0.004,0.053,0.999,-0.183,2092747
-0.004,0.053,0.999,-0.183,2092751
-0.005,0.054,0.999,-0.183,2092755
-0.005,0.054,0.999,-0.244,2092759
-0.005,0.055,0.999,-0.183,2092763
-0.005,0.055,0.999,-0.122,2092767
-0.005,0.055,0.999,-0.122,2092771
-0.006,0.056,0.998,-0.183,2092774
-0.006,0.056,0.998,-0.305,2092778
-0.005,0.056,0.998,-0.061,2092782
-0.005,0.056,0.998,-0.183,2092786
-0.005,0.056,0.998,-0.183,2092790
-0.005,0.054,0.999,-0.244,2092794
-0.005,0.054,0.999,-0.183,2092798
-0.006,0.056,0.999,-0.183,2092802
-0.006,0.056,0.999,-0.122,2092806
-0.006,0.056,0.999,-0.122,2092810
-0.005,0.054,0.998,-0.122,2092814
-0.005,0.054,0.998,0.0,2092818
-0.004,0.055,1.0,-0.305,2092822
-0.004,0.055,1.0,-0.366,2092826
-0.004,0.055,1.0,-0.366,2092830
-0.006,0.055,0.997,-0.244,2092834
-0.006,0.055,0.997,-0.183,2092838
-0.005,0.053,0.997,-0.366,2092842
-0.005,0.053,0.997,-0.366,2092846
-0.005,0.053,0.997,-0.366,2092850
-0.005,0.054,0.998,-0.122,2092854
-0.005,0.054,0.998,-0.122,2092858
-0.006,0.056,0.999,-0.244,2092862
-0.006,0.056,0.999,-0.305,2092866
-0.006,0.056,0.999,-0.305,2092870
-0.005,0.055,0.998,-0.122,2092874
-0.005,0.055,0.998,-0.244,2092878
-0.006,0.056,0.999,-0.244,2092882
-0.006,0.056,0.999,-0.244,2092886
-0.006,0.056,0.999,-0.244,2092890
-0.007,0.055,0.998,-0.122,2092894
-0.007,0.055,0.998,-0.244,2092898
-0.007,0.055,0.998,-0.183,2092901
-0.007,0.055,0.998,-0.061,2092905
-0.007,0.055,0.998,-0.061,2092909
-0.005,0.056,0.999,-0.183,2092913
-0.005,0.056,0.999,-0.183,2092917
-0.005,0.056,0.998,-0.183,2092921
-0.005,0.056,0.998,-0.244,2092925
-0.005,0.056,0.998,-0.244,2092929
-0.004,0.054,0.999,-0.183,2092933
-0.004,0.054,0.999,-0.244,2092937
-0.007,0.053,1.0,-0.244,2092941
-0.007,0.053,1.0,-0.122,2092945
-0.007,0.053,1.0,-0.122,2092949
-0.006,0.054,0.999,-0.244,2092953
-0.006,0.054,0.999,-0.183,2092957
-0.005,0.055,0.999,-0.244,2092961
-0.005,0.055,0.999,-0.122,2092965
-0.005,0.055,0.999,-0.122,2092969
-0.004,0.055,0.999,-0.244,2092973
-0.004,0.055,0.999,-0.366,2092977
-0.004,0.055,0.999,-0.244,2092981
-0.004,0.055,0.999,-0.244,2092985
-0.004,0.055,0.999,-0.244,2092989
-0.004,0.053,1.001,-0.183,2092993
-0.004,0.053,1.001,-0.305,2092997
-0.005,0.056,1.0,-0.244,2093001
-0.005,0.056,1.0,-0.183,2093005
-0.005,0.056,1.0,-0.183,2093009
-0.004,0.056,0.998,-0.183,2093013
-0.004,0.056,0.998,-0.244,2093017
-0.006,0.054,1.0,-0.183,2093021
-0.006,0.054,1.0,-0.122,2093025
-0.006,0.054,1.0,-0.122,2093029
-0.004,0.054,1.001,-0.183,2093032
-0.004,0.054,1.001,-0.183,2093036
-0.006,0.056,0.999,-0.244,2093040
-0.006,0.056,0.999,-0.244,2093044
-0.006,0.056,0.999,-0.244,2093048
-0.006,0.055,1.0,-0.244,2093052
-0.006,0.055,1.0,-0.427,2093056
-0.006,0.056,0.999,-0.183,2093060
-0.006,0.056,0.999,-0.122,2093064
-0.006,0.056,0.999,-0.122,2093068
-0.006,0.055,0.998,-0.122,2093072
-0.006,0.055,0.998,-0.061,2093076
-0.005,0.054,0.999,-0.183,2093080
-0.005,0.054,0.999,-0.305,2093084
-0.005,0.054,0.999,-0.305,2093088
-0.005,0.056,0.999,-0.183,2093092
-0.005,0.056,0.999,-0.244,2093096
-0.006,0.055,0.998,-0.183,2093100
-0.006,0.055,0.998,-0.183,2093104
-0.006,0.055,0.998,-0.183,2093108
-0.006,0.055,0.999,-0.122,2093112
-0.006,0.055,0.999,-0.183,2093116
-0.005,0.056,0.999,-0.244,2093120
-0.005,0.056,0.999,-0.061,2093124
-0.005,0.056,0.999,-0.061,2093128
-0.005,0.055,0.996,0.0,2093132
-0.005,0.055,0.996,-0.183,2093136
-0.006,0.055,0.998,-0.183,2093140
-0.006,0.055,0.998,-0.244,2093144
-0.006,0.055,0.998,-0.244,2093147
-0.006,0.055,1.0,-0.366,2093151
-0.006,0.055,1.0,-0.244,2093155
-0.006,0.055,0.998,-0.244,2093159
-0.006,0.055,0.998,-0.244,2093163
-0.006,0.055,0.998,-0.244,2093167
-0.005,0.056,0.998,-0.183,2093171
-0.005,0.056,0.998,-0.183,2093175
-0.007,0.056,0.998,-0.122,2093179
-0.007,0.056,0.998,-0.183,2093183
-0.007,0.056,0.998,-0.183,2093187
-0.006,0.056,1.0,-0.244,2093191
-0.006,0.056,1.0,-0.244,2093195
-0.004,0.054,1.0,-0.183,2093199
-0.004,0.054,1.0,-0.122,2093203
-0.004,0.054,1.0,-0.122,2093207
-0.006,0.054,0.999,-0.244,2093211
-0.006,0.054,0.999,-0.183,2093215
-0.004,0.056,0.999,-0.122,2093219
-0.004,0.056,0.999,-0.244,2093223
-0.004,0.056,0.999,-0.244,2093227
-0.005,0.056,0.999,-0.183,2093231
-0.005,0.056,0.999,-0.244,2093235
-0.004,0.054,1.0,-0.122,2093239
-0.004,0.054,1.0,-0.061,2093243
-0.004,0.054,1.0,-0.061,2093247
-0.004,0.055,0.999,-0.244,2093251
-0.004,0.055,0.999,-0.427,2093255
-0.004,0.055,0.999,-0.244,2093259
-0.004,0.055,0.999,-0.061,2093263
-0.004,0.055,0.999,-0.061,2093267
-0.004,0.055,1.0,-0.183,2093271
-0.004,0.055,1.0,-0.122,2093275
-0.003,0.055,1.0,-0.122,2093279
-0.003,0.055,1.0,-0.305,2093282
-0.003,0.055,1.0,-0.305,2093286
-0.006,0.055,0.999,-0.122,2093290
-0.006,0.055,0.999,-0.183,2093294
-0.007,0.054,0.998,-0.244,2093298
-0.007,0.054,0.998,-0.183,2093302
-0.007,0.054,0.998,-0.183,2093306
-0.004,0.055,0.998,-0.244,2093310
-0.004,0.055,0.998,-0.183,2093314
-0.006,0.056,0.999,-0.183,2093318
-0.006,0.056,0.999,-0.122,2093322
-0.006,0.056,0.999,-0.122,2093326
-0.005,0.057,0.999,-0.244,2093330
-0.005,0.057,0.999,-0.244,2093334
-0.006,0.056,0.997,-0.244,2093338
-0.006,0.056,0.997,-0.305,2093342
-0.006,0.056,0.997,-0.305,2093346
-0.007,0.055,0.998,-0.244,2093350
-0.007,0.055,0.998,-0.183,2093354
-0.005,0.055,0.999,-0.122,2093358
-0.005,0.055,0.999,-0.244,2093362
-0.005,0.055,0.999,-0.244,2093366
-0.005,0.057,0.999,-0.244,2093370
-0.005,0.057,0.999,-0.183,2093374
-0.005,0.056,0.999,-0.183,2093378
-0.005,0.056,0.999,-0.244,2093382
-0.005,0.056,0.999,-0.244,2093386
-0.004,0.055,0.998,-0.305,2093390
-0.004,0.055,0.998,-0.305,2093394
-0.005,0.055,0.998,-0.122,2093398
-0.005,0.055,0.998,-0.183,2093402
-0.005,0.055,0.998,-0.183,2093406
-0.004,0.055,0.997,-0.183,2093410
-0.004,0.055,0.997,-0.183,2093414
-0.006,0.056,0.999,-0.244,2093418
-0.006,0.056,0.999,-0.183,2093421
-0.006,0.056,0.999,-0.183,2093425
-0.004,0.055,1.0,-0.061,2093429
-0.004,0.055,1.0,-0.122,2093433
-0.004,0.056,0.997,-0.122,2093437
-0.004,0.056,0.997,-0.183,2093441
-0.004,0.056,0.997,-0.183,2093445
-0.005,0.056,0.997,-0.122,2093449
-0.005,0.056,0.997,-0.122,2093453
-0.005,0.055,0.999,-0.305,2093457
-0.005,0.055,0.999,-0.183,2093461
-0.005,0.055,0.999,-0.183,2093465
-0.004,0.055,1.0,-0.122,2093469
-0.004,0.055,1.0,-0.122,2093473
-0.007,0.056,0.999,-0.183,2093477
-0.007,0.056,0.999,-0.183,2093481
-0.007,0.056,0.999,-0.183,2093485
-0.006,0.054,1.0,-0.183,2093489
-0.006,0.054,1.0,-0.183,2093493
-0.004,0.053,0.999,-0.183,2093497
-0.004,0.053,0.999,-0.183,2093501
-0.004,0.053,0.999,-0.183,2093505
-0.004,0.052,0.999,-0.122,2093509
-0.004,0.052,0.999,-0.305,2093513
-0.004,0.055,0.998,-0.305,2093517
-0.004,0.055,0.998,-0.244,2093521
-0.004,0.055,0.998,-0.244,2093525
-0.004,0.055,1.0,-0.244,2093529
-0.004,0.055,1.0,-0.183,2093533
-0.004,0.055,1.0,-0.183,2093537
-0.004,0.055,1.0,-0.244,2093541
-0.004,0.055,1.0,-0.244,2093545
-0.005,0.055,1.0,-0.183,2093549
-0.005,0.055,1.0,-0.122,2093552
-0.006,0.054,0.999,-0.244,2093556
-0.006,0.054,0.999,-0.244,2093560
-0.006,0.054,0.999,-0.244,2093564
-0.005,0.054,0.999,-0.122,2093568
-0.005,0.054,0.999,-0.122,2093572
-0.006,0.056,0.998,-0.244,2093576
-0.006,0.056,0.998,-0.183,2093580
-0.006,0.056,0.998,-0.183,2093584
-0.005,0.055,0.998,-0.183,2093588
-0.005,0.055,0.998,-0.244,2093592
-0.006,0.055,0.998,-0.244,2093596
-0.006,0.055,0.998,-0.305,2093600
-0.006,0.055,0.998,-0.305,2093604
-0.006,0.056,0.999,-0.244,2093608
-0.006,0.056,0.999,-0.122,2093612
-0.005,0.055,0.999,-0.122,2093616
-0.005,0.055,0.999,-0.122,2093620
-0.005,0.055,0.999,-0.122,2093624
-0.006,0.054,0.999,-0.122,2093628
-0.006,0.054,0.999,-0.183,2093632
-0.006,0.056,1.0,-0.244,2093636
-0.006,0.056,1.0,-0.244,2093640
-0.006,0.056,1.0,-0.244,2093644
-0.005,0.056,0.999,-0.244,2093648
-0.005,0.056,0.999,-0.366,2093652
-0.004,0.056,0.999,-0.244,2093656
-0.004,0.056,0.999,0.0,2093660
-0.004,0.056,0.999,0.0,2093664
-0.006,0.055,1.0,-0.183,2093667
-0.006,0.055,1.0,-0.244,2093671
-0.006,0.055,0.999,-0.183,2093675
-0.006,0.055,0.999,-0.122,2093679
-0.006,0.055,0.999,-0.122,2093683
-0.005,0.054,0.998,-0.305,2093687
-0.005,0.054,0.998,-0.366,2093691
-0.005,0.054,0.999,-0.366,2093695
-0.005,0.054,0.999,-0.183,2093699
-0.005,0.054,0.999,-0.183,2093703
-0.005,0.054,0.999,-0.183,2093707
-0.005,0.054,0.999,-0.305,2093711
-0.005,0.053,0.998,-0.244,2093715
-0.005,0.053,0.998,-0.122,2093719
-0.005,0.053,0.998,-0.122,2093723
-0.005,0.055,0.999,-0.122,2093727
-0.005,0.055,0.999,-0.244,2093731
-0.002,0.052,0.999,-0.061,2093735
-0.002,0.052,0.999,-0.244,2093739
-0.002,0.052,0.999,-0.244,2093743
-0.004,0.054,0.998,-0.122,2093747
-0.004,0.054,0.998,-0.244,2093751
-0.005,0.054,0.998,-0.305,2093755
-0.005,0.054,0.998,-0.122,2093759
-0.005,0.054,0.998,-0.122,2093763
-0.004,0.054,0.999,-0.244,2093767
-0.004,0.054,0.999,-0.122,2093771
-0.005,0.056,1.0,-0.183,2093775
-0.005,0.056,1.0,-0.183,2093779
-0.005,0.056,1.0,-0.183,2093783
-0.005,0.055,1.001,-0.244,2093787
-0.005,0.055,1.001,-0.122,2093791
-0.005,0.054,0.998,-0.183,2093795
-0.005,0.054,0.998,-0.061,2093799
-0.005,0.054,0.998,-0.061,2093802
-0.005,0.055,0.998,-0.122,2093806
-0.005,0.055,0.998,-0.122,2093810
-0.005,0.055,1.001,-0.122,2093814
-0.005,0.055,1.001,-0.122,2093818
-0.005,0.055,1.001,-0.122,2093822
-0.006,0.057,1.001,-0.183,2093826
-0.006,0.057,1.001,-0.061,2093830
-0.005,0.056,0.997,-0.122,2093834
-0.005,0.056,0.997,-0.183,2093838
-0.005,0.056,0.997,-0.183,2093842
-0.006,0.056,0.997,-0.366,2093846
-0.006,0.056,0.997,-0.122,2093850
-0.005,0.056,0.998,-0.244,2093854
-0.005,0.056,0.998,-0.305,2093858
-0.005,0.056,0.998,-0.305,2093862
-0.005,0.055,1.0,-0.305,2093866
-0.005,0.055,1.0,-0.305,2093870
-0.006,0.056,0.997,-0.122,2093874
-0.006,0.056,0.997,-0.183,2093878
-0.006,0.054,1.0,-0.305,2093882
-0.006,0.054,1.0,-0.305,2093886
-0.006,0.054,1.0,-0.122,2093890
-0.005,0.054,0.998,-0.183,2093894
-0.005,0.054,0.998,-0.122,2093898
-0.007,0.055,0.998,-0.183,2093902
-0.007,0.055,0.998,-0.183,2093906
-0.007,0.055,0.998,-0.183,2093910
-0.006,0.055,1.0,-0.061,2093914
-0.006,0.055,1.0,-0.183,2093918
-0.005,0.055,0.999,-0.122,2093922
-0.005,0.055,0.999,-0.122,2093926
-0.005,0.055,0.999,-0.183,2093930
-0.004,0.054,1.0,-0.244,2093934
-0.004,0.054,1.0,-0.305,2093938
-0.005,0.055,0.998,-0.366,2093942
-0.005,0.055,0.998,-0.366,2093945
-0.005,0.055,0.998,-0.183,2093949
-0.004,0.055,1.0,-0.244,2093953
-0.004,0.055,1.0,-0.244,2093957
-0.002,0.054,1.0,-0.183,2093961
-0.002,0.054,1.0,-0.183,2093965
-0.002,0.054,1.0,-0.061,2093969
-0.005,0.054,0.999,-0.244,2093973
-0.005,0.054,0.999,-0.183,2093977
-0.004,0.055,0.999,-0.244,2093981
-0.004,0.055,0.999,-0.244,2093985
-0.004,0.055,0.999,-0.305,2093989
-0.004,0.054,0.998,-0.244,2093993
-0.004,0.054,0.998,-0.122,2093997
-0.005,0.054,1.0,-0.244,2094001
-0.005,0.054,1.0,-0.244,2094005
-0.005,0.054,1.0,-0.183,2094009
-0.004,0.054,0.999,-0.183,2094013
-0.004,0.054,0.999,-0.244,2094017
-0.003,0.056,0.998,-0.183,2094021
-0.003,0.056,0.998,-0.183,2094025
-0.003,0.056,0.998,-0.244,2094029
-0.007,0.056,0.997,-0.183,2094033
-0.007,0.056,0.997,-0.183,2094037
-0.006,0.055,0.998,-0.183,2094041
-0.006,0.055,0.998,-0.183,2094045
-0.006,0.055,0.998,-0.183,2094049
-0.006,0.056,0.998,-0.183,2094053
-0.006,0.056,0.998,-0.183,2094057
-0.006,0.056,0.999,-0.244,2094061
-0.006,0.056,0.999,-0.244,2094065
-0.006,0.056,0.999,-0.183,2094069
-0.005,0.058,0.997,-0.183,2094073
-0.005,0.058,0.997,-0.183,2094077
-0.007,0.055,1.0,-0.244,2094081
-0.007,0.055,1.0,-0.244,2094085
-0.007,0.055,1.0,-0.305,2094089
-0.006,0.055,0.998,-0.183,2094092
-0.006,0.055,0.998,-0.122,2094096
-0.006,0.055,0.998,-0.183,2094100
-0.006,0.055,0.998,-0.183,2094104
-0.006,0.055,0.998,-0.061,2094108
-0.007,0.056,1.0,-0.366,2094112
-0.007,0.056,1.0,-0.366,2094116
-0.006,0.056,1.0,-0.244,2094120
-0.006,0.056,1.0,-0.244,2094124
-0.006,0.056,1.0,-0.122,2094128
-0.005,0.055,0.998,-0.183,2094132
-0.005,0.055,0.998,-0.244,2094136
-0.005,0.055,0.999,-0.305,2094140
-0.005,0.055,0.999,-0.305,2094144
-0.005,0.055,0.999,-0.183,2094148
-0.004,0.055,0.998,-0.244,2094152
-0.004,0.055,0.998,-0.061,2094156
-0.004,0.055,0.998,-0.061,2094160
-0.004,0.055,0.998,-0.061,2094164
-0.004,0.055,0.998,-0.183,2094168
-0.005,0.056,0.998,-0.183,2094172
-0.005,0.056,0.998,-0.305,2094176
-0.003,0.055,0.999,-0.183,2094180
-0.003,0.055,0.999,-0.183,2094184
-0.003,0.055,0.999,-0.122,2094188
-0.003,0.054,1.0,-0.244,2094192
-0.003,0.054,1.0,-0.183,2094196
-0.002,0.053,1.0,-0.305,2094200
-0.002,0.053,1.0,-0.305,2094204
-0.002,0.053,1.0,-0.244,2094208
-0.002,0.054,1.0,-0.122,2094212
-0.002,0.054,1.0,-0.183,2094216
-0.002,0.055,0.999,-0.183,2094220
-0.002,0.055,0.999,-0.183,2094223
-0.002,0.055,0.999,-0.122,2094227
-0.004,0.055,0.999,-0.244,2094231
-0.004,0.055,0.999,-0.244,2094235
-0.006,0.055,1.0,-0.183,2094239
-0.006,0.055,1.0,-0.183,2094243
-0.006,0.055,1.0,-0.244,2094247
-0.004,0.054,1.001,-0.244,2094251
-0.004,0.054,1.001,-0.183,2094255
-0.003,0.054,1.0,-0.183,2094259
-0.003,0.054,1.0,-0.183,2094263
-0.003,0.054,1.0,-0.244,2094267
-0.004,0.054,1.0,-0.183,2094271
-0.004,0.054,1.0,-0.122,2094275
-0.005,0.053,0.999,-0.244,2094279
-0.005,0.053,0.999,-0.244,2094283
-0.005,0.053,0.999,-0.366,2094287
-0.005,0.055,0.999,-0.122,2094291
-0.005,0.055,0.999,-0.183,2094295
-0.006,0.056,0.999,-0.183,2094299
-0.006,0.056,0.999,-0.183,2094303
-0.006,0.056,0.999,-0.183,2094307
-0.004,0.055,0.997,-0.305,2094311
-0.004,0.055,0.997,-0.183,2094315
-0.006,0.055,0.999,-0.122,2094319
-0.006,0.055,0.999,-0.122,2094323
-0.006,0.055,0.999,-0.244,2094327
-0.007,0.057,1.001,-0.122,2094331
-0.007,0.057,1.001,-0.122,2094335
-0.008,0.057,0.998,-0.122,2094339
-0.008,0.057,0.998,-0.122,2094343
-0.008,0.057,0.998,-0.122,2094347
-0.007,0.057,0.998,-0.061,2094351
-0.007,0.057,0.998,-0.183,2094355
-0.005,0.058,0.999,-0.183,2094359
-0.005,0.058,0.999,-0.183,2094363
-0.005,0.058,0.999,-0.061,2094366
-0.005,0.057,0.996,-0.183,2094370
-0.005,0.057,0.996,-0.244,2094374
-0.007,0.058,0.999,-0.305,2094378
-0.007,0.058,0.999,-0.305,2094382
-0.007,0.058,0.999,-0.183,2094386
-0.005,0.057,1.0,-0.183,2094390
-0.005,0.057,1.0,-0.122,2094394
-0.006,0.056,0.998,-0.244,2094398
-0.006,0.056,0.998,-0.244,2094402
-0.006,0.056,0.998,-0.183,2094406
-0.004,0.057,0.997,-0.244,2094410
-0.004,0.057,0.997,-0.244,2094414
-0.005,0.056,0.998,-0.183,2094418
-0.005,0.056,0.998,-0.183,2094422
-0.005,0.056,0.998,-0.244,2094426
-0.004,0.055,1.0,-0.305,2094430
-0.004,0.055,1.0,-0.122,2094434
-0.004,0.055,0.999,-0.183,2094438
-0.004,0.055,0.999,-0.183,2094442
-0.004,0.055,0.999,-0.183,2094446
-0.005,0.054,0.999,-0.061,2094450
-0.005,0.054,0.999,-0.183,2094454
-0.005,0.054,0.997,-0.122,2094458
-0.005,0.054,0.997,-0.122,2094462
-0.005,0.054,0.997,-0.183,2094466
-0.006,0.053,0.999,-0.183,2094470
-0.006,0.053,0.999,-0.183,2094474
-0.005,0.052,1.001,-0.244,2094478
-0.005,0.052,1.001,-0.244,2094482
-0.005,0.052,1.001,-0.244,2094486
-0.003,0.053,1.002,-0.244,2094490
-0.003,0.053,1.002,-0.183,2094493
-0.004,0.053,1.0,-0.122,2094497
-0.004,0.053,1.0,-0.122,2094501
-0.004,0.053,1.0,-0.183,2094505
-0.004,0.055,0.999,-0.183,2094509
-0.004,0.055,0.999,-0.183,2094513
-0.006,0.054,1.001,-0.244,2094517
-0.006,0.054,1.001,-0.244,2094521
-0.006,0.054,1.001,-0.122,2094525
-0.006,0.055,0.999,-0.122,2094529
-0.006,0.055,0.999,-0.183,2094533
-0.006,0.056,0.996,-0.183,2094537
-0.006,0.056,0.996,-0.183,2094541
-0.006,0.056,0.996,-0.244,2094545
-0.005,0.056,0.995,-0.183,2094549
-0.005,0.056,0.995,-0.183,2094553
-0.005,0.057,0.998,-0.366,2094557
-0.005,0.057,0.998,-0.366,2094561
-0.005,0.057,0.998,-0.244,2094565
-0.005,0.057,0.996,-0.244,2094569
-0.005,0.057,0.996,-0.427,2094573
-0.008,0.056,0.996,-0.366,2094577
-0.008,0.056,0.996,-0.366,2094581
-0.008,0.056,0.996,-0.183,2094585
-0.008,0.057,1.0,-0.244,2094589
-0.008,0.057,1.0,-0.183,2094593
-0.009,0.056,0.999,-0.183,2094597
-0.009,0.056,0.999,-0.183,2094601
-0.009,0.056,0.999,-0.183,2094605
-0.006,0.054,0.996,-0.183,2094609
-0.006,0.054,0.996,-0.183,2094613
-0.008,0.055,0.997,-0.244,2094617
-0.008,0.055,0.997,-0.244,2094621
-0.008,0.055,0.997,-0.305,2094625
-0.007,0.058,1.0,-0.488,2094629
-0.007,0.058,1.0,-0.305,2094632
-0.007,0.056,1.0,-0.183,2094636
-0.007,0.056,1.0,-0.183,2094640
-0.007,0.056,1.0,-0.061,2094644
-0.007,0.056,0.997,-0.061,2094648
-0.007,0.056,0.997,-0.122,2094652
-0.007,0.055,0.999,-0.244,2094656
-0.007,0.055,0.999,-0.244,2094660
-0.007,0.055,0.999,-0.305,2094664
-0.005,0.055,0.999,-0.244,2094668
-0.005,0.055,0.999,-0.305,2094672
-0.004,0.053,1.003,-0.244,2094676
-0.004,0.053,1.003,-0.244,2094680
-0.004,0.053,1.003,-0.183,2094684
-0.003,0.054,1.002,-0.183,2094688
-0.003,0.054,1.002,-0.244,2094692
-0.002,0.054,1.0,-0.183,2094696
-0.002,0.054,1.0,-0.183,2094700
-0.002,0.054,1.0,-0.122,2094704
-0.002,0.052,1.001,-0.122,2094708
-0.002,0.052,1.001,-0.183,2094712
-0.0,0.052,1.001,-0.122,2094716
-0.0,0.052,1.001,-0.122,2094720
-0.0,0.052,1.001,-0.244,2094724
-0.001,0.053,1.003,-0.122,2094728
-0.001,0.053,1.003,-0.244,2094732
-0.0,0.055,0.998,-0.183,2094736
-0.0,0.055,0.998,-0.183,2094740
-0.0,0.055,0.998,-0.305,2094743
-0.003,0.054,0.998,-0.305,2094747
-0.003,0.054,0.998,-0.122,2094751
-0.005,0.056,0.999,-0.122,2094755
-0.005,0.056,0.999,-0.122,2094759
-0.005,0.056,0.999,-0.183,2094763
-0.006,0.054,1.0,-0.244,2094767
-0.006,0.054,1.0,-0.305,2094771
-0.004,0.054,1.004,-0.183,2094775
-0.004,0.054,1.004,-0.183,2094779
-0.004,0.054,1.004,-0.305,2094783
-0.005,0.055,1.006,-0.183,2094787
-0.005,0.055,1.006,-0.122,2094791
-0.005,0.054,1.002,-0.183,2094795
-0.005,0.054,1.002,-0.183,2094799
-0.005,0.054,1.002,-0.183,2094803
-0.003,0.054,0.999,-0.305,2094807
-0.003,0.054,0.999,-0.183,2094811
-0.007,0.056,0.994,0.0,2094815
-0.007,0.056,0.994,0.0,2094819
-0.007,0.056,0.994,-0.183,2094823
-0.009,0.055,0.993,-0.183,2094827
-0.009,0.055,0.993,-0.244,2094831
-0.008,0.057,0.994,-0.366,2094835
-0.008,0.057,0.994,-0.366,2094839
-0.008,0.057,0.994,-0.366,2094843
-0.007,0.057,0.995,-0.366,2094847
-0.007,0.057,0.995,-0.122,2094851
-0.008,0.057,1.001,-0.244,2094855
-0.008,0.057,1.001,-0.244,2094858
-0.008,0.057,1.001,-0.183,2094862
-0.005,0.055,1.007,-0.244,2094866
-0.005,0.055,1.007,-0.183,2094870
-0.004,0.055,1.01,-0.122,2094874
-0.004,0.055,1.01,-0.122,2094878
-0.004,0.055,1.01,-0.183,2094882
-0.004,0.054,1.0,-0.122,2094886
-0.004,0.054,1.0,-0.183,2094890
-0.005,0.054,0.989,-0.122,2094894
-0.005,0.054,0.989,-0.122,2094898
-0.005,0.054,0.989,0.0,2094902
-0.007,0.056,0.989,-0.061,2094906
-0.007,0.056,0.989,-0.244,2094910
-0.008,0.056,0.996,-0.366,2094914
-0.008,0.056,0.996,-0.366,2094918
-0.008,0.056,0.996,-0.305,2094922
-0.004,0.055,0.996,-0.244,2094926
-0.004,0.055,0.996,-0.305,2094930
-0.002,0.053,1.002,-0.244,2094934
-0.002,0.053,1.002,-0.244,2094938
-0.002,0.053,1.002,-0.183,2094942
-0.001,0.052,1.01,-0.183,2094946
-0.001,0.052,1.01,-0.183,2094950
-0.001,0.053,1.007,0.0,2094954
-0.001,0.053,1.007,0.0,2094957
-0.001,0.053,1.007,-0.061,2094961
-0.005,0.056,1.0,-0.183,2094965
-0.005,0.056,1.0,-0.061,2094969
-0.005,0.057,0.994,-0.183,2094973
-0.005,0.057,0.994,-0.183,2094977
-0.005,0.057,0.994,0.0,2094981
-0.004,0.058,0.995,-0.305,2094985
-0.004,0.058,0.995,-0.244,2094989
-0.004,0.056,0.997,-0.366,2094993
-0.004,0.056,0.997,-0.366,2094997
-0.004,0.056,0.997,-0.305,2095001
-0.002,0.055,0.998,-0.427,2095005
-0.002,0.055,0.998,-0.183,2095009
-0.002,0.053,1.001,-0.305,2095013
-0.002,0.053,1.001,-0.305,2095017
-0.002,0.053,1.001,-0.366,2095021
-0.004,0.051,1.007,-0.244,2095025
-0.004,0.051,1.007,-0.183,2095029
-0.005,0.052,1.002,-0.244,2095033
-0.005,0.052,1.002,-0.244,2095037
-0.005,0.052,1.002,-0.122,2095041
-0.005,0.052,0.994,-0.122,2095045
-0.005,0.052,0.994,-0.122,2095049
-0.006,0.052,0.996,-0.122,2095053
-0.006,0.052,0.996,-0.122,2095057
-0.006,0.052,0.996,-0.122,2095061
-0.006,0.054,0.996,-0.061,2095065
-0.006,0.054,0.996,-0.122,2095069
-0.006,0.058,0.998,-0.305,2095073
-0.006,0.058,0.998,-0.305,2095077
-0.006,0.058,0.998,-0.061,2095080
-0.005,0.058,0.999,-0.122,2095084
-0.005,0.058,0.999,-0.244,2095088
-0.004,0.06,1.001,-0.305,2095092
-0.004,0.06,1.001,-0.305,2095096
-0.004,0.06,1.001,-0.183,2095100
-0.007,0.058,1.002,-0.183,2095104
-0.007,0.058,1.002,-0.305,2095108
-0.007,0.058,0.998,-0.183,2095112
-0.007,0.058,0.998,-0.183,2095116
-0.007,0.058,0.998,-0.244,2095120
-0.007,0.059,0.994,-0.183,2095124
-0.007,0.059,0.994,-0.244,2095128
-0.005,0.058,0.995,-0.183,2095132
-0.005,0.058,0.995,-0.183,2095136
-0.005,0.058,0.995,-0.183,2095140
-0.007,0.058,0.997,-0.244,2095144
-0.007,0.058,0.997,-0.122,2095148
-0.007,0.056,0.997,-0.183,2095152
-0.007,0.056,0.997,-0.183,2095156
-0.007,0.056,0.997,-0.305,2095160
-0.007,0.057,1.0,-0.244,2095164
-0.007,0.057,1.0,-0.183,2095168
-0.006,0.058,1.004,-0.244,2095172
-0.006,0.058,1.004,-0.244,2095176
-0.006,0.058,1.004,-0.244,2095180
-0.006,0.058,1.002,-0.183,2095184
-0.006,0.058,1.002,-0.122,2095188
-0.007,0.056,1.0,-0.122,2095192
-0.007,0.056,1.0,-0.122,2095196
-0.007,0.056,1.0,-0.244,2095199
-0.005,0.055,0.999,-0.183,2095203
-0.005,0.055,0.999,-0.122,2095207
-0.006,0.053,0.998,-0.305,2095211
-0.006,0.053,0.998,-0.305,2095215
-0.006,0.053,0.998,-0.305,2095219
-0.005,0.053,0.997,-0.305,2095223
-0.005,0.053,0.997,-0.305,2095227
-0.005,0.052,0.998,-0.244,2095231
-0.005,0.052,0.998,-0.244,2095235
-0.005,0.052,0.998,-0.244,2095239
