Acc_X,Acc_Y,Acc_Z,Rot_Z,Millis
-0.003,0.36,0.927,-0.183,2260781
-0.003,0.36,0.927,-0.183,2260785
-0.002,0.36,0.927,-0.183,2260789
-0.002,0.36,0.927,-0.366,2260793
-0.003,0.36,0.927,-0.183,2260797
-0.003,0.36,0.927,-0.183,2260801
-0.003,0.36,0.927,-0.061,2260805
-0.002,0.358,0.925,-0.183,2260809
-0.002,0.358,0.925,-0.244,2260813
-0.001,0.359,0.925,-0.244,2260817
-0.001,0.359,0.925,-0.244,2260821
-0.001,0.359,0.925,-0.183,2260825
-0.0,0.36,0.936,-0.244,2260829
-0.0,0.36,0.936,-0.122,2260833
-0.0,0.356,0.921,-0.122,2260836
-0.0,0.356,0.921,-0.122,2260840
-0.0,0.356,0.921,-0.122,2260844
0.0,0.361,0.917,-0.061,2260848
0.0,0.361,0.917,-0.183,2260852
-0.004,0.365,0.942,-0.183,2260856
-0.004,0.365,0.942,-0.244,2260860
-0.004,0.365,0.942,-0.244,2260864
-0.003,0.362,0.934,-0.305,2260868
-0.003,0.362,0.934,-0.244,2260872
0.001,0.36,0.91,-0.122,2260876
0.001,0.36,0.91,-0.183,2260880
0.001,0.36,0.91,-0.183,2260884
0.0,0.363,0.924,-0.244,2260888
0.0,0.363,0.924,-0.244,2260892
-0.001,0.366,0.933,-0.122,2260896
-0.001,0.366,0.933,-0.122,2260900
-0.001,0.366,0.933,-0.122,2260904
-0.002,0.359,0.924,-0.244,2260908
-0.002,0.359,0.924,-0.183,2260912
-0.0,0.36,0.924,-0.122,2260916
-0.0,0.36,0.924,-0.061,2260920
-0.0,0.36,0.924,-0.061,2260924
0.0,0.362,0.93,-0.244,2260928
0.0,0.362,0.93,-0.244,2260932
-0.0,0.36,0.924,-0.122,2260936
-0.0,0.36,0.924,-0.183,2260940
-0.0,0.36,0.924,-0.183,2260944
-0.002,0.36,0.923,-0.244,2260948
-0.002,0.36,0.923,-0.122,2260952
-0.0,0.36,0.932,-0.183,2260956
-0.0,0.36,0.932,-0.122,2260960
-0.0,0.36,0.932,-0.122,2260964
-0.001,0.36,0.927,-0.183,2260968
-0.001,0.36,0.927,-0.305,2260972
-0.001,0.358,0.92,-0.305,2260976
-0.001,0.358,0.92,-0.244,2260980
-0.001,0.358,0.92,-0.244,2260983
-0.003,0.357,0.927,-0.244,2260987
-0.003,0.357,0.927,-0.122,2260991
-0.001,0.357,0.93,-0.305,2260995
-0.001,0.357,0.93,-0.305,2260999
-0.001,0.357,0.93,-0.305,2261003
-0.001,0.357,0.926,-0.183,2261007
-0.001,0.357,0.926,-0.305,2261011
-0.002,0.357,0.926,-0.244,2261015
-0.002,0.357,0.926,-0.183,2261019
-0.002,0.357,0.926,-0.183,2261023
-0.002,0.359,0.929,-0.244,2261027
-0.002,0.359,0.929,-0.244,2261031
-0.003,0.357,0.921,-0.122,2261035
-0.003,0.357,0.921,-0.183,2261039
-0.003,0.357,0.921,-0.183,2261043
-0.003,0.363,0.93,-0.244,2261047
-0.003,0.363,0.93,-0.244,2261051
-0.003,0.361,0.933,-0.183,2261055
-0.003,0.361,0.933,-0.305,2261059
-0.003,0.361,0.933,-0.305,2261063
-0.005,0.361,0.924,-0.244,2261067
-0.005,0.361,0.924,-0.122,2261071
-0.002,0.36,0.925,-0.305,2261075
-0.002,0.36,0.925,-0.305,2261079
-0.002,0.36,0.925,-0.305,2261083
-0.001,0.362,0.922,-0.305,2261087
-0.001,0.362,0.922,-0.122,2261091
-0.0,0.362,0.93,-0.061,2261095
-0.0,0.362,0.93,-0.183,2261099
-0.0,0.362,0.93,-0.183,2261103
-0.002,0.362,0.931,-0.183,2261107
-0.002,0.362,0.931,-0.244,2261111
-0.003,0.361,0.92,-0.183,2261115
-0.003,0.361,0.92,-0.305,2261119
-0.003,0.361,0.92,-0.305,2261123
0.0,0.361,0.926,-0.183,2261126
0.0,0.361,0.926,-0.183,2261130
0.0,0.361,0.926,-0.244,2261134
0.0,0.361,0.926,-0.061,2261138
0.0,0.361,0.926,-0.061,2261142
0.0,0.359,0.927,-0.061,2261146
0.0,0.359,0.927,-0.305,2261150
-0.0,0.36,0.927,-0.305,2261154
-0.0,0.36,0.927,-0.183,2261158
-0.0,0.36,0.927,-0.183,2261162
0.001,0.362,0.93,-0.244,2261166
0.001,0.362,0.93,-0.305,2261170
0.0,0.36,0.928,-0.366,2261174
0.0,0.36,0.928,-0.061,2261178
0.0,0.36,0.928,-0.061,2261182
0.0,0.36,0.926,-0.122,2261186
0.0,0.36,0.926,-0.244,2261190
-0.001,0.36,0.927,-0.183,2261194
-0.001,0.36,0.927,-0.183,2261198
-0.001,0.36,0.927,-0.183,2261202
-0.001,0.359,0.925,-0.122,2261206
-0.001,0.359,0.925,-0.183,2261210
-0.0,0.36,0.926,-0.244,2261214
-0.0,0.36,0.926,-0.244,2261218
-0.0,0.36,0.926,-0.244,2261222
-0.002,0.36,0.93,-0.183,2261226
-0.002,0.36,0.93,-0.244,2261230
-0.001,0.361,0.927,-0.305,2261234
-0.001,0.361,0.927,-0.244,2261238
-0.001,0.361,0.927,-0.244,2261242
-0.004,0.361,0.926,-0.122,2261246
-0.004,0.361,0.926,-0.183,2261250
-0.003,0.363,0.927,-0.183,2261254
-0.003,0.363,0.927,-0.183,2261257
-0.003,0.363,0.927,-0.183,2261261
-0.001,0.361,0.932,-0.122,2261265
-0.001,0.361,0.932,-0.305,2261269
-0.002,0.361,0.925,-0.305,2261273
-0.002,0.361,0.925,-0.305,2261277
-0.002,0.361,0.925,-0.305,2261281
-0.001,0.36,0.923,-0.244,2261285
-0.001,0.36,0.923,-0.061,2261289
-0.002,0.361,0.927,-0.183,2261293
-0.002,0.361,0.927,-0.305,2261297
-0.002,0.361,0.927,-0.305,2261301
-0.001,0.361,0.925,-0.183,2261305
-0.001,0.361,0.925,-0.122,2261309
-0.002,0.361,0.926,-0.183,2261313
-0.002,0.361,0.926,-0.183,2261317
-0.002,0.361,0.926,-0.183,2261321
-0.003,0.361,0.927,-0.061,2261325
-0.003,0.361,0.927,-0.061,2261329
-0.001,0.361,0.928,-0.183,2261333
-0.001,0.361,0.928,-0.183,2261337
-0.001,0.361,0.928,-0.183,2261341
-0.001,0.361,0.927,-0.244,2261345
-0.001,0.361,0.927,-0.244,2261349
-0.003,0.36,0.927,-0.244,2261353
-0.003,0.36,0.927,-0.305,2261357
-0.003,0.36,0.927,-0.305,2261361
-0.001,0.361,0.927,-0.305,2261365
-0.001,0.361,0.927,-0.244,2261369
-0.002,0.362,0.927,-0.244,2261373
-0.002,0.362,0.927,-0.183,2261377
-0.002,0.362,0.927,-0.183,2261381
0.0,0.36,0.927,-0.244,2261385
0.0,0.36,0.927,-0.183,2261389
-0.001,0.359,0.928,-0.244,2261393
-0.001,0.359,0.928,-0.183,2261397
-0.001,0.359,0.928,-0.183,2261401
-0.001,0.357,0.925,-0.183,2261404
-0.001,0.357,0.925,-0.122,2261408
-0.001,0.358,0.927,0.0,2261412
-0.001,0.358,0.927,-0.122,2261416
-0.001,0.358,0.927,-0.122,2261420
0.0,0.36,0.927,-0.183,2261424
0.0,0.36,0.927,-0.122,2261428
-0.0,0.361,0.927,-0.244,2261432
-0.0,0.361,0.927,-0.366,2261436
-0.0,0.361,0.927,-0.366,2261440
-0.001,0.359,0.927,-0.305,2261444
-0.001,0.359,0.927,-0.183,2261448
0.0,0.359,0.924,-0.183,2261452
0.0,0.359,0.924,-0.244,2261456
0.0,0.359,0.924,-0.244,2261460
-0.002,0.363,0.928,-0.244,2261464
-0.002,0.363,0.928,-0.183,2261468
-0.003,0.363,0.93,-0.183,2261472
-0.003,0.363,0.93,-0.183,2261476
-0.003,0.363,0.93,-0.183,2261480
-0.001,0.361,0.919,-0.244,2261484
-0.001,0.361,0.919,-0.244,2261488
-0.001,0.364,0.929,-0.183,2261492
-0.001,0.364,0.929,-0.122,2261496
-0.001,0.364,0.929,-0.122,2261500
-0.0,0.362,0.937,-0.183,2261504
-0.0,0.362,0.937,-0.183,2261508
-0.002,0.361,0.916,-0.244,2261512
-0.002,0.361,0.916,-0.305,2261516
-0.002,0.361,0.916,-0.305,2261520
-0.002,0.361,0.921,-0.122,2261523
-0.002,0.361,0.921,-0.122,2261527
-0.002,0.361,0.934,-0.244,2261531
-0.002,0.361,0.934,-0.183,2261535
-0.002,0.361,0.934,-0.183,2261539
-0.001,0.359,0.924,-0.183,2261543
-0.001,0.359,0.924,-0.183,2261547
-0.002,0.358,0.921,-0.183,2261551
-0.002,0.358,0.921,-0.183,2261555
-0.002,0.358,0.921,-0.183,2261559
-0.001,0.36,0.932,-0.183,2261563
-0.001,0.36,0.932,-0.122,2261567
-0.001,0.36,0.929,-0.183,2261571
-0.001,0.36,0.929,-0.122,2261575
-0.001,0.36,0.929,-0.122,2261579
-0.001,0.359,0.923,-0.061,2261583
-0.001,0.359,0.923,-0.183,2261587
-0.001,0.358,0.93,-0.305,2261591
-0.001,0.358,0.93,-0.366,2261595
-0.001,0.358,0.93,-0.366,2261599
-0.001,0.359,0.929,-0.122,2261603
-0.001,0.359,0.929,-0.183,2261607
-0.002,0.359,0.923,-0.305,2261611
-0.002,0.359,0.923,-0.122,2261615
-0.002,0.359,0.923,-0.122,2261619
-0.002,0.36,0.926,-0.244,2261623
-0.002,0.36,0.926,-0.122,2261627
-0.003,0.36,0.928,-0.183,2261631
-0.003,0.36,0.928,-0.183,2261635
-0.003,0.36,0.928,-0.183,2261639
-0.002,0.36,0.924,-0.244,2261643
-0.002,0.36,0.924,-0.305,2261647
-0.001,0.361,0.923,-0.244,2261651
-0.001,0.361,0.923,-0.244,2261655
-0.001,0.361,0.923,-0.244,2261659
-0.003,0.363,0.927,-0.122,2261663
-0.003,0.363,0.927,-0.122,2261667
-0.003,0.361,0.93,-0.061,2261671
-0.003,0.361,0.93,-0.244,2261675
-0.003,0.361,0.93,-0.244,2261679
-0.002,0.36,0.923,-0.244,2261683
-0.002,0.36,0.923,-0.244,2261687
-0.003,0.36,0.927,-0.244,2261690
-0.003,0.36,0.927,-0.122,2261694
-0.003,0.36,0.927,-0.122,2261698
-0.003,0.36,0.929,-0.122,2261702
-0.003,0.36,0.929,-0.366,2261706
-0.001,0.361,0.925,-0.183,2261710
-0.001,0.361,0.925,-0.122,2261714
-0.001,0.361,0.925,-0.122,2261718
-0.0,0.36,0.927,-0.244,2261722
-0.0,0.36,0.927,-0.244,2261726
-0.0,0.359,0.926,-0.183,2261730
-0.0,0.359,0.926,-0.122,2261734
-0.0,0.359,0.926,-0.122,2261738
0.0,0.359,0.928,-0.183,2261742
0.0,0.359,0.928,-0.183,2261746
0.0,0.358,0.926,-0.244,2261750
0.0,0.358,0.926,-0.305,2261754
0.0,0.358,0.926,-0.305,2261758
0.001,0.36,0.927,-0.244,2261762
0.001,0.36,0.927,-0.122,2261766
-0.001,0.359,0.927,-0.244,2261770
-0.001,0.359,0.927,-0.244,2261774
-0.001,0.359,0.927,-0.244,2261778
-0.0,0.359,0.927,-0.122,2261782
-0.0,0.359,0.927,-0.305,2261786
-0.001,0.359,0.929,-0.122,2261790
-0.001,0.359,0.929,-0.305,2261794
-0.001,0.359,0.929,-0.305,2261798
-0.001,0.358,0.926,-0.305,2261802
-0.001,0.358,0.926,-0.122,2261806
0.001,0.358,0.927,-0.183,2261810
0.001,0.358,0.927,-0.305,2261814
0.001,0.358,0.927,-0.305,2261818
0.0,0.358,0.928,-0.183,2261822
0.0,0.358,0.928,-0.183,2261825
-0.001,0.359,0.927,-0.183,2261829
-0.001,0.359,0.927,-0.122,2261833
-0.002,0.361,0.929,-0.244,2261837
-0.002,0.361,0.929,-0.244,2261841
-0.002,0.361,0.929,-0.183,2261845
-0.003,0.361,0.926,-0.305,2261849
-0.003,0.361,0.926,-0.183,2261853
-0.003,0.361,0.927,-0.122,2261857
-0.003,0.361,0.927,-0.122,2261861
-0.003,0.361,0.927,-0.061,2261865
-0.004,0.36,0.927,-0.122,2261869
-0.004,0.36,0.927,-0.122,2261873
-0.002,0.361,0.926,-0.122,2261877
-0.002,0.361,0.926,-0.122,2261881
-0.002,0.361,0.926,-0.061,2261885
-0.003,0.361,0.926,-0.305,2261889
-0.003,0.361,0.926,-0.366,2261893
-0.004,0.361,0.926,-0.122,2261897
-0.004,0.361,0.926,-0.122,2261901
-0.004,0.361,0.926,-0.122,2261905
-0.002,0.361,0.926,-0.183,2261909
-0.002,0.361,0.926,-0.183,2261913
-0.001,0.36,0.926,-0.244,2261917
-0.001,0.36,0.926,-0.244,2261921
-0.001,0.36,0.926,-0.244,2261925
0.0,0.36,0.928,-0.183,2261929
0.0,0.36,0.928,-0.122,2261933
-0.001,0.358,0.928,-0.305,2261937
-0.001,0.358,0.928,-0.305,2261941
-0.001,0.358,0.928,-0.305,2261945
-0.001,0.359,0.929,-0.122,2261949
-0.001,0.359,0.929,-0.183,2261953
0.001,0.36,0.927,-0.183,2261957
0.001,0.36,0.927,-0.183,2261960
0.001,0.36,0.927,-0.183,2261964
0.0,0.361,0.927,-0.244,2261968
0.0,0.361,0.927,-0.122,2261972
0.0,0.36,0.93,-0.183,2261976
0.0,0.36,0.93,-0.183,2261980
0.0,0.36,0.93,-0.183,2261984
-0.001,0.359,0.928,-0.305,2261988
-0.001,0.359,0.928,-0.122,2261992
0.0,0.359,0.926,-0.183,2261996
0.0,0.359,0.926,-0.183,2262000
0.0,0.359,0.926,-0.305,2262004
0.0,0.36,0.926,-0.183,2262008
0.0,0.36,0.926,-0.183,2262012
0.0,0.36,0.926,-0.183,2262016
-0.001,0.361,0.926,-0.122,2262020
-0.001,0.361,0.926,-0.183,2262024
-0.001,0.36,0.928,-0.183,2262028
-0.001,0.36,0.928,-0.305,2262032
-0.001,0.36,0.928,-0.305,2262036
-0.001,0.36,0.927,-0.366,2262040
-0.001,0.36,0.927,-0.122,2262044
-0.0,0.363,0.927,-0.244,2262048
-0.0,0.363,0.927,-0.366,2262052
-0.0,0.363,0.927,-0.366,2262056
-0.001,0.361,0.927,-0.366,2262060
-0.001,0.361,0.927,-0.183,2262064
-0.003,0.362,0.926,-0.183,2262068
-0.003,0.362,0.926,-0.183,2262072
-0.002,0.361,0.927,-0.122,2262076
-0.002,0.361,0.927,-0.122,2262080
-0.002,0.361,0.927,-0.122,2262084
-0.004,0.362,0.925,-0.122,2262087
-0.004,0.362,0.925,-0.183,2262091
-0.001,0.361,0.926,-0.183,2262095
-0.001,0.361,0.926,-0.183,2262099
-0.001,0.361,0.926,-0.122,2262103
-0.002,0.361,0.925,-0.183,2262107
-0.002,0.361,0.925,-0.305,2262111
-0.004,0.36,0.926,-0.366,2262115
-0.004,0.36,0.926,-0.366,2262119
-0.004,0.36,0.926,-0.183,2262123
-0.005,0.362,0.926,-0.305,2262127
-0.005,0.362,0.926,-0.122,2262131
-0.003,0.36,0.926,-0.122,2262135
-0.003,0.36,0.926,-0.122,2262139
-0.003,0.36,0.926,-0.244,2262143
-0.001,0.359,0.926,-0.122,2262147
-0.001,0.359,0.926,-0.183,2262151
-0.0,0.36,0.926,-0.183,2262155
-0.0,0.36,0.926,-0.183,2262159
-0.0,0.36,0.926,-0.183,2262163
-0.002,0.36,0.928,-0.183,2262167
-0.002,0.36,0.928,-0.122,2262171
-0.001,0.359,0.927,-0.122,2262175
-0.001,0.359,0.927,-0.122,2262179
-0.001,0.359,0.927,-0.244,2262183
0.0,0.359,0.927,-0.183,2262187
0.0,0.359,0.927,-0.122,2262191
-0.001,0.36,0.927,-0.122,2262195
-0.001,0.36,0.927,-0.122,2262199
-0.001,0.36,0.927,-0.122,2262203
-0.002,0.36,0.927,-0.061,2262207
-0.002,0.36,0.927,-0.183,2262211
-0.001,0.361,0.926,-0.305,2262215
-0.001,0.361,0.926,-0.305,2262219
-0.001,0.361,0.926,-0.122,2262223
-0.0,0.36,0.926,-0.122,2262227
-0.0,0.36,0.926,-0.305,2262230
-0.0,0.361,0.928,-0.366,2262234
-0.0,0.361,0.928,-0.366,2262238
-0.0,0.361,0.928,-0.244,2262242
-0.002,0.363,0.926,-0.183,2262246
-0.002,0.363,0.926,-0.183,2262250
0.0,0.361,0.925,-0.122,2262254
0.0,0.361,0.925,-0.122,2262258
0.0,0.361,0.925,-0.122,2262262
-0.001,0.36,0.927,-0.061,2262266
-0.001,0.36,0.927,-0.244,2262270
-0.001,0.359,0.927,-0.244,2262274
-0.001,0.359,0.927,-0.244,2262278
-0.001,0.359,0.927,-0.183,2262282
-0.001,0.36,0.925,-0.183,2262286
-0.001,0.36,0.925,-0.183,2262290
-0.002,0.36,0.928,-0.244,2262294
-0.002,0.36,0.928,-0.244,2262298
-0.002,0.36,0.928,-0.244,2262302
-0.0,0.361,0.926,-0.183,2262306
-0.0,0.361,0.926,-0.122,2262310
-0.001,0.361,0.927,-0.061,2262314
-0.001,0.361,0.927,-0.061,2262318
-0.001,0.361,0.927,-0.305,2262322
-0.001,0.36,0.926,-0.244,2262326
-0.001,0.36,0.926,-0.183,2262330
-0.002,0.361,0.927,-0.305,2262334
-0.002,0.361,0.927,-0.305,2262338
-0.002,0.361,0.927,-0.183,2262342
-0.002,0.36,0.927,-0.183,2262346
-0.002,0.36,0.927,-0.244,2262349
-0.003,0.36,0.927,-0.183,2262353
-0.003,0.36,0.927,-0.183,2262357
-0.003,0.36,0.927,-0.305,2262361
-0.002,0.359,0.927,-0.244,2262365
-0.002,0.359,0.927,-0.061,2262369
-0.001,0.358,0.926,-0.122,2262373
-0.001,0.358,0.926,-0.122,2262377
-0.001,0.358,0.926,-0.244,2262381
-0.001,0.359,0.926,-0.244,2262385
-0.001,0.359,0.926,-0.183,2262389
-0.002,0.36,0.926,-0.244,2262393
-0.002,0.36,0.926,-0.244,2262397
-0.002,0.36,0.926,-0.183,2262401
-0.001,0.36,0.927,-0.183,2262405
-0.001,0.36,0.927,-0.183,2262409
-0.002,0.359,0.927,-0.183,2262413
-0.002,0.359,0.927,-0.183,2262417
-0.002,0.359,0.927,-0.244,2262421
-0.002,0.36,0.925,-0.183,2262425
-0.002,0.36,0.925,-0.122,2262429
-0.002,0.36,0.927,-0.122,2262433
-0.002,0.36,0.927,-0.122,2262437
-0.002,0.36,0.927,-0.122,2262441
-0.001,0.361,0.927,-0.183,2262445
-0.001,0.361,0.927,-0.244,2262449
-0.002,0.362,0.928,-0.244,2262453
-0.002,0.362,0.928,-0.244,2262457
-0.002,0.362,0.928,-0.183,2262461
-0.003,0.362,0.927,-0.244,2262465
-0.003,0.362,0.927,-0.244,2262469
-0.0,0.361,0.923,-0.122,2262473
-0.0,0.361,0.923,-0.122,2262477
-0.0,0.361,0.923,-0.122,2262481
-0.003,0.362,0.927,-0.183,2262485
-0.003,0.362,0.927,-0.122,2262489
-0.002,0.36,0.927,-0.122,2262493
-0.002,0.36,0.927,-0.122,2262497
-0.002,0.36,0.927,-0.183,2262501
-0.001,0.359,0.926,-0.244,2262505
-0.001,0.359,0.926,-0.305,2262509
-0.001,0.36,0.927,-0.122,2262513
-0.001,0.36,0.927,-0.122,2262516
-0.001,0.36,0.927,-0.183,2262520
0.0,0.36,0.925,-0.183,2262524
0.0,0.36,0.925,-0.122,2262528
0.001,0.359,0.926,-0.061,2262532
0.001,0.359,0.926,-0.061,2262536
0.001,0.359,0.926,-0.244,2262540
0.0,0.359,0.928,-0.122,2262544
0.0,0.359,0.928,-0.183,2262548
-0.001,0.359,0.926,-0.366,2262552
-0.001,0.359,0.926,-0.366,2262556
-0.001,0.359,0.926,-0.183,2262560
-0.001,0.36,0.928,-0.244,2262564
-0.001,0.36,0.928,-0.183,2262568
-0.002,0.36,0.927,-0.183,2262572
-0.002,0.36,0.927,-0.183,2262576
-0.002,0.36,0.927,-0.183,2262580
-0.002,0.359,0.925,-0.183,2262584
-0.002,0.359,0.925,-0.244,2262588
-0.003,0.359,0.926,-0.244,2262592
-0.003,0.359,0.926,-0.244,2262596
-0.003,0.359,0.926,-0.305,2262600
-0.003,0.359,0.926,-0.244,2262604
-0.003,0.359,0.926,-0.061,2262608
-0.003,0.361,0.927,-0.183,2262612
-0.003,0.361,0.927,-0.183,2262616
-0.003,0.361,0.927,-0.183,2262620
-0.003,0.359,0.927,-0.061,2262624
-0.003,0.359,0.927,-0.183,2262628
-0.001,0.361,0.927,-0.305,2262632
-0.001,0.361,0.927,-0.305,2262635
-0.001,0.361,0.927,-0.366,2262639
-0.003,0.364,0.927,-0.244,2262643
-0.003,0.364,0.927,-0.305,2262647
-0.003,0.361,0.926,-0.305,2262651
-0.003,0.361,0.926,-0.305,2262655
-0.003,0.361,0.926,-0.183,2262659
-0.002,0.359,0.924,-0.244,2262663
-0.002,0.359,0.924,-0.122,2262667
-0.002,0.361,0.926,-0.183,2262671
-0.002,0.361,0.926,-0.183,2262675
-0.002,0.361,0.926,-0.244,2262679
-0.002,0.362,0.926,-0.183,2262683
-0.002,0.362,0.926,-0.305,2262687
-0.002,0.361,0.926,-0.244,2262691
-0.002,0.361,0.926,-0.244,2262695
-0.002,0.361,0.926,-0.244,2262699
-0.0,0.36,0.928,-0.122,2262703
-0.0,0.36,0.928,-0.244,2262707
-0.0,0.36,0.928,-0.244,2262711
-0.0,0.36,0.928,-0.244,2262715
-0.0,0.36,0.928,-0.183,2262719
-0.0,0.36,0.927,0.0,2262723
-0.0,0.36,0.927,-0.061,2262727
-0.001,0.361,0.927,-0.122,2262731
-0.001,0.361,0.927,-0.122,2262735
-0.001,0.361,0.927,-0.061,2262739
-0.001,0.36,0.927,-0.122,2262743
-0.001,0.36,0.927,-0.366,2262747
-0.001,0.361,0.927,-0.122,2262751
-0.001,0.361,0.927,-0.122,2262755
-0.001,0.361,0.927,-0.122,2262759
0.001,0.36,0.928,-0.305,2262763
0.001,0.36,0.928,-0.305,2262767
-0.0,0.359,0.927,-0.061,2262771
-0.0,0.359,0.927,-0.061,2262774
-0.0,0.359,0.927,-0.183,2262778
-0.001,0.36,0.927,-0.183,2262782
-0.001,0.36,0.927,-0.244,2262786
-0.003,0.36,0.925,-0.244,2262790
-0.003,0.36,0.925,-0.244,2262794
-0.003,0.36,0.925,-0.244,2262798
-0.002,0.359,0.927,-0.122,2262802
-0.002,0.359,0.927,-0.122,2262806
-0.002,0.361,0.928,-0.244,2262810
-0.002,0.361,0.928,-0.244,2262814
-0.002,0.361,0.928,-0.244,2262818
-0.002,0.362,0.926,-0.061,2262822
-0.002,0.362,0.926,-0.061,2262826
-0.001,0.361,0.926,-0.183,2262830
-0.001,0.361,0.926,-0.183,2262834
-0.001,0.361,0.926,-0.244,2262838
-0.002,0.36,0.927,-0.122,2262842
-0.002,0.36,0.927,-0.244,2262846
-0.002,0.361,0.926,-0.183,2262850
-0.002,0.361,0.926,-0.183,2262854
-0.002,0.361,0.926,-0.244,2262858
-0.002,0.362,0.927,-0.183,2262862
-0.002,0.362,0.927,-0.183,2262866
-0.0,0.36,0.927,-0.305,2262870
-0.0,0.36,0.927,-0.305,2262874
-0.0,0.36,0.927,-0.244,2262878
-0.002,0.36,0.927,-0.183,2262882
-0.002,0.36,0.927,-0.122,2262886
-0.002,0.36,0.925,-0.305,2262890
-0.002,0.36,0.925,-0.305,2262894
-0.002,0.36,0.925,-0.183,2262898
0.0,0.359,0.926,-0.244,2262902
0.0,0.359,0.926,-0.183,2262906
-0.001,0.361,0.927,-0.061,2262910
-0.001,0.361,0.927,-0.061,2262914
-0.001,0.361,0.927,-0.183,2262918
-0.001,0.36,0.926,-0.305,2262921
-0.001,0.36,0.926,-0.244,2262925
-0.0,0.361,0.926,-0.183,2262929
-0.0,0.361,0.926,-0.183,2262933
-0.0,0.361,0.926,-0.183,2262937
-0.001,0.36,0.928,-0.183,2262941
-0.001,0.36,0.928,-0.244,2262945
-0.001,0.358,0.928,-0.183,2262949
-0.001,0.358,0.928,-0.183,2262953
-0.001,0.358,0.928,-0.244,2262957
0.002,0.36,0.927,-0.122,2262961
0.002,0.36,0.927,-0.061,2262965
-0.001,0.361,0.929,-0.244,2262969
-0.001,0.361,0.929,-0.244,2262973
-0.001,0.361,0.929,-0.183,2262977
0.0,0.36,0.927,-0.244,2262981
0.0,0.36,0.927,-0.183,2262985
0.0,0.36,0.925,0.0,2262989
0.0,0.36,0.925,0.0,2262993
0.0,0.36,0.925,-0.061,2262997
-0.0,0.36,0.928,-0.183,2263001
-0.0,0.36,0.928,-0.122,2263005
-0.001,0.36,0.928,-0.122,2263009
-0.001,0.36,0.928,-0.122,2263013
-0.001,0.36,0.928,-0.183,2263017
-0.0,0.362,0.926,-0.244,2263021
-0.0,0.362,0.926,-0.244,2263025
-0.002,0.361,0.927,-0.244,2263029
-0.002,0.361,0.927,-0.244,2263033
-0.002,0.361,0.927,-0.183,2263036
-0.001,0.361,0.926,-0.061,2263040
-0.001,0.361,0.926,-0.183,2263044
-0.001,0.361,0.926,-0.244,2263048
-0.001,0.361,0.926,-0.244,2263052
-0.001,0.361,0.926,-0.183,2263056
-0.001,0.361,0.925,-0.122,2263060
-0.001,0.361,0.925,-0.183,2263064
-0.002,0.36,0.927,-0.122,2263068
-0.002,0.36,0.927,-0.122,2263072
-0.002,0.36,0.927,-0.244,2263076
-0.002,0.359,0.927,-0.061,2263080
-0.002,0.359,0.927,-0.183,2263084
-0.001,0.36,0.927,-0.305,2263088
-0.001,0.36,0.927,-0.305,2263092
-0.001,0.36,0.927,-0.244,2263096
-0.003,0.359,0.927,-0.183,2263100
-0.003,0.359,0.927,-0.244,2263104
-0.002,0.359,0.925,-0.244,2263108
-0.002,0.359,0.925,-0.244,2263112
-0.002,0.359,0.925,-0.183,2263116
-0.001,0.358,0.927,-0.183,2263120
-0.001,0.358,0.927,-0.183,2263124
-0.001,0.36,0.928,-0.122,2263128
-0.001,0.36,0.928,-0.122,2263132
-0.001,0.36,0.928,-0.122,2263136
-0.002,0.36,0.927,-0.183,2263140
-0.002,0.36,0.927,-0.244,2263144
-0.002,0.36,0.926,-0.244,2263148
-0.002,0.36,0.926,-0.244,2263152
-0.002,0.36,0.926,-0.305,2263156
-0.001,0.359,0.926,-0.305,2263160
-0.001,0.359,0.926,-0.183,2263164
-0.001,0.36,0.926,-0.183,2263168
-0.001,0.36,0.926,-0.183,2263172
-0.001,0.36,0.926,-0.366,2263175
-0.002,0.36,0.926,-0.122,2263179
-0.002,0.36,0.926,0.0,2263183
-0.0,0.359,0.928,-0.244,2263187
-0.0,0.359,0.928,-0.244,2263191
-0.0,0.359,0.928,-0.183,2263195
-0.002,0.359,0.926,-0.122,2263199
-0.002,0.359,0.926,-0.183,2263203
-0.003,0.361,0.926,-0.244,2263207
-0.003,0.361,0.926,-0.244,2263211
-0.003,0.361,0.926,-0.244,2263215
-0.0,0.361,0.927,-0.183,2263219
-0.0,0.361,0.927,-0.183,2263223
-0.001,0.359,0.926,-0.244,2263227
-0.001,0.359,0.926,-0.244,2263231
-0.001,0.359,0.926,-0.244,2263235
-0.001,0.359,0.927,-0.244,2263239
-0.001,0.359,0.927,-0.183,2263243
-0.0,0.361,0.927,-0.305,2263247
-0.0,0.361,0.927,-0.305,2263251
-0.0,0.361,0.927,-0.244,2263255
-0.002,0.36,0.928,-0.244,2263259
-0.002,0.36,0.928,-0.122,2263263
-0.002,0.361,0.928,-0.183,2263267
-0.002,0.361,0.928,-0.183,2263271
-0.002,0.361,0.928,-0.183,2263275
-0.0,0.361,0.925,-0.244,2263279
-0.0,0.361,0.925,-0.244,2263283
-0.001,0.362,0.927,-0.305,2263287
-0.001,0.362,0.927,-0.305,2263291
-0.001,0.362,0.927,-0.061,2263295
-0.002,0.361,0.927,-0.061,2263299
-0.002,0.361,0.927,-0.244,2263303
0.0,0.359,0.927,-0.305,2263307
0.0,0.359,0.927,-0.305,2263310
0.0,0.359,0.927,-0.183,2263314
-0.001,0.36,0.928,-0.244,2263318
-0.001,0.36,0.928,-0.244,2263322
-0.001,0.359,0.927,-0.122,2263326
-0.001,0.359,0.927,-0.122,2263330
-0.001,0.359,0.927,-0.183,2263334
-0.001,0.358,0.927,-0.244,2263338
-0.001,0.358,0.927,-0.183,2263342
0.0,0.359,0.929,-0.061,2263346
0.0,0.359,0.929,-0.061,2263350
0.0,0.359,0.929,-0.183,2263354
-0.001,0.36,0.927,-0.122,2263358
-0.001,0.36,0.927,-0.061,2263362
-0.002,0.359,0.926,-0.122,2263366
-0.002,0.359,0.926,-0.122,2263370
-0.002,0.359,0.926,-0.061,2263374
-0.002,0.36,0.926,-0.244,2263378
-0.002,0.36,0.926,-0.183,2263382
-0.0,0.36,0.926,-0.122,2263386
-0.0,0.36,0.926,-0.122,2263390
-0.0,0.36,0.926,-0.122,2263394
-0.003,0.361,0.926,-0.122,2263398
-0.003,0.361,0.926,-0.061,2263402
-0.001,0.361,0.926,-0.061,2263406
-0.001,0.361,0.926,-0.061,2263410
-0.001,0.361,0.926,-0.183,2263414
-0.002,0.361,0.926,-0.244,2263418
-0.002,0.361,0.926,-0.061,2263422
-0.001,0.36,0.928,-0.183,2263426
-0.001,0.36,0.928,-0.183,2263429
-0.001,0.36,0.928,-0.183,2263433
-0.002,0.362,0.927,-0.244,2263437
-0.002,0.362,0.927,-0.244,2263441
-0.002,0.361,0.927,-0.122,2263445
-0.002,0.361,0.927,-0.122,2263449
-0.002,0.361,0.927,-0.244,2263453
-0.002,0.361,0.926,-0.244,2263457
-0.002,0.361,0.926,-0.244,2263461
-0.002,0.361,0.927,-0.305,2263465
-0.002,0.361,0.927,-0.305,2263469
-0.002,0.361,0.927,-0.305,2263473
-0.001,0.361,0.927,-0.183,2263477
-0.001,0.361,0.927,-0.122,2263481
-0.003,0.36,0.926,-0.122,2263485
-0.003,0.36,0.926,-0.122,2263489
-0.003,0.36,0.926,-0.183,2263493
-0.0,0.359,0.926,-0.244,2263497
-0.0,0.359,0.926,-0.061,2263501
-0.001,0.359,0.928,-0.244,2263505
-0.001,0.359,0.928,-0.244,2263509
-0.001,0.359,0.928,-0.183,2263513
-0.0,0.358,0.927,-0.183,2263517
-0.0,0.358,0.927,-0.122,2263521
-0.002,0.36,0.926,-0.244,2263525
-0.002,0.36,0.926,-0.183,2263529
-0.002,0.36,0.926,-0.183,2263533
-0.001,0.359,0.927,-0.183,2263537
-0.001,0.359,0.927,-0.183,2263541
0.0,0.361,0.928,-0.244,2263545
0.0,0.361,0.928,-0.244,2263549
0.0,0.361,0.928,-0.244,2263553
-0.0,0.361,0.928,-0.183,2263557
-0.0,0.361,0.928,-0.244,2263561
-0.001,0.359,0.927,-0.122,2263565
-0.001,0.359,0.927,-0.244,2263569
-0.001,0.359,0.927,-0.244,2263573
-0.001,0.36,0.926,-0.244,2263576
-0.001,0.36,0.926,-0.183,2263580
-0.002,0.363,0.927,0.061,2263584
-0.002,0.363,0.927,0.061,2263588
-0.002,0.363,0.927,0.061,2263592
-0.002,0.36,0.925,-0.122,2263596
-0.002,0.36,0.925,-0.122,2263600
-0.002,0.362,0.927,-0.122,2263604
-0.002,0.362,0.927,-0.183,2263608
-0.002,0.362,0.927,-0.183,2263612
-0.002,0.36,0.928,-0.183,2263616
-0.002,0.36,0.928,-0.305,2263620
-0.001,0.359,0.926,-0.183,2263624
-0.001,0.359,0.926,-0.183,2263628
-0.001,0.359,0.926,-0.183,2263632
-0.002,0.36,0.926,-0.244,2263636
-0.002,0.36,0.926,-0.183,2263640
-0.001,0.361,0.927,-0.183,2263644
-0.001,0.361,0.927,-0.183,2263648
-0.001,0.361,0.927,-0.183,2263652
-0.001,0.359,0.926,-0.122,2263656
-0.001,0.359,0.926,-0.183,2263660
-0.0,0.36,0.927,-0.244,2263664
-0.0,0.36,0.927,-0.183,2263668
-0.0,0.36,0.927,-0.183,2263672
-0.001,0.359,0.927,-0.122,2263676
-0.001,0.359,0.927,-0.244,2263680
-0.002,0.359,0.926,-0.122,2263684
-0.002,0.359,0.926,-0.122,2263688
-0.002,0.359,0.926,-0.122,2263692
-0.001,0.359,0.928,-0.244,2263696
-0.001,0.359,0.928,-0.427,2263700
-0.001,0.359,0.927,-0.122,2263704
-0.001,0.359,0.927,-0.061,2263708
-0.001,0.359,0.927,-0.061,2263712
0.0,0.358,0.927,-0.183,2263715
0.0,0.358,0.927,-0.244,2263719
-0.002,0.36,0.928,-0.122,2263723
-0.002,0.36,0.928,-0.061,2263727
-0.002,0.36,0.928,-0.061,2263731
-0.002,0.361,0.928,-0.122,2263735
-0.002,0.361,0.928,-0.183,2263739
-0.002,0.359,0.926,-0.122,2263743
-0.002,0.359,0.926,-0.183,2263747
-0.002,0.359,0.926,-0.183,2263751
-0.001,0.359,0.926,-0.244,2263755
-0.001,0.359,0.926,-0.244,2263759
0.0,0.359,0.928,-0.244,2263763
0.0,0.359,0.928,-0.183,2263767
0.0,0.359,0.928,-0.183,2263771
-0.001,0.359,0.928,-0.183,2263775
-0.001,0.359,0.928,-0.122,2263779
-0.002,0.36,0.926,-0.366,2263783
-0.002,0.36,0.926,-0.244,2263787
-0.002,0.36,0.926,-0.244,2263791
-0.002,0.361,0.925,-0.122,2263795
-0.002,0.361,0.925,-0.244,2263799
0.0,0.361,0.927,-0.183,2263803
0.0,0.361,0.927,-0.122,2263807
0.0,0.361,0.927,-0.122,2263811
-0.002,0.361,0.925,-0.183,2263815
-0.002,0.361,0.925,-0.183,2263819
-0.002,0.362,0.926,-0.183,2263823
-0.002,0.362,0.926,-0.183,2263827
-0.002,0.362,0.926,-0.183,2263831
-0.001,0.361,0.928,-0.305,2263835
-0.001,0.361,0.928,-0.183,2263839
-0.001,0.36,0.928,-0.183,2263843
-0.001,0.36,0.928,-0.366,2263847
-0.001,0.36,0.928,-0.366,2263851
-0.001,0.36,0.927,-0.305,2263855
-0.001,0.36,0.927,-0.183,2263859
0.0,0.36,0.925,-0.305,2263862
0.0,0.36,0.925,-0.244,2263866
0.0,0.36,0.925,-0.244,2263870
-0.003,0.361,0.927,-0.183,2263874
-0.003,0.361,0.927,-0.183,2263878
-0.003,0.359,0.927,-0.061,2263882
-0.003,0.359,0.927,-0.305,2263886
-0.003,0.359,0.927,-0.305,2263890
-0.0,0.359,0.926,-0.244,2263894
-0.0,0.359,0.926,-0.183,2263898
-0.002,0.359,0.926,-0.305,2263902
-0.002,0.359,0.926,-0.305,2263906
-0.002,0.359,0.926,-0.305,2263910
-0.001,0.359,0.926,-0.244,2263914
-0.001,0.359,0.926,-0.183,2263918
-0.001,0.359,0.928,-0.244,2263922
-0.001,0.359,0.928,-0.244,2263926
-0.001,0.359,0.928,-0.244,2263930
-0.002,0.361,0.927,-0.305,2263934
-0.002,0.361,0.927,-0.061,2263938
-0.001,0.361,0.927,-0.183,2263942
-0.001,0.361,0.927,-0.305,2263946
-0.001,0.361,0.927,-0.305,2263950
-0.0,0.359,0.926,-0.244,2263954
-0.0,0.359,0.926,-0.366,2263958
-0.0,0.359,0.926,-0.366,2263962
-0.0,0.359,0.926,-0.122,2263966
-0.0,0.359,0.926,-0.122,2263970
-0.003,0.361,0.927,-0.183,2263974
-0.003,0.361,0.927,-0.244,2263978
0.0,0.359,0.927,-0.305,2263982
0.0,0.359,0.927,-0.183,2263986
0.0,0.359,0.927,-0.183,2263990
0.0,0.36,0.927,-0.122,2263993
0.0,0.36,0.927,-0.122,2263997
-0.0,0.359,0.926,-0.122,2264001
-0.0,0.359,0.926,-0.183,2264005
-0.0,0.359,0.926,-0.183,2264009
0.001,0.36,0.927,-0.183,2264013
0.001,0.36,0.927,-0.305,2264017
-0.001,0.361,0.926,-0.183,2264021
-0.001,0.361,0.926,-0.244,2264025
-0.001,0.361,0.926,-0.244,2264029
-0.001,0.36,0.928,-0.244,2264033
-0.001,0.36,0.928,-0.244,2264037
0.0,0.359,0.927,-0.305,2264041
0.0,0.359,0.927,-0.244,2264045
0.0,0.359,0.927,-0.244,2264049
-0.0,0.359,0.927,-0.183,2264053
-0.0,0.359,0.927,-0.244,2264057
-0.002,0.359,0.927,-0.122,2264061
-0.002,0.359,0.927,-0.244,2264065
-0.002,0.359,0.927,-0.244,2264069
-0.001,0.359,0.927,-0.122,2264073
-0.001,0.359,0.927,-0.244,2264077
-0.001,0.36,0.926,-0.183,2264081
-0.001,0.36,0.926,-0.122,2264085
-0.001,0.36,0.926,-0.122,2264089
-0.002,0.36,0.929,-0.122,2264093
-0.002,0.36,0.929,-0.122,2264097
-0.001,0.36,0.929,-0.244,2264101
-0.001,0.36,0.929,-0.122,2264105
-0.001,0.36,0.929,-0.122,2264108
-0.001,0.36,0.926,-0.122,2264112
-0.001,0.36,0.926,-0.305,2264116
-0.002,0.358,0.926,-0.061,2264120
-0.002,0.358,0.926,-0.183,2264124
-0.002,0.358,0.926,-0.183,2264128
-0.001,0.36,0.927,-0.305,2264132
-0.001,0.36,0.927,-0.122,2264136
-0.001,0.359,0.926,-0.122,2264140
-0.001,0.359,0.926,-0.122,2264144
-0.001,0.359,0.926,-0.122,2264148
-0.002,0.36,0.927,-0.183,2264152
-0.002,0.36,0.927,-0.183,2264156
-0.004,0.359,0.928,-0.183,2264160
-0.004,0.359,0.928,-0.183,2264164
-0.004,0.359,0.928,-0.183,2264168
-0.003,0.362,0.927,-0.244,2264172
-0.003,0.362,0.927,-0.183,2264176
-0.001,0.362,0.926,-0.183,2264180
-0.001,0.362,0.926,-0.244,2264184
-0.001,0.362,0.926,-0.244,2264188
-0.001,0.362,0.927,-0.305,2264192
-0.001,0.362,0.927,-0.244,2264196
-0.0,0.361,0.927,-0.183,2264200
-0.0,0.361,0.927,-0.305,2264204
-0.0,0.361,0.927,-0.305,2264208
-0.002,0.361,0.926,-0.122,2264212
-0.002,0.361,0.926,-0.183,2264216
-0.002,0.36,0.927,-0.305,2264220
-0.002,0.36,0.927,-0.183,2264224
-0.002,0.36,0.927,-0.183,2264228
-0.0,0.36,0.926,-0.366,2264232
-0.0,0.36,0.926,-0.366,2264236
-0.002,0.359,0.926,-0.183,2264240
-0.002,0.359,0.926,-0.122,2264244
-0.002,0.359,0.926,-0.122,2264248
-0.0,0.359,0.928,-0.122,2264251
-0.0,0.359,0.928,-0.183,2264255
-0.0,0.359,0.926,-0.183,2264259
-0.0,0.359,0.926,-0.244,2264263
-0.0,0.359,0.926,-0.244,2264267
-0.002,0.359,0.928,-0.183,2264271
-0.002,0.359,0.928,-0.122,2264275
0.001,0.36,0.927,-0.244,2264279
0.001,0.36,0.927,-0.183,2264283
0.001,0.36,0.927,-0.183,2264287
-0.0,0.36,0.927,-0.061,2264291
-0.0,0.36,0.927,-0.122,2264295
-0.003,0.36,0.928,-0.305,2264299
-0.003,0.36,0.928,-0.366,2264303
-0.003,0.36,0.928,-0.366,2264307
-0.002,0.36,0.928,-0.366,2264311
-0.002,0.36,0.928,-0.366,2264315
0.0,0.36,0.926,-0.061,2264319
0.0,0.36,0.926,-0.183,2264323
0.0,0.36,0.926,-0.183,2264327
0.0,0.359,0.927,-0.122,2264331
0.0,0.359,0.927,-0.122,2264335
-0.001,0.36,0.927,-0.244,2264339
-0.001,0.36,0.927,-0.244,2264343
-0.001,0.36,0.927,-0.244,2264347
-0.001,0.36,0.928,-0.244,2264351
-0.001,0.36,0.928,-0.244,2264355
-0.001,0.361,0.928,-0.183,2264359
-0.001,0.361,0.928,-0.122,2264363
-0.001,0.361,0.928,-0.122,2264367
-0.002,0.36,0.926,-0.183,2264371
-0.002,0.36,0.926,-0.122,2264375
-0.001,0.361,0.925,-0.183,2264379
-0.001,0.361,0.925,-0.305,2264383
-0.001,0.361,0.925,-0.305,2264387
-0.001,0.36,0.928,-0.183,2264390
-0.001,0.36,0.928,-0.244,2264394
-0.001,0.359,0.926,-0.244,2264398
-0.001,0.359,0.926,-0.183,2264402
-0.001,0.359,0.926,-0.183,2264406
-0.002,0.361,0.928,-0.122,2264410
-0.002,0.361,0.928,-0.244,2264414
-0.001,0.361,0.927,-0.244,2264418
-0.001,0.361,0.927,-0.122,2264422
-0.001,0.361,0.927,-0.122,2264426
-0.001,0.36,0.926,-0.244,2264430
-0.001,0.36,0.926,-0.183,2264434
-0.001,0.359,0.928,-0.244,2264438
-0.001,0.359,0.928,-0.183,2264442
-0.001,0.359,0.928,-0.183,2264446
-0.001,0.359,0.928,-0.122,2264450
-0.001,0.359,0.928,-0.305,2264454
-0.002,0.359,0.927,-0.183,2264458
-0.002,0.359,0.927,-0.183,2264462
-0.002,0.359,0.927,-0.183,2264466
-0.0,0.36,0.926,-0.061,2264470
-0.0,0.36,0.926,-0.183,2264474
-0.0,0.36,0.927,-0.183,2264478
-0.0,0.36,0.927,-0.183,2264482
-0.0,0.36,0.927,-0.183,2264486
-0.002,0.359,0.927,-0.244,2264490
-0.002,0.359,0.927,-0.427,2264494
-0.002,0.359,0.927,-0.244,2264498
-0.002,0.359,0.927,-0.244,2264502
-0.002,0.359,0.927,-0.244,2264506
-0.002,0.36,0.929,-0.244,2264510
-0.002,0.36,0.929,-0.183,2264514
0.0,0.36,0.927,0.0,2264518
0.0,0.36,0.927,-0.183,2264522
0.0,0.36,0.927,-0.183,2264526
-0.0,0.359,0.927,-0.244,2264530
-0.0,0.359,0.927,-0.244,2264534
-0.001,0.36,0.927,-0.244,2264538
-0.001,0.36,0.927,-0.244,2264541
-0.001,0.36,0.927,-0.244,2264545
-0.002,0.36,0.928,-0.183,2264549
-0.002,0.36,0.928,-0.244,2264553
-0.001,0.359,0.927,-0.061,2264557
-0.001,0.359,0.927,-0.122,2264561
-0.001,0.359,0.927,-0.122,2264565
-0.001,0.359,0.926,-0.305,2264569
-0.001,0.359,0.926,-0.366,2264573
-0.001,0.361,0.928,-0.305,2264577
-0.001,0.361,0.928,-0.244,2264581
-0.001,0.361,0.928,-0.244,2264585
-0.0,0.361,0.927,-0.183,2264589
-0.0,0.361,0.927,-0.061,2264593
0.0,0.359,0.927,-0.122,2264597
0.0,0.359,0.927,-0.122,2264601
0.0,0.359,0.927,-0.122,2264605
-0.0,0.36,0.926,-0.061,2264609
-0.0,0.36,0.926,-0.183,2264613
-0.001,0.359,0.927,-0.244,2264617
-0.001,0.359,0.927,-0.305,2264621
-0.001,0.359,0.927,-0.305,2264625
-0.0,0.359,0.927,-0.183,2264629
-0.0,0.359,0.927,-0.244,2264633
-0.0,0.359,0.927,-0.244,2264637
-0.0,0.359,0.927,-0.244,2264641
-0.001,0.36,0.927,-0.244,2264645
-0.001,0.36,0.927,-0.244,2264649
-0.001,0.36,0.927,-0.122,2264653
-0.001,0.36,0.926,-0.183,2264657
-0.001,0.36,0.926,-0.183,2264661
-0.0,0.359,0.927,-0.183,2264665
-0.0,0.359,0.927,-0.183,2264669
-0.0,0.359,0.927,-0.183,2264673
-0.002,0.36,0.927,-0.305,2264677
-0.002,0.36,0.927,-0.122,2264681
-0.002,0.361,0.928,-0.183,2264685
-0.002,0.361,0.928,-0.183,2264689
-0.002,0.361,0.928,-0.183,2264693
-0.0,0.36,0.928,-0.122,2264696
-0.0,0.36,0.928,-0.183,2264700
-0.001,0.359,0.926,-0.183,2264704
-0.001,0.359,0.926,-0.183,2264708
-0.001,0.359,0.926,-0.183,2264712
-0.002,0.36,0.926,-0.122,2264716
-0.002,0.36,0.926,-0.244,2264720
-0.001,0.36,0.925,-0.244,2264724
-0.001,0.36,0.925,-0.244,2264728
-0.001,0.36,0.925,-0.305,2264732
-0.001,0.36,0.926,-0.305,2264736
-0.001,0.36,0.926,-0.183,2264740
0.001,0.359,0.926,-0.122,2264744
0.001,0.359,0.926,-0.122,2264748
0.001,0.359,0.926,-0.183,2264752
-0.0,0.359,0.924,-0.183,2264756
-0.0,0.359,0.924,-0.183,2264760
-0.002,0.359,0.927,-0.122,2264764
-0.002,0.359,0.927,-0.122,2264768
-0.002,0.359,0.927,-0.183,2264772
-0.0,0.362,0.928,-0.183,2264776
-0.0,0.362,0.928,-0.305,2264780
-0.001,0.361,0.928,-0.244,2264784
-0.001,0.361,0.928,-0.244,2264788
-0.001,0.361,0.928,-0.183,2264792
0.0,0.36,0.927,-0.244,2264796
0.0,0.36,0.927,-0.183,2264800
0.0,0.361,0.926,-0.183,2264804
0.0,0.361,0.926,-0.183,2264808
0.0,0.361,0.926,-0.244,2264812
-0.001,0.358,0.925,-0.183,2264816
-0.001,0.358,0.925,-0.305,2264820
-0.0,0.359,0.927,-0.183,2264824
-0.0,0.359,0.927,-0.183,2264828
-0.0,0.359,0.927,-0.122,2264832
-0.0,0.361,0.928,-0.183,2264836
-0.0,0.361,0.928,-0.244,2264839
0.001,0.359,0.928,-0.244,2264843
0.001,0.359,0.928,-0.244,2264847
0.001,0.359,0.928,-0.183,2264851
0.0,0.358,0.928,-0.244,2264855
0.0,0.358,0.928,-0.183,2264859
-0.002,0.359,0.927,-0.183,2264863
-0.002,0.359,0.927,-0.183,2264867
-0.002,0.359,0.927,-0.244,2264871
-0.001,0.361,0.928,-0.183,2264875
-0.001,0.361,0.928,-0.183,2264879
-0.002,0.36,0.926,-0.183,2264883
-0.002,0.36,0.926,-0.183,2264887
-0.002,0.36,0.926,-0.244,2264891
-0.001,0.359,0.926,-0.183,2264895
-0.001,0.359,0.926,-0.122,2264899
0.0,0.359,0.927,-0.244,2264903
0.0,0.359,0.927,-0.244,2264907
0.0,0.359,0.927,-0.183,2264911
-0.002,0.36,0.928,-0.244,2264915
-0.002,0.36,0.928,-0.183,2264919
-0.002,0.361,0.928,-0.122,2264923
-0.002,0.361,0.928,-0.122,2264927
-0.002,0.361,0.928,-0.061,2264931
-0.001,0.36,0.926,-0.244,2264935
-0.001,0.36,0.926,-0.244,2264939
-0.002,0.36,0.927,-0.061,2264943
-0.002,0.36,0.927,-0.061,2264947
-0.002,0.36,0.927,-0.305,2264951
-0.0,0.359,0.926,-0.305,2264955
-0.0,0.359,0.926,-0.122,2264959
-0.001,0.361,0.926,-0.244,2264963
-0.001,0.361,0.926,-0.244,2264967
-0.001,0.361,0.926,-0.183,2264971
-0.001,0.36,0.926,-0.061,2264975
-0.001,0.36,0.926,-0.183,2264978
-0.001,0.359,0.925,-0.183,2264982
-0.001,0.359,0.925,-0.183,2264986
-0.001,0.359,0.925,-0.183,2264990
-0.002,0.361,0.926,-0.366,2264994
-0.002,0.361,0.926,-0.122,2264998
0.0,0.361,0.93,0.0,2265002
0.0,0.361,0.93,0.0,2265006
0.0,0.361,0.93,-0.122,2265010
-0.0,0.36,0.927,-0.244,2265014
-0.0,0.36,0.927,-0.305,2265018
-0.0,0.359,0.926,-0.305,2265022
-0.0,0.359,0.926,-0.305,2265026
-0.0,0.359,0.926,-0.305,2265030
0.0,0.36,0.927,-0.305,2265034
0.0,0.36,0.927,-0.305,2265038
-0.001,0.361,0.926,-0.244,2265042
-0.001,0.361,0.926,-0.244,2265046
-0.001,0.361,0.926,-0.122,2265050
-0.002,0.361,0.927,-0.122,2265054
-0.002,0.361,0.927,-0.244,2265058
-0.001,0.359,0.928,-0.183,2265062
-0.001,0.359,0.928,-0.183,2265066
-0.001,0.359,0.928,-0.183,2265070
-0.0,0.359,0.927,-0.244,2265074
-0.0,0.359,0.927,-0.122,2265078
-0.002,0.36,0.926,-0.244,2265082
-0.002,0.36,0.926,-0.244,2265086
-0.002,0.36,0.926,-0.183,2265090
-0.001,0.361,0.926,-0.244,2265093
-0.001,0.361,0.926,-0.305,2265097
-0.001,0.361,0.926,-0.366,2265101
-0.001,0.361,0.926,-0.366,2265105
-0.001,0.361,0.926,-0.122,2265109
-0.001,0.361,0.926,-0.122,2265113
-0.001,0.361,0.926,-0.305,2265117
-0.001,0.361,0.928,-0.183,2265121
-0.001,0.361,0.928,-0.183,2265125
-0.001,0.361,0.928,-0.122,2265129
-0.001,0.361,0.928,-0.122,2265133
-0.001,0.361,0.928,-0.183,2265137
-0.0,0.36,0.926,-0.183,2265141
-0.0,0.36,0.926,-0.183,2265145
-0.0,0.36,0.926,-0.244,2265149
-0.002,0.361,0.927,-0.244,2265153
-0.002,0.361,0.927,-0.244,2265157
-0.001,0.36,0.929,-0.122,2265161
-0.001,0.36,0.929,-0.122,2265165
-0.001,0.36,0.929,0.0,2265169
0.0,0.36,0.928,-0.183,2265173
0.0,0.36,0.928,-0.244,2265177
-0.001,0.359,0.928,-0.305,2265181
-0.001,0.359,0.928,-0.305,2265185
-0.001,0.359,0.928,-0.305,2265189
-0.0,0.36,0.927,-0.305,2265193
-0.0,0.36,0.927,-0.061,2265197
-0.001,0.36,0.926,-0.061,2265201
-0.001,0.36,0.926,-0.061,2265205
-0.001,0.36,0.926,-0.305,2265209
-0.003,0.36,0.925,-0.244,2265212
-0.003,0.36,0.925,-0.183,2265216
-0.001,0.361,0.925,-0.122,2265220
-0.001,0.361,0.925,-0.122,2265224
-0.001,0.361,0.925,-0.183,2265228
-0.0,0.361,0.928,-0.183,2265232
-0.0,0.361,0.928,-0.122,2265236
-0.002,0.36,0.927,-0.244,2265240
-0.002,0.36,0.927,-0.244,2265244
-0.002,0.36,0.927,-0.244,2265248
-0.002,0.36,0.925,-0.183,2265252
-0.002,0.36,0.925,-0.244,2265256
-0.001,0.36,0.928,-0.122,2265260
-0.001,0.36,0.928,-0.122,2265264
-0.001,0.36,0.928,-0.244,2265268
-0.0,0.36,0.928,-0.244,2265272
-0.0,0.36,0.928,-0.061,2265276
-0.002,0.361,0.927,-0.305,2265280
-0.002,0.361,0.927,-0.305,2265284
-0.002,0.361,0.927,-0.183,2265288
0.0,0.361,0.925,-0.305,2265292
0.0,0.361,0.925,-0.244,2265296
-0.002,0.36,0.926,-0.244,2265300
-0.002,0.36,0.926,-0.244,2265304
-0.002,0.36,0.926,-0.244,2265308
-0.0,0.361,0.928,-0.183,2265312
-0.0,0.361,0.928,-0.183,2265316
-0.0,0.36,0.928,-0.122,2265320
-0.0,0.36,0.928,-0.122,2265324
-0.0,0.36,0.928,-0.244,2265328
-0.001,0.361,0.927,-0.244,2265332
-0.001,0.361,0.927,-0.244,2265336
-0.002,0.36,0.926,-0.183,2265340
-0.002,0.36,0.926,-0.183,2265344
-0.002,0.36,0.926,-0.183,2265348
0.0,0.359,0.927,-0.244,2265351
0.0,0.359,0.927,-0.183,2265355
-0.001,0.361,0.926,-0.183,2265359
-0.001,0.361,0.926,-0.183,2265363
-0.001,0.361,0.926,-0.244,2265367
-0.001,0.361,0.928,-0.244,2265371
-0.001,0.361,0.928,-0.183,2265375
-0.001,0.361,0.927,-0.244,2265379
-0.001,0.361,0.927,-0.244,2265383
-0.001,0.361,0.927,-0.183,2265387
-0.001,0.359,0.926,-0.122,2265391
-0.001,0.359,0.926,-0.183,2265395
-0.001,0.359,0.927,-0.244,2265399
-0.001,0.359,0.927,-0.244,2265403
-0.001,0.359,0.927,-0.244,2265407
-0.0,0.359,0.927,-0.183,2265411
-0.0,0.359,0.927,-0.244,2265415
0.001,0.359,0.927,-0.244,2265419
0.001,0.359,0.927,-0.244,2265423
0.001,0.359,0.927,-0.183,2265427
0.001,0.36,0.927,-0.122,2265431
0.001,0.36,0.927,-0.244,2265435
-0.001,0.36,0.927,-0.366,2265439
-0.001,0.36,0.927,-0.366,2265443
-0.001,0.36,0.927,-0.183,2265447
-0.0,0.36,0.926,-0.061,2265451
-0.0,0.36,0.926,-0.061,2265455
-0.003,0.36,0.928,-0.183,2265459
-0.003,0.36,0.928,-0.183,2265463
-0.003,0.36,0.928,-0.183,2265467
-0.001,0.361,0.928,-0.122,2265471
-0.001,0.361,0.928,-0.122,2265475
-0.0,0.36,0.926,-0.244,2265479
-0.0,0.36,0.926,-0.244,2265483
-0.0,0.36,0.926,-0.122,2265487
-0.002,0.361,0.925,-0.183,2265490
-0.002,0.361,0.925,-0.244,2265494
-0.002,0.361,0.926,-0.183,2265498
-0.002,0.361,0.926,-0.183,2265502
-0.002,0.361,0.926,-0.244,2265506
-0.0,0.362,0.928,-0.183,2265510
-0.0,0.362,0.928,-0.244,2265514
-0.001,0.36,0.927,-0.061,2265518
-0.001,0.36,0.927,-0.061,2265522
-0.001,0.36,0.927,-0.061,2265526
-0.002,0.361,0.927,-0.244,2265530
-0.002,0.361,0.927,-0.183,2265534
-0.003,0.36,0.928,-0.183,2265538
-0.003,0.36,0.928,-0.183,2265542
-0.003,0.36,0.928,-0.122,2265546
0.0,0.361,0.925,-0.122,2265550
0.0,0.361,0.925,-0.183,2265554
-0.001,0.361,0.925,-0.244,2265558
-0.001,0.361,0.925,-0.244,2265562
-0.001,0.361,0.925,-0.122,2265566
-0.002,0.358,0.926,-0.183,2265570
-0.002,0.358,0.926,-0.244,2265574
-0.001,0.363,0.927,-0.183,2265578
-0.001,0.363,0.927,-0.183,2265582
-0.001,0.363,0.927,-0.183,2265586
-0.001,0.361,0.926,-0.183,2265590
-0.001,0.361,0.926,-0.183,2265594
-0.002,0.36,0.927,-0.244,2265598
-0.002,0.36,0.927,-0.244,2265601
-0.002,0.36,0.927,-0.122,2265605
-0.001,0.359,0.928,-0.244,2265609
-0.001,0.359,0.928,-0.183,2265613
0.0,0.359,0.927,-0.122,2265617
0.0,0.359,0.927,-0.122,2265621
0.0,0.359,0.927,-0.244,2265625
-0.0,0.36,0.927,-0.183,2265629
-0.0,0.36,0.927,-0.183,2265633
-0.003,0.361,0.927,-0.122,2265637
-0.003,0.361,0.927,-0.122,2265641
-0.003,0.361,0.927,-0.122,2265645
-0.001,0.36,0.926,-0.122,2265649
-0.001,0.36,0.926,-0.183,2265653
-0.002,0.36,0.927,-0.244,2265657
-0.002,0.36,0.927,-0.244,2265661
-0.002,0.36,0.927,-0.183,2265665
-0.001,0.362,0.928,-0.183,2265669
-0.001,0.362,0.928,-0.244,2265673
-0.001,0.361,0.927,-0.122,2265677
-0.001,0.361,0.927,-0.122,2265681
-0.001,0.361,0.927,-0.183,2265685
-0.001,0.361,0.927,-0.244,2265689
-0.001,0.361,0.927,-0.183,2265693
0.0,0.36,0.929,-0.305,2265697
0.0,0.36,0.929,-0.305,2265701
0.0,0.36,0.929,-0.305,2265705
0.0,0.36,0.928,-0.061,2265709
0.0,0.36,0.928,0.0,2265713
-0.001,0.36,0.926,-0.244,2265717
-0.001,0.36,0.926,-0.244,2265720
-0.001,0.36,0.926,-0.244,2265724
-0.001,0.36,0.928,0.0,2265728
-0.001,0.36,0.928,-0.183,2265732
-0.0,0.361,0.927,-0.244,2265736
-0.0,0.361,0.927,-0.244,2265740
-0.0,0.361,0.927,-0.183,2265744
0.0,0.36,0.926,-0.183,2265748
0.0,0.36,0.926,-0.183,2265752
-0.001,0.36,0.927,-0.244,2265756
-0.001,0.36,0.927,-0.244,2265760
-0.001,0.36,0.927,-0.183,2265764
-0.002,0.362,0.925,-0.183,2265768
-0.002,0.362,0.925,-0.244,2265772
-0.001,0.36,0.927,-0.183,2265776
-0.001,0.36,0.927,-0.183,2265780
-0.001,0.36,0.927,-0.305,2265784
-0.001,0.359,0.927,-0.305,2265788
-0.001,0.359,0.927,-0.244,2265792
0.0,0.36,0.926,-0.244,2265796
0.0,0.36,0.926,-0.244,2265800
0.0,0.36,0.926,-0.183,2265804
-0.0,0.358,0.926,-0.305,2265808
-0.0,0.358,0.926,-0.122,2265812
-0.001,0.36,0.927,-0.183,2265816
-0.001,0.36,0.927,-0.183,2265820
-0.001,0.36,0.927,-0.183,2265824
-0.001,0.36,0.927,-0.183,2265828
-0.001,0.36,0.927,-0.122,2265832
-0.001,0.361,0.927,-0.183,2265836
-0.001,0.361,0.927,-0.183,2265840
-0.001,0.361,0.927,-0.244,2265843
0.001,0.361,0.926,-0.305,2265847
0.001,0.361,0.926,-0.183,2265851
-0.001,0.36,0.927,-0.183,2265855
-0.001,0.36,0.927,-0.183,2265859
-0.001,0.36,0.927,-0.122,2265863
-0.001,0.36,0.927,-0.122,2265867
-0.001,0.36,0.927,-0.305,2265871
-0.001,0.362,0.926,-0.122,2265875
-0.001,0.362,0.926,-0.122,2265879
-0.001,0.362,0.926,0.061,2265883
-0.001,0.36,0.926,-0.122,2265887
-0.001,0.36,0.926,-0.244,2265891
0.0,0.36,0.928,-0.244,2265895
0.0,0.36,0.928,-0.244,2265899
0.0,0.36,0.928,-0.183,2265903
0.002,0.362,0.927,-0.122,2265907
0.002,0.362,0.927,-0.122,2265911
-0.001,0.36,0.928,-0.122,2265915
-0.001,0.36,0.928,-0.122,2265919
-0.001,0.36,0.928,-0.183,2265923
-0.001,0.361,0.925,-0.244,2265927
-0.001,0.361,0.925,-0.183,2265931
0.0,0.36,0.927,-0.244,2265935
0.0,0.36,0.927,-0.244,2265939
0.0,0.36,0.927,-0.061,2265943
-0.0,0.359,0.929,-0.183,2265947
-0.0,0.359,0.929,-0.305,2265951
-0.0,0.359,0.927,-0.244,2265954
-0.0,0.359,0.927,-0.244,2265958
-0.0,0.359,0.927,-0.183,2265962
-0.001,0.359,0.926,-0.244,2265966
-0.001,0.359,0.926,-0.305,2265970
-0.003,0.361,0.927,-0.183,2265974
-0.003,0.361,0.927,-0.183,2265978
-0.003,0.361,0.927,-0.244,2265982
0.0,0.36,0.926,-0.183,2265986
0.0,0.36,0.926,-0.183,2265990
-0.0,0.36,0.925,-0.122,2265994
-0.0,0.36,0.925,-0.122,2265998
-0.0,0.36,0.925,-0.183,2266002
-0.002,0.362,0.926,-0.122,2266006
-0.002,0.362,0.926,-0.183,2266010
-0.003,0.36,0.927,-0.183,2266014
-0.003,0.36,0.927,-0.183,2266018
-0.003,0.36,0.927,-0.244,2266022
-0.001,0.359,0.927,-0.244,2266026
-0.001,0.359,0.927,-0.244,2266030
-0.001,0.359,0.927,-0.183,2266034
-0.001,0.359,0.927,-0.183,2266038
-0.001,0.359,0.927,-0.122,2266042
-0.001,0.359,0.927,0.0,2266046
-0.001,0.359,0.927,-0.122,2266050
-0.002,0.36,0.927,-0.183,2266054
-0.002,0.36,0.927,-0.183,2266058
-0.002,0.36,0.927,-0.183,2266062
-0.002,0.36,0.928,-0.122,2266066
-0.002,0.36,0.928,-0.244,2266070
0.0,0.36,0.927,-0.183,2266074
0.0,0.36,0.927,-0.183,2266077
0.0,0.36,0.927,-0.244,2266081
-0.001,0.361,0.927,-0.183,2266085
-0.001,0.361,0.927,-0.183,2266089
-0.001,0.36,0.928,-0.122,2266093
-0.001,0.36,0.928,-0.122,2266097
-0.001,0.36,0.928,-0.305,2266101
0.0,0.36,0.927,-0.183,2266105
0.0,0.36,0.927,-0.244,2266109
-0.0,0.361,0.927,-0.305,2266113
-0.0,0.361,0.927,-0.305,2266117
-0.0,0.361,0.927,-0.366,2266121
-0.002,0.361,0.928,-0.183,2266125
-0.002,0.361,0.928,-0.244,2266129
-0.0,0.36,0.927,-0.183,2266133
-0.0,0.36,0.927,-0.183,2266137
-0.0,0.36,0.927,-0.183,2266141
0.001,0.361,0.926,-0.427,2266145
0.001,0.361,0.926,-0.122,2266149
-0.001,0.359,0.925,-0.061,2266153
-0.001,0.359,0.925,-0.061,2266157
-0.001,0.359,0.925,-0.305,2266161
-0.0,0.359,0.929,-0.244,2266165
-0.0,0.359,0.929,-0.122,2266169
0.0,0.361,0.927,-0.122,2266173
0.0,0.361,0.927,-0.122,2266177
0.0,0.361,0.927,-0.244,2266181
-0.002,0.359,0.926,-0.183,2266185
-0.002,0.359,0.926,-0.305,2266189
-0.003,0.358,0.929,-0.244,2266193
-0.003,0.358,0.929,-0.244,2266196
-0.003,0.358,0.929,-0.061,2266200
-0.002,0.36,0.928,-0.061,2266204
-0.002,0.36,0.928,-0.244,2266208
-0.001,0.36,0.929,-0.366,2266212
-0.001,0.36,0.929,-0.366,2266216
-0.001,0.36,0.929,-0.122,2266220
-0.001,0.36,0.927,-0.061,2266224
-0.001,0.36,0.927,-0.183,2266228
0.0,0.36,0.927,-0.244,2266232
0.0,0.36,0.927,-0.244,2266236
0.0,0.36,0.927,-0.244,2266240
-0.0,0.362,0.927,-0.183,2266244
-0.0,0.362,0.927,-0.122,2266248
-0.002,0.359,0.926,-0.183,2266252
-0.002,0.359,0.926,-0.183,2266256
-0.002,0.359,0.926,-0.183,2266260
-0.0,0.361,0.927,-0.183,2266264
-0.0,0.361,0.927,-0.183,2266268
0.0,0.361,0.927,-0.183,2266272
0.0,0.361,0.927,-0.183,2266276
0.0,0.361,0.927,-0.183,2266280
-0.0,0.359,0.926,-0.061,2266284
-0.0,0.359,0.926,-0.183,2266288
-0.001,0.359,0.927,-0.183,2266292
-0.001,0.359,0.927,-0.183,2266296
-0.001,0.359,0.927,-0.061,2266300
-0.002,0.359,0.929,-0.122,2266304
-0.002,0.359,0.929,-0.183,2266308
-0.001,0.36,0.926,-0.183,2266312
-0.001,0.36,0.926,-0.183,2266316
-0.001,0.36,0.926,-0.244,2266320
-0.001,0.359,0.925,-0.183,2266324
-0.001,0.359,0.925,-0.122,2266328
-0.001,0.358,0.925,-0.183,2266332
-0.001,0.358,0.925,-0.183,2266336
-0.001,0.358,0.925,-0.244,2266340
-0.001,0.359,0.927,-0.244,2266343
-0.001,0.359,0.927,-0.122,2266347
-0.0,0.36,0.927,-0.122,2266351
-0.0,0.36,0.927,-0.122,2266355
-0.0,0.36,0.927,-0.244,2266359
-0.0,0.36,0.927,-0.244,2266363
-0.0,0.36,0.927,-0.122,2266367
-0.001,0.361,0.926,-0.244,2266371
-0.001,0.361,0.926,-0.244,2266375
-0.001,0.361,0.926,-0.183,2266379
-0.001,0.359,0.926,-0.122,2266383
-0.001,0.359,0.926,-0.244,2266387
-0.001,0.359,0.929,-0.305,2266391
-0.001,0.359,0.929,-0.305,2266395
-0.001,0.359,0.929,-0.305,2266399
-0.001,0.361,0.926,-0.183,2266403
-0.001,0.361,0.926,-0.244,2266407
-0.001,0.361,0.927,-0.244,2266411
-0.001,0.361,0.927,-0.244,2266415
-0.001,0.361,0.927,-0.122,2266419
-0.0,0.361,0.927,-0.183,2266423
-0.0,0.361,0.927,-0.244,2266427
-0.0,0.361,0.928,-0.183,2266431
-0.0,0.361,0.928,-0.183,2266435
-0.0,0.361,0.928,-0.244,2266439
0.0,0.361,0.927,-0.244,2266443
0.0,0.361,0.927,-0.122,2266447
-0.001,0.36,0.927,-0.183,2266451
-0.001,0.36,0.927,-0.183,2266455
-0.001,0.36,0.927,-0.122,2266459
-0.0,0.36,0.927,-0.122,2266463
-0.0,0.36,0.927,-0.183,2266467
-0.0,0.36,0.929,-0.366,2266471
-0.0,0.36,0.929,-0.366,2266474
-0.0,0.36,0.929,-0.183,2266478
-0.001,0.36,0.927,-0.122,2266482
-0.001,0.36,0.927,-0.183,2266486
-0.0,0.359,0.926,-0.183,2266490
-0.0,0.359,0.926,-0.183,2266494
-0.0,0.359,0.926,-0.183,2266498
-0.0,0.359,0.927,-0.305,2266502
-0.0,0.359,0.927,-0.122,2266506
-0.001,0.359,0.927,-0.244,2266510
-0.001,0.359,0.927,-0.244,2266514
-0.001,0.359,0.927,-0.183,2266518
-0.0,0.359,0.928,-0.244,2266522
-0.0,0.359,0.928,-0.244,2266526
0.001,0.36,0.927,-0.183,2266530
0.001,0.36,0.927,-0.183,2266534
0.001,0.36,0.927,-0.244,2266538
-0.001,0.36,0.927,-0.244,2266542
-0.001,0.36,0.927,-0.061,2266546
-0.003,0.359,0.926,-0.061,2266550
-0.003,0.359,0.926,-0.061,2266554
-0.003,0.359,0.926,-0.122,2266558
-0.001,0.361,0.927,-0.183,2266562
-0.001,0.361,0.927,-0.183,2266566
-0.001,0.359,0.927,-0.244,2266570
-0.001,0.359,0.927,-0.244,2266574
-0.001,0.359,0.927,-0.244,2266578
0.0,0.36,0.927,-0.183,2266582
0.0,0.36,0.927,-0.244,2266586
0.0,0.36,0.926,-0.183,2266590
0.0,0.36,0.926,-0.183,2266594
0.0,0.36,0.926,-0.183,2266598
0.0,0.361,0.926,-0.244,2266602
0.0,0.361,0.926,-0.183,2266606
-0.001,0.36,0.926,-0.122,2266610
-0.001,0.36,0.926,-0.122,2266614
-0.001,0.36,0.926,-0.244,2266618
-0.0,0.36,0.926,-0.305,2266621
-0.0,0.36,0.926,-0.305,2266625
-0.0,0.361,0.927,-0.183,2266629
-0.0,0.361,0.927,-0.183,2266633
-0.0,0.361,0.927,-0.122,2266637
-0.002,0.361,0.928,-0.244,2266641
-0.002,0.361,0.928,-0.244,2266645
-0.001,0.36,0.927,-0.122,2266649
-0.001,0.36,0.927,-0.122,2266653
-0.001,0.36,0.927,-0.305,2266657
-0.002,0.36,0.926,-0.122,2266661
-0.002,0.36,0.926,0.061,2266665
-0.001,0.361,0.927,-0.183,2266669
-0.001,0.361,0.927,-0.183,2266673
-0.001,0.361,0.927,-0.244,2266677
-0.002,0.36,0.927,-0.061,2266681
-0.002,0.36,0.927,-0.183,2266685
-0.003,0.359,0.926,-0.183,2266689
-0.003,0.359,0.926,-0.183,2266693
-0.003,0.359,0.926,-0.244,2266697
-0.0,0.36,0.926,-0.183,2266701
-0.0,0.36,0.926,-0.122,2266705
-0.001,0.36,0.927,-0.122,2266709
-0.001,0.36,0.927,-0.122,2266713
-0.001,0.36,0.927,-0.183,2266717
-0.001,0.36,0.927,-0.183,2266721
-0.001,0.36,0.927,-0.305,2266725
-0.001,0.36,0.925,-0.244,2266729
-0.001,0.36,0.925,-0.244,2266733
-0.001,0.36,0.925,-0.061,2266737
-0.002,0.36,0.928,-0.183,2266741
-0.002,0.36,0.928,-0.122,2266745
0.0,0.361,0.927,-0.183,2266749
0.0,0.361,0.927,-0.183,2266753
0.0,0.361,0.927,-0.183,2266756
-0.001,0.36,0.927,-0.305,2266760
-0.001,0.36,0.927,-0.122,2266764
0.002,0.36,0.927,-0.183,2266768
0.002,0.36,0.927,-0.183,2266772
0.002,0.36,0.927,-0.244,2266776
-0.0,0.359,0.926,-0.183,2266780
-0.0,0.359,0.926,-0.244,2266784
0.0,0.36,0.927,-0.183,2266788
0.0,0.36,0.927,-0.183,2266792
0.0,0.36,0.927,-0.183,2266796
-0.002,0.361,0.927,-0.244,2266800
-0.002,0.361,0.927,-0.305,2266804
-0.001,0.359,0.927,-0.183,2266808
-0.001,0.359,0.927,-0.183,2266812
-0.001,0.359,0.927,-0.183,2266816
-0.0,0.36,0.927,-0.244,2266820
-0.0,0.36,0.927,-0.122,2266824
-0.001,0.362,0.927,-0.061,2266828
-0.001,0.362,0.927,-0.061,2266832
-0.001,0.362,0.927,-0.244,2266836
-0.001,0.361,0.928,-0.183,2266840
-0.001,0.361,0.928,-0.183,2266844
-0.001,0.36,0.927,-0.183,2266848
-0.001,0.36,0.927,-0.183,2266852
-0.001,0.36,0.927,-0.183,2266856
-0.001,0.36,0.927,-0.122,2266860
-0.001,0.36,0.927,-0.061,2266864
0.0,0.36,0.927,-0.183,2266868
0.0,0.36,0.927,-0.183,2266872
0.0,0.36,0.927,-0.244,2266876
-0.0,0.36,0.928,-0.122,2266880
-0.0,0.36,0.928,-0.244,2266884
-0.002,0.36,0.927,-0.244,2266888
-0.002,0.36,0.927,-0.244,2266892
-0.002,0.36,0.927,-0.122,2266896
-0.001,0.359,0.926,-0.183,2266900
-0.001,0.359,0.926,-0.183,2266904
-0.001,0.359,0.928,-0.244,2266908
-0.001,0.359,0.928,-0.244,2266911
-0.001,0.359,0.928,-0.061,2266915
-0.0,0.361,0.928,-0.061,2266919
-0.0,0.361,0.928,-0.122,2266923
-0.001,0.36,0.927,-0.244,2266927
-0.001,0.36,0.927,-0.244,2266931
-0.001,0.36,0.927,-0.244,2266935
-0.002,0.359,0.926,-0.183,2266939
-0.002,0.359,0.926,-0.183,2266943
-0.0,0.36,0.928,-0.244,2266947
-0.0,0.36,0.928,-0.244,2266951
-0.0,0.36,0.928,-0.183,2266955
-0.001,0.359,0.928,-0.244,2266959
-0.001,0.359,0.928,-0.183,2266963
-0.002,0.36,0.927,-0.183,2266967
-0.002,0.36,0.927,-0.183,2266971
-0.002,0.36,0.927,-0.122,2266975
-0.001,0.359,0.927,-0.122,2266979
-0.001,0.359,0.927,-0.366,2266983
-0.001,0.36,0.928,-0.244,2266987
-0.001,0.36,0.928,-0.061,2266991
-0.001,0.36,0.928,-0.061,2266995
-0.001,0.36,0.926,0.0,2266999
-0.001,0.36,0.926,-0.122,2267003
-0.001,0.36,0.926,-0.244,2267007
-0.001,0.36,0.926,-0.305,2267011
-0.001,0.36,0.926,-0.305,2267015
-0.0,0.36,0.927,-0.366,2267019
-0.0,0.36,0.927,-0.244,2267023
-0.002,0.362,0.927,-0.183,2267027
-0.002,0.362,0.927,-0.244,2267031
-0.002,0.362,0.927,-0.244,2267035
-0.001,0.361,0.927,-0.305,2267039
-0.001,0.361,0.927,-0.122,2267043
0.0,0.359,0.927,-0.122,2267047
0.0,0.359,0.927,-0.183,2267050
0.0,0.359,0.927,-0.183,2267054
-0.001,0.362,0.927,-0.183,2267058
-0.001,0.362,0.927,-0.061,2267062
0.001,0.36,0.927,-0.183,2267066
0.001,0.36,0.927,-0.183,2267070
0.001,0.36,0.927,-0.122,2267074
0.0,0.361,0.927,0.122,2267078
0.0,0.361,0.927,-0.122,2267082
0.001,0.36,0.926,-0.244,2267086
0.001,0.36,0.926,-0.244,2267090
0.001,0.36,0.926,-0.183,2267094
0.0,0.36,0.926,-0.183,2267098
0.0,0.36,0.926,-0.244,2267102
-0.0,0.361,0.93,-0.305,2267106
-0.0,0.361,0.93,-0.305,2267110
-0.0,0.361,0.93,-0.183,2267114
0.0,0.359,0.926,-0.183,2267118
0.0,0.359,0.926,-0.244,2267122
-0.001,0.36,0.924,-0.183,2267126
-0.001,0.36,0.924,-0.183,2267130
-0.001,0.36,0.924,-0.183,2267134
-0.0,0.362,0.927,-0.183,2267138
-0.0,0.362,0.927,-0.183,2267142
-0.0,0.362,0.927,-0.244,2267146
-0.0,0.362,0.927,-0.244,2267150
-0.0,0.362,0.927,-0.244,2267154
-0.0,0.361,0.926,-0.305,2267158
-0.0,0.361,0.926,-0.305,2267162
-0.0,0.361,0.927,-0.305,2267165
-0.0,0.361,0.927,-0.305,2267169
-0.0,0.361,0.927,-0.183,2267173
-0.002,0.36,0.927,-0.061,2267177
-0.002,0.36,0.927,-0.183,2267181
-0.004,0.361,0.925,-0.488,2267185
-0.004,0.361,0.925,-0.488,2267189
-0.004,0.361,0.925,-0.305,2267193
-0.002,0.361,0.927,-0.061,2267197
-0.002,0.361,0.927,-0.122,2267201
-0.002,0.361,0.927,-0.183,2267205
-0.002,0.361,0.927,-0.183,2267209
-0.002,0.361,0.927,-0.305,2267213
-0.002,0.359,0.927,-0.183,2267217
-0.002,0.359,0.927,-0.244,2267221
-0.001,0.36,0.927,-0.183,2267225
-0.001,0.36,0.927,-0.183,2267229
-0.001,0.36,0.927,-0.061,2267233
-0.001,0.359,0.927,-0.183,2267237
-0.001,0.359,0.927,-0.305,2267241
-0.001,0.36,0.926,-0.305,2267245
-0.001,0.36,0.926,-0.305,2267249
-0.001,0.36,0.926,-0.244,2267253
-0.0,0.36,0.927,-0.122,2267257
-0.0,0.36,0.927,-0.122,2267261
-0.001,0.36,0.927,-0.244,2267265
-0.001,0.36,0.927,-0.244,2267269
-0.001,0.36,0.927,-0.366,2267273
-0.002,0.36,0.927,-0.122,2267277
-0.002,0.36,0.927,-0.244,2267281
-0.002,0.358,0.929,-0.244,2267285
-0.002,0.358,0.929,-0.244,2267289
-0.002,0.358,0.929,-0.244,2267293
0.0,0.357,0.927,-0.244,2267297
0.0,0.357,0.927,-0.122,2267301
-0.001,0.359,0.926,-0.061,2267305
-0.001,0.359,0.926,-0.122,2267309
-0.001,0.359,0.926,-0.122,2267312
0.0,0.36,0.928,-0.183,2267316
0.0,0.36,0.928,-0.305,2267320
0.0,0.359,0.927,-0.061,2267324
0.0,0.359,0.927,-0.061,2267328
0.0,0.359,0.927,-0.183,2267332
-0.001,0.359,0.926,-0.305,2267336
-0.001,0.359,0.926,-0.244,2267340
0.0,0.36,0.93,-0.305,2267344
0.0,0.36,0.93,-0.305,2267348
0.0,0.36,0.93,-0.061,2267352
-0.001,0.361,0.929,-0.183,2267356
-0.001,0.361,0.929,-0.244,2267360
-0.003,0.36,0.928,-0.183,2267364
-0.003,0.36,0.928,-0.183,2267368
-0.003,0.36,0.928,-0.122,2267372
-0.001,0.36,0.927,-0.305,2267376
-0.001,0.36,0.927,-0.244,2267380
-0.001,0.361,0.925,-0.183,2267384
-0.001,0.361,0.925,-0.183,2267388
-0.001,0.361,0.925,-0.183,2267392
-0.001,0.361,0.925,-0.183,2267396
-0.001,0.361,0.925,-0.122,2267400
-0.002,0.362,0.927,-0.305,2267404
-0.002,0.362,0.927,-0.305,2267408
-0.002,0.362,0.927,-0.183,2267412
-0.002,0.361,0.925,-0.244,2267416
-0.002,0.361,0.925,-0.366,2267420
-0.002,0.359,0.927,-0.122,2267424
-0.002,0.359,0.927,-0.061,2267428
-0.002,0.359,0.927,-0.061,2267431
-0.003,0.361,0.926,-0.244,2267435
-0.003,0.361,0.926,-0.244,2267439
-0.001,0.36,0.925,-0.244,2267443
-0.001,0.36,0.925,-0.183,2267447
-0.001,0.36,0.925,-0.183,2267451
-0.002,0.358,0.927,-0.183,2267455
-0.002,0.358,0.927,-0.183,2267459
-0.004,0.359,0.927,-0.122,2267463
-0.004,0.359,0.927,-0.122,2267467
-0.004,0.359,0.927,-0.122,2267471
-0.001,0.36,0.926,-0.305,2267475
-0.001,0.36,0.926,-0.305,2267479
0.0,0.36,0.925,-0.183,2267483
0.0,0.36,0.925,-0.244,2267487
0.0,0.36,0.925,-0.244,2267491
0.0,0.36,0.929,-0.244,2267495
0.0,0.36,0.929,-0.061,2267499
-0.001,0.358,0.927,-0.244,2267503
-0.001,0.358,0.927,-0.366,2267507
-0.001,0.358,0.927,-0.366,2267511
-0.001,0.36,0.926,-0.366,2267515
-0.001,0.36,0.926,-0.183,2267519
-0.002,0.359,0.927,-0.305,2267523
-0.002,0.359,0.927,-0.366,2267527
-0.002,0.359,0.927,-0.366,2267531
-0.002,0.36,0.927,-0.183,2267535
-0.002,0.36,0.927,-0.244,2267539
-0.002,0.36,0.925,-0.305,2267543
-0.002,0.36,0.925,-0.183,2267547
-0.002,0.36,0.925,-0.183,2267551
-0.001,0.358,0.925,-0.305,2267555
-0.001,0.358,0.925,-0.183,2267559
-0.0,0.36,0.926,-0.122,2267563
-0.0,0.36,0.926,-0.183,2267566
-0.0,0.36,0.926,-0.183,2267570
-0.001,0.361,0.926,-0.122,2267574
-0.001,0.361,0.926,-0.244,2267578
-0.001,0.361,0.926,-0.183,2267582
-0.001,0.361,0.926,-0.305,2267586
-0.001,0.361,0.926,-0.305,2267590
-0.001,0.361,0.926,-0.244,2267594
-0.001,0.361,0.926,-0.183,2267598
-0.0,0.362,0.927,-0.183,2267602
-0.0,0.362,0.927,-0.244,2267606
-0.0,0.362,0.927,-0.244,2267610
-0.001,0.361,0.927,-0.305,2267614
-0.001,0.361,0.927,-0.305,2267618
-0.0,0.361,0.927,-0.244,2267622
-0.0,0.361,0.927,-0.183,2267626
-0.0,0.361,0.927,-0.183,2267630
0.0,0.361,0.927,-0.305,2267634
0.0,0.361,0.927,-0.244,2267638
-0.001,0.36,0.926,-0.061,2267642
-0.001,0.36,0.926,-0.183,2267646
-0.001,0.36,0.926,-0.183,2267650
-0.0,0.36,0.926,-0.244,2267654
-0.0,0.36,0.926,-0.244,2267658
-0.002,0.36,0.926,-0.122,2267662
-0.002,0.36,0.926,-0.122,2267666
-0.002,0.36,0.926,-0.122,2267670
-0.001,0.36,0.928,-0.183,2267674
-0.001,0.36,0.928,-0.122,2267678
0.001,0.358,0.927,-0.244,2267682
0.001,0.358,0.927,-0.244,2267686
0.001,0.358,0.927,-0.244,2267690
-0.002,0.359,0.926,-0.122,2267694
-0.002,0.359,0.926,-0.305,2267698
-0.002,0.361,0.927,-0.183,2267702
-0.002,0.361,0.927,-0.122,2267706
-0.002,0.361,0.927,-0.122,2267710
-0.0,0.36,0.928,-0.122,2267714
-0.0,0.36,0.928,-0.183,2267717
-0.003,0.36,0.925,-0.244,2267721
-0.003,0.36,0.925,-0.183,2267725
-0.003,0.36,0.925,-0.183,2267729
-0.002,0.359,0.926,-0.244,2267733
-0.002,0.359,0.926,-0.244,2267737
-0.001,0.36,0.926,-0.244,2267741
-0.001,0.36,0.926,-0.244,2267745
-0.001,0.36,0.926,-0.244,2267749
-0.002,0.36,0.927,-0.183,2267753
-0.002,0.36,0.927,-0.244,2267757
-0.001,0.361,0.926,-0.122,2267761
-0.001,0.361,0.926,-0.183,2267765
-0.001,0.361,0.926,-0.183,2267769
-0.001,0.363,0.926,-0.122,2267773
-0.001,0.363,0.926,-0.122,2267777
-0.002,0.361,0.926,-0.305,2267781
-0.002,0.361,0.926,-0.122,2267785
-0.002,0.361,0.926,-0.122,2267789
-0.0,0.362,0.925,-0.183,2267793
-0.0,0.362,0.925,-0.183,2267797
-0.001,0.362,0.928,-0.244,2267801
-0.001,0.362,0.928,-0.244,2267805
-0.001,0.362,0.928,-0.244,2267809
-0.002,0.361,0.925,-0.061,2267813
-0.002,0.361,0.925,-0.061,2267817
-0.002,0.361,0.926,-0.183,2267821
-0.002,0.361,0.926,-0.244,2267825
-0.002,0.361,0.926,-0.244,2267829
-0.002,0.36,0.927,-0.244,2267833
-0.002,0.36,0.927,-0.183,2267837
-0.0,0.358,0.926,-0.183,2267841
-0.0,0.358,0.926,-0.183,2267845
-0.0,0.358,0.926,-0.183,2267849
-0.002,0.359,0.927,-0.122,2267853
-0.002,0.359,0.927,-0.244,2267856
0.0,0.359,0.926,-0.122,2267860
0.0,0.359,0.926,-0.061,2267864
0.0,0.359,0.926,-0.061,2267868
-0.0,0.359,0.927,-0.183,2267872
-0.0,0.359,0.927,-0.183,2267876
0.0,0.359,0.928,-0.122,2267880
0.0,0.359,0.928,-0.122,2267884
0.0,0.359,0.928,-0.122,2267888
-0.0,0.359,0.927,-0.244,2267892
-0.0,0.359,0.927,-0.244,2267896
-0.001,0.359,0.928,-0.244,2267900
-0.001,0.359,0.928,-0.122,2267904
-0.001,0.359,0.928,-0.122,2267908
-0.0,0.359,0.928,-0.122,2267912
-0.0,0.359,0.928,-0.183,2267916
-0.0,0.359,0.928,-0.244,2267920
-0.0,0.359,0.928,-0.183,2267924
-0.0,0.359,0.928,-0.183,2267928
-0.0,0.361,0.926,-0.183,2267932
-0.0,0.361,0.926,-0.244,2267936
-0.0,0.361,0.927,-0.244,2267940
-0.0,0.361,0.927,-0.244,2267944
-0.0,0.361,0.927,-0.244,2267948
-0.001,0.36,0.927,-0.244,2267952
-0.001,0.36,0.927,-0.244,2267956
-0.0,0.361,0.926,-0.122,2267960
-0.0,0.361,0.926,-0.183,2267964
-0.0,0.361,0.926,-0.183,2267968
0.0,0.361,0.928,-0.427,2267972
0.0,0.361,0.928,-0.244,2267975
-0.0,0.361,0.929,-0.122,2267979
-0.0,0.361,0.929,-0.244,2267983
-0.0,0.361,0.929,-0.244,2267987
-0.0,0.362,0.925,-0.122,2267991
-0.0,0.362,0.925,-0.183,2267995
0.001,0.361,0.924,-0.244,2267999
0.001,0.361,0.924,-0.244,2268003
0.001,0.361,0.924,-0.244,2268007
0.0,0.362,0.927,-0.122,2268011
0.0,0.362,0.927,-0.122,2268015
0.001,0.361,0.928,-0.122,2268019
0.001,0.361,0.928,-0.122,2268023
0.001,0.361,0.928,-0.122,2268027
0.0,0.359,0.928,-0.061,2268031
0.0,0.359,0.928,-0.305,2268035
-0.0,0.359,0.927,-0.244,2268039
-0.0,0.359,0.927,-0.183,2268043
-0.0,0.359,0.927,-0.183,2268047
-0.002,0.36,0.928,-0.061,2268051
-0.002,0.36,0.928,-0.305,2268055
-0.002,0.359,0.928,-0.244,2268059
-0.002,0.359,0.928,-0.122,2268063
-0.002,0.359,0.928,-0.122,2268067
-0.003,0.36,0.926,-0.183,2268071
-0.003,0.36,0.926,-0.122,2268075
-0.003,0.359,0.927,-0.183,2268079
-0.003,0.359,0.927,-0.244,2268083
-0.003,0.359,0.927,-0.244,2268087
-0.002,0.358,0.927,-0.183,2268091
-0.002,0.358,0.927,-0.061,2268095
-0.003,0.36,0.926,-0.183,2268099
-0.003,0.36,0.926,-0.122,2268103
-0.003,0.36,0.926,-0.122,2268107
-0.004,0.358,0.925,-0.183,2268111
-0.004,0.358,0.925,-0.244,2268115
-0.003,0.359,0.927,-0.122,2268119
-0.003,0.359,0.927,-0.244,2268123
-0.003,0.359,0.927,-0.244,2268127
-0.002,0.36,0.926,-0.244,2268130
-0.002,0.36,0.926,-0.122,2268134
-0.003,0.359,0.924,-0.061,2268138
-0.003,0.359,0.924,-0.061,2268142
-0.003,0.359,0.924,-0.061,2268146
-0.003,0.362,0.925,-0.061,2268150
-0.003,0.362,0.925,-0.122,2268154
-0.003,0.362,0.926,-0.183,2268158
-0.003,0.362,0.926,-0.122,2268162
-0.003,0.362,0.926,-0.122,2268166
-0.002,0.36,0.926,-0.122,2268170
-0.002,0.36,0.926,-0.244,2268174
-0.001,0.361,0.928,-0.183,2268178
-0.001,0.361,0.928,-0.122,2268182
-0.001,0.361,0.928,-0.122,2268186
-0.002,0.36,0.927,-0.122,2268190
-0.002,0.36,0.927,-0.183,2268194
-0.003,0.36,0.928,-0.122,2268198
-0.003,0.36,0.928,0.061,2268202
-0.003,0.36,0.928,0.061,2268206
-0.002,0.36,0.929,-0.244,2268210
-0.002,0.36,0.929,-0.183,2268214
0.001,0.359,0.928,-0.061,2268218
0.001,0.359,0.928,-0.122,2268222
0.001,0.359,0.928,-0.122,2268226
0.002,0.36,0.927,-0.183,2268230
0.002,0.36,0.927,-0.244,2268234
-0.0,0.36,0.927,-0.244,2268238
-0.0,0.36,0.927,-0.244,2268242
-0.0,0.36,0.927,-0.244,2268246
-0.001,0.359,0.926,-0.305,2268250
-0.001,0.359,0.926,-0.122,2268254
-0.0,0.361,0.928,-0.122,2268258
-0.0,0.361,0.928,-0.244,2268262
-0.0,0.361,0.928,-0.244,2268266
-0.001,0.36,0.928,-0.305,2268270
-0.001,0.36,0.928,-0.122,2268273
-0.001,0.361,0.925,-0.183,2268277
-0.001,0.361,0.925,-0.183,2268281
-0.001,0.361,0.925,-0.183,2268285
-0.001,0.362,0.927,-0.183,2268289
-0.001,0.362,0.927,-0.183,2268293
-0.0,0.362,0.929,-0.244,2268297
-0.0,0.362,0.929,-0.183,2268301
-0.0,0.362,0.929,-0.183,2268305
-0.002,0.361,0.928,-0.244,2268309
-0.002,0.361,0.928,-0.244,2268313
-0.003,0.359,0.926,-0.183,2268317
-0.003,0.359,0.926,-0.244,2268321
-0.003,0.359,0.926,-0.244,2268325
-0.004,0.359,0.927,-0.244,2268329
-0.004,0.359,0.927,-0.244,2268333
-0.005,0.361,0.924,-0.183,2268337
-0.005,0.361,0.924,-0.183,2268341
-0.005,0.361,0.924,-0.183,2268345
-0.004,0.361,0.926,-0.244,2268349
-0.004,0.361,0.926,-0.122,2268353
-0.0,0.37,0.865,-0.183,2268357
-0.0,0.37,0.865,-3.54,2268361
-0.0,0.37,0.865,-3.54,2268365
-0.225,0.504,0.509,22.461,2268369
-0.225,0.504,0.509,72.266,2268373
-0.195,0.165,0.863,35.645,2268377
-0.195,0.165,0.863,-44.739,2268381
0.196,0.147,1.131,-61.035,2268385
0.196,0.147,1.131,-61.035,2268389
0.196,0.147,1.131,-64.88,2268393
0.129,0.148,1.297,-46.631,2268397
0.129,0.148,1.297,-50.232,2268401
0.053,0.259,1.504,-110.413,2268405
0.053,0.259,1.504,-110.413,2268409
0.053,0.259,1.504,-179.016,2268413
0.042,0.224,0.913,-134.155,2268417
0.042,0.224,0.913,-39.612,2268421
-0.031,0.195,0.872,-25.085,2268425
-0.031,0.195,0.872,-25.085,2268429
-0.031,0.195,0.872,-44.556,2268433
-0.351,0.446,0.488,101.868,2268437
-0.351,0.446,0.488,261.658,2268441
-0.388,0.656,0.568,145.874,2268445
-0.388,0.656,0.568,145.874,2268449
-0.388,0.656,0.568,35.767,2268453
-0.139,0.751,1.03,-22.827,2268457
-0.139,0.751,1.03,-79.407,2268461
-0.248,0.296,1.017,-120.605,2268465
-0.248,0.296,1.017,-137.146,2268469
-0.248,0.296,1.017,-137.146,2268473
-0.081,0.261,0.98,-140.259,2268477
-0.081,0.261,0.98,-157.41,2268481
0.107,0.389,0.998,-187.683,2268485
0.107,0.389,0.998,-205.933,2268489
0.107,0.389,0.998,-205.933,2268493
-0.034,0.397,0.814,-211.121,2268497
-0.034,0.397,0.814,-221.985,2268501
-0.348,0.406,0.872,-231.628,2268505
-0.348,0.406,0.872,-246.216,2268509
-0.348,0.406,0.872,-246.216,2268513
-0.592,0.308,1.04,-270.752,2268517
-0.592,0.308,1.04,-295.044,2268522
-0.548,0.31,0.887,-321.167,2268526
-0.548,0.31,0.887,-362.244,2268530
-0.341,0.424,0.939,-406.677,2268534
-0.341,0.424,0.939,-406.677,2268538
-0.341,0.424,0.939,-438.171,2268542
1.694,-0.889,1.256,-393.25,2268546
1.694,-0.889,1.256,-0.244,2268550
3.35,-0.838,1.559,666.687,2268554
3.35,-0.838,1.559,666.687,2268558
3.35,-0.838,1.559,853.088,2268562
-0.273,0.809,0.638,523.193,2268566
-0.273,0.809,0.638,387.512,2268570
-0.417,1.019,1.001,373.84,2268574
-0.417,1.019,1.001,373.84,2268578
-0.417,1.019,1.001,343.14,2268582
-0.26,0.964,1.073,286.316,2268586
-0.26,0.964,1.073,229.736,2268590
-0.111,0.863,0.975,182.251,2268594
-0.111,0.863,0.975,182.251,2268598
-0.111,0.863,0.975,145.691,2268602
0.076,0.698,0.926,116.028,2268606
0.076,0.698,0.926,83.923,2268610
-0.027,0.702,1.043,48.279,2268614
-0.027,0.702,1.043,48.279,2268618
-0.027,0.702,1.043,11.658,2268622
-0.098,0.736,1.195,-27.405,2268626
-0.098,0.736,1.195,-68.909,2268630
-0.135,0.728,1.187,-105.347,2268634
-0.135,0.728,1.187,-139.221,2268638
-0.135,0.728,1.187,-139.221,2268642
-0.2,0.732,0.981,-177.002,2268646
-0.2,0.732,0.981,-215.759,2268650
-0.203,0.712,0.789,-251.953,2268654
-0.203,0.712,0.789,-283.203,2268658
-0.203,0.712,0.789,-283.203,2268662
-0.084,0.643,0.694,-301.453,2268666
-0.084,0.643,0.694,-302.368,2268670
0.401,0.499,0.724,-249.695,2268674
0.401,0.499,0.724,-166.87,2268678
0.401,0.499,0.724,-166.87,2268682
0.351,0.647,0.949,-118.53,2268686
0.351,0.647,0.949,-106.995,2268690
-0.001,0.722,0.901,-113.708,2268694
-0.001,0.722,0.901,-122.192,2268698
-0.018,0.675,0.748,-128.174,2268702
-0.018,0.675,0.748,-128.174,2268706
-0.018,0.675,0.748,-132.141,2268710
-0.021,0.581,0.687,-133.789,2268714
-0.021,0.581,0.687,-132.751,2268718
-0.038,0.475,0.609,-129.639,2268722
-0.038,0.475,0.609,-129.639,2268726
-0.038,0.475,0.609,-122.864,2268730
-0.059,0.425,0.5,-113.159,2268735
-0.059,0.425,0.5,-102.722,2268739
-0.145,0.497,0.471,-93.323,2268743
-0.145,0.497,0.471,-93.323,2268747
-0.145,0.497,0.471,-89.783,2268751
-0.335,0.627,0.463,-93.323,2268755
-0.335,0.627,0.463,-100.647,2268759
-0.495,0.757,0.408,-112.366,2268763
-0.495,0.757,0.408,-112.366,2268767
-0.495,0.757,0.408,-129.639,2268771
-0.573,0.767,0.417,-152.588,2268775
-0.573,0.767,0.417,-178.589,2268779
-0.506,0.62,0.501,-201.965,2268783
-0.506,0.62,0.501,-210.632,2268787
-0.506,0.62,0.501,-210.632,2268791
-0.445,0.605,0.719,-212.83,2268795
-0.445,0.605,0.719,-231.445,2268799
-0.547,0.633,0.557,-249.512,2268803
-0.547,0.633,0.557,-255.005,2268807
-0.547,0.633,0.557,-255.005,2268811
-0.321,0.538,0.32,-242.554,2268815
-0.321,0.538,0.32,-214.6,2268819
-0.154,0.482,0.28,-172.546,2268823
-0.154,0.482,0.28,-124.146,2268827
-0.154,0.482,0.28,-124.146,2268831
-0.25,0.491,0.324,-90.942,2268835
-0.25,0.491,0.324,-66.04,2268839
-0.327,0.519,0.447,-42.236,2268843
-0.327,0.519,0.447,-22.583,2268847
-0.425,0.617,0.573,-9.521,2268851
-0.425,0.617,0.573,-9.521,2268855
-0.425,0.617,0.573,-1.404,2268859
-0.526,0.707,0.507,4.456,2268863
-0.526,0.707,0.507,9.46,2268867
-0.6,0.795,0.409,10.376,2268871
-0.6,0.795,0.409,10.376,2268875
-0.6,0.795,0.409,-1.099,2268879
-0.72,0.865,0.352,-26.123,2268883
-0.72,0.865,0.352,-52.429,2268887
-0.657,0.854,0.466,-72.449,2268891
-0.657,0.854,0.466,-72.449,2268895
-0.657,0.854,0.466,-81.726,2268899
-0.579,0.734,0.623,-88.44,2268903
-0.579,0.734,0.623,-97.9,2268907
-0.551,0.534,0.549,-104.431,2268911
-0.551,0.534,0.549,-104.431,2268915
-0.551,0.534,0.549,-110.474,2268919
-0.533,0.404,0.471,-124.268,2268923
-0.533,0.404,0.471,-140.686,2268927
-0.513,0.342,0.474,-149.597,2268931
-0.513,0.342,0.474,-149.597,2268935
-0.513,0.342,0.474,-145.386,2268939
-0.428,0.403,0.416,-124.878,2268943
-0.428,0.403,0.416,-96.13,2268947
-0.482,0.561,0.343,-75.562,2268951
-0.482,0.561,0.343,-61.829,2268955
-0.482,0.561,0.343,-61.829,2268959
-0.584,0.709,0.486,-49.927,2268963
-0.584,0.709,0.486,-36.56,2268967
-0.552,0.789,0.754,-16.541,2268971
-0.552,0.789,0.754,0.305,2268975
-0.552,0.789,0.754,0.305,2268979
-0.554,0.785,0.844,8.606,2268983
-0.554,0.785,0.844,7.629,2268987
-0.613,0.703,0.713,0.549,2268991
-0.613,0.703,0.713,-4.456,2268995
-0.613,0.703,0.713,-4.456,2268999
-0.627,0.668,0.527,-4.822,2269003
-0.627,0.668,0.527,-3.052,2269007
-0.654,0.722,0.47,-2.563,2269011
-0.654,0.722,0.47,-5.188,2269015
-0.654,0.722,0.47,-5.188,2269019
-0.827,0.745,0.562,-14.709,2269023
-0.827,0.745,0.562,-54.504,2269027
-0.919,0.687,0.466,-95.215,2269031
-0.919,0.687,0.466,-104.309,2269035
-0.919,0.687,0.466,-104.309,2269039
-0.669,0.527,0.368,-106.201,2269043
-0.669,0.527,0.368,-104.126,2269047
-0.588,0.479,0.381,-96.008,2269051
-0.588,0.479,0.381,-73.486,2269055
-0.588,0.479,0.381,-73.486,2269059
-0.583,0.48,0.329,-43.335,2269063
-0.583,0.48,0.329,-23.315,2269067
-0.537,0.571,0.42,-13.367,2269071
-0.537,0.571,0.42,1.099,2269075
-0.578,0.56,0.438,9.644,2269079
-0.578,0.56,0.438,9.644,2269083
-0.578,0.56,0.438,16.235,2269087
-0.641,0.559,0.386,20.996,2269091
-0.641,0.559,0.386,25.146,2269095
-0.654,0.559,0.424,28.137,2269099
-0.654,0.559,0.424,28.137,2269103
-0.654,0.559,0.424,34.607,2269107
-0.685,0.568,0.464,34.851,2269111
-0.685,0.568,0.464,28.503,2269115
-0.71,0.588,0.444,23.438,2269119
-0.71,0.588,0.444,23.438,2269123
-0.71,0.588,0.444,19.531,2269127
-0.694,0.598,0.506,14.954,2269131
-0.694,0.598,0.506,11.169,2269135
-0.667,0.682,0.446,7.385,2269139
-0.667,0.682,0.446,7.385,2269143
-0.667,0.682,0.446,14.404,2269147
-0.668,0.727,0.348,17.334,2269151
-0.668,0.727,0.348,16.907,2269155
-0.707,0.658,0.441,16.235,2269159
-0.707,0.658,0.441,16.235,2269163
-0.707,0.658,0.441,17.212,2269167
-0.673,0.607,0.425,22.278,2269171
-0.673,0.607,0.425,30.884,2269175
-0.644,0.574,0.344,38.94,2269179
-0.644,0.574,0.344,38.94,2269183
-0.644,0.574,0.344,42.603,2269187
-0.642,0.586,0.337,41.382,2269191
-0.642,0.586,0.337,43.335,2269195
-0.61,0.601,0.55,46.265,2269199
-0.61,0.601,0.55,39.856,2269203
-0.61,0.601,0.55,39.856,2269207
-0.699,0.676,0.432,24.231,2269211
-0.699,0.676,0.432,8.301,2269215
-0.731,0.662,0.557,-7.751,2269219
-0.731,0.662,0.557,-23.926,2269223
-0.731,0.662,0.557,-23.926,2269227
-0.709,0.653,0.57,-41.382,2269231
-0.709,0.653,0.57,-52.429,2269235
-0.666,0.614,0.424,-55.725,2269239
-0.666,0.614,0.424,-57.495,2269243
0.759,-0.33,0.819,77.148,2269728
0.759,-0.33,0.819,74.463,2269732
0.661,-0.321,0.646,74.768,2269736
0.661,-0.321,0.646,74.524,2269740
0.661,-0.321,0.646,74.524,2269744
0.59,-0.38,0.643,70.374,2269748
0.59,-0.38,0.643,62.195,2269752
0.538,-0.424,0.568,46.631,2269756
0.538,-0.424,0.568,28.87,2269760
0.538,-0.424,0.568,28.87,2269764
0.549,-0.437,0.534,21.057,2269768
0.549,-0.437,0.534,24.536,2269772
0.575,-0.474,0.666,34.241,2269776
0.575,-0.474,0.666,55.542,2269780
0.505,-0.536,0.726,58.105,2269784
0.505,-0.536,0.726,58.105,2269788
0.505,-0.536,0.726,56.885,2269792
0.599,-0.487,0.643,72.51,2269796
0.599,-0.487,0.643,78.552,2269800
0.392,-0.529,0.699,52.734,2269804
0.392,-0.529,0.699,52.734,2269808
0.392,-0.529,0.699,26.184,2269812
0.381,-0.519,0.561,66.162,2269816
0.381,-0.519,0.561,88.806,2269820
0.056,-0.705,0.908,24.658,2269824
0.056,-0.705,0.908,24.658,2269828
0.056,-0.705,0.908,-8.911,2269832
-0.145,-0.643,0.868,-2.258,2269836
-0.145,-0.643,0.868,-15.991,2269840
0.031,-0.571,0.843,-26.001,2269844
0.031,-0.571,0.843,-26.001,2269848
0.031,-0.571,0.843,-12.756,2269852
0.042,-0.586,0.829,2.258,2269856
0.042,-0.586,0.829,5.615,2269860
-0.021,-0.583,0.954,4.639,2269864
-0.021,-0.583,0.954,4.639,2269868
-0.021,-0.583,0.954,9.399,2269872
-0.018,-0.612,1.011,13.855,2269876
-0.018,-0.612,1.011,14.282,2269880
-0.019,-0.612,0.872,13.611,2269884
-0.019,-0.612,0.872,13.611,2269888
-0.019,-0.612,0.872,10.498,2269892
0.019,-0.584,0.689,7.324,2269896
0.019,-0.584,0.689,7.141,2269899
0.041,-0.573,0.624,7.751,2269903
0.041,-0.573,0.624,7.751,2269907
0.041,-0.573,0.624,3.113,2269911
0.033,-0.574,0.627,-4.761,2269915
0.033,-0.574,0.627,-8.85,2269919
0.07,-0.573,0.754,-7.812,2269923
0.07,-0.573,0.754,-4.15,2269927
0.07,-0.573,0.754,-4.15,2269931
0.096,-0.575,0.928,7.935,2269935
0.096,-0.575,0.928,24.658,2269939
0.125,-0.586,1.049,42.664,2269943
0.125,-0.586,1.049,71.167,2269947
0.125,-0.586,1.049,71.167,2269951
0.192,-0.378,1.192,106.75,2269955
0.192,-0.378,1.192,114.929,2269959
-0.214,-0.614,0.524,59.937,2269963
-0.214,-0.614,0.524,-39.124,2269967
-0.214,-0.614,0.524,-39.124,2269971
0.19,-0.958,-0.555,6.104,2269975
0.19,-0.958,-0.555,111.816,2269979
0.254,-0.634,0.775,141.907,2269983
0.254,-0.634,0.775,125.671,2269987
0.254,-0.634,0.775,125.671,2269991
-0.115,-0.62,0.966,108.948,2269996
-0.115,-0.62,0.966,105.591,2270000
-0.078,-0.552,0.817,106.262,2270004
-0.078,-0.552,0.817,85.144,2270008
-0.078,-0.552,0.817,85.144,2270012
-0.094,-0.608,0.635,68.42,2270016
-0.094,-0.608,0.635,77.454,2270020
-0.019,-0.533,0.634,68.97,2270024
-0.019,-0.533,0.634,45.044,2270028
-0.073,-0.399,0.52,18.616,2270032
-0.073,-0.399,0.52,18.616,2270036
-0.073,-0.399,0.52,14.221,2270040
0.068,-0.448,0.483,24.719,2270044
0.068,-0.448,0.483,24.902,2270048
-0.136,-0.799,0.48,11.23,2270052
-0.136,-0.799,0.48,11.23,2270056
-0.136,-0.799,0.48,-25.513,2270060
-0.084,-0.762,0.575,24.231,2270064
-0.084,-0.762,0.575,44.495,2270068
-0.233,-0.75,0.64,35.95,2270072
-0.233,-0.75,0.64,35.95,2270076
-0.233,-0.75,0.64,3.601,2270080
-0.229,-0.921,0.751,-18.372,2270084
-0.229,-0.921,0.751,2.014,2270088
-0.094,-0.986,0.692,-3.357,2270092
-0.094,-0.986,0.692,-3.357,2270096
-0.094,-0.986,0.692,-6.226,2270100
-0.075,-0.882,0.542,-8.301,2270104
-0.075,-0.882,0.542,-7.568,2270108
-0.007,-0.689,0.422,-15.381,2270112
-0.007,-0.689,0.422,-15.381,2270116
-0.007,-0.689,0.422,-21.729,2270120
0.004,-0.631,0.477,-25.818,2270124
0.004,-0.631,0.477,-29.602,2270128
-0.053,-0.652,0.519,-31.86,2270132
-0.053,-0.652,0.519,-31.86,2270136
-0.053,-0.652,0.519,-32.837,2270140
-0.101,-0.674,0.555,-29.907,2270144
-0.101,-0.674,0.555,-20.935,2270148
-0.082,-0.712,0.553,-4.15,2270152
-0.082,-0.712,0.553,22.461,2270156
-0.082,-0.712,0.553,22.461,2270160
0.046,-0.681,0.651,60.669,2270164
0.046,-0.681,0.651,112.061,2270168
0.286,-0.65,0.851,181.152,2270172
0.286,-0.65,0.851,270.508,2270176
0.286,-0.65,0.851,270.508,2270180
0.582,-0.681,1.194,394.531,2270184
0.582,-0.681,1.194,523.987,2270188
0.464,-0.538,1.376,620.483,2270192
0.464,-0.538,1.376,685.12,2270196
0.464,-0.538,1.376,685.12,2270200
0.115,-0.464,1.234,729.187,2270204
0.115,-0.464,1.234,763.184,2270208
-0.242,-0.57,1.083,771.301,2270212
-0.242,-0.57,1.083,755.188,2270216
-0.242,-0.57,1.083,755.188,2270220
-0.437,-0.517,0.356,747.986,2270224
-0.437,-0.517,0.356,743.835,2270228
-0.414,-0.674,0.05,704.224,2270232
-0.414,-0.674,0.05,674.316,2270236
-0.784,-0.621,0.472,621.765,2270240
-0.784,-0.621,0.472,621.765,2270244
-0.784,-0.621,0.472,474.609,2270248
-1.092,-0.722,0.609,308.411,2270252
-1.092,-0.722,0.609,184.021,2270256
-0.885,-0.703,0.484,60.852,2270260
-0.885,-0.703,0.484,60.852,2270264
-0.885,-0.703,0.484,-65.308,2270268
-0.41,-0.849,0.405,-126.404,2270272
-0.41,-0.849,0.405,-123.718,2270276
-0.056,-0.942,0.476,-112.61,2270280
-0.056,-0.942,0.476,-112.61,2270284
-0.056,-0.942,0.476,-105.774,2270288
-0.07,-1.116,0.341,-83.74,2270292
-0.07,-1.116,0.341,-45.288,2270296
-0.347,-0.898,0.182,-53.833,2270300
-0.347,-0.898,0.182,-53.833,2270304
-0.347,-0.898,0.182,-93.445,2270308
-0.203,-0.868,0.352,-93.811,2270312
-0.203,-0.868,0.352,-90.332,2270316
0.069,-0.736,0.664,-72.449,2270320
0.069,-0.736,0.664,-51.697,2270324
0.069,-0.736,0.664,-51.697,2270328
0.124,-0.693,0.849,-34.485,2270332
0.124,-0.693,0.849,-5.615,2270336
-0.055,-0.72,0.862,2.258,2270340
-0.055,-0.72,0.862,3.052,2270344
-0.055,-0.72,0.862,3.052,2270348
-0.154,-0.799,0.718,13.794,2270352
-0.154,-0.799,0.718,27.283,2270356
-0.056,-0.869,0.614,35.645,2270360
-0.056,-0.869,0.614,49.683,2270364
-0.056,-0.869,0.614,49.683,2270368
-0.099,-0.899,0.614,64.575,2270372
-0.099,-0.899,0.614,86.243,2270376
-0.077,-0.806,0.609,99.06,2270380
-0.077,-0.806,0.609,107.178,2270384
-0.077,-0.806,0.609,107.178,2270388
-0.008,-0.744,0.595,143.188,2270392
-0.008,-0.744,0.595,159.668,2270396
-0.017,-0.785,0.668,171.753,2270400
-0.017,-0.785,0.668,184.509,2270404
-0.017,-0.785,0.668,184.509,2270408
-0.393,-0.84,0.773,162.292,2270413
-0.393,-0.84,0.773,31.128,2270417
-0.625,-0.735,0.819,-85.144,2270421
-0.625,-0.735,0.819,-74.28,2270425
0.095,-0.685,0.832,-64.941,2270429
0.095,-0.685,0.832,-64.941,2270433
0.095,-0.685,0.832,-52.917,2270437
0.014,-0.727,0.789,-42.053,2270441
0.014,-0.727,0.789,-40.161,2270445
-0.115,-0.708,0.633,-37.292,2270449
-0.115,-0.708,0.633,-37.292,2270453
-0.115,-0.708,0.633,-36.377,2270457
-0.146,-0.711,0.438,-32.288,2270461
-0.146,-0.711,0.438,-28.442,2270465
-0.214,-0.731,0.314,-30.273,2270469
-0.214,-0.731,0.314,-30.273,2270473
-0.214,-0.731,0.314,-36.682,2270477
-0.218,-0.801,0.274,-44.739,2270481
-0.218,-0.801,0.274,-53.162,2270485
-0.176,-0.917,0.339,-62.256,2270489
-0.176,-0.917,0.339,-62.256,2270493
-0.176,-0.917,0.339,-70.19,2270497
-0.109,-0.988,0.412,-73.73,2270501
-0.109,-0.988,0.412,-72.388,2270505
-0.047,-1.007,0.423,-67.81,2270509
-0.047,-1.007,0.423,-61.279,2270513
-0.047,-1.007,0.423,-61.279,2270517
-0.018,-1.015,0.433,-54.26,2270521
-0.018,-1.015,0.433,-46.692,2270525
-0.042,-1.087,0.443,-35.95,2270529
-0.042,-1.087,0.443,-23.804,2270533
-0.042,-1.087,0.443,-23.804,2270537
-0.045,-1.142,0.518,-15.442,2270541
-0.045,-1.142,0.518,-10.925,2270545
0.02,-1.092,0.591,-8.301,2270549
0.02,-1.092,0.591,-6.897,2270553
0.02,-1.092,0.591,-6.897,2270557
-0.025,-0.98,0.545,-5.127,2270561
-0.025,-0.98,0.545,-1.282,2270565
-0.141,-0.846,0.316,8.789,2270569
-0.141,-0.846,0.316,22.949,2270573
-0.141,-0.846,0.316,22.949,2270577
-0.159,-0.85,0.14,27.283,2270581
-0.159,-0.85,0.14,23.193,2270585
-0.081,-1.043,0.259,9.338,2270589
-0.081,-1.043,0.259,-10.498,2270593
-0.081,-1.043,0.259,-10.498,2270597
-0.021,-1.09,0.404,-10.62,2270601
-0.021,-1.09,0.404,-30.579,2270605
0.019,-1.062,0.389,-35.767,2270609
0.019,-1.062,0.389,-28.87,2270613
0.097,-0.99,0.323,-11.536,2270617
0.097,-0.99,0.323,-11.536,2270621
0.097,-0.99,0.323,-22.949,2270625
0.093,-1.002,0.327,-26.367,2270629
0.093,-1.002,0.327,-18.494,2270633
0.15,-0.972,0.407,-7.812,2270637
0.15,-0.972,0.407,-7.812,2270641
0.15,-0.972,0.407,-8.118,2270645
0.129,-0.978,0.417,-8.972,2270649
0.129,-0.978,0.417,-6.653,2270653
0.109,-0.963,0.381,-1.892,2270657
0.109,-0.963,0.381,-1.892,2270661
0.109,-0.963,0.381,6.287,2270665
0.064,-0.888,0.319,12.939,2270669
0.064,-0.888,0.319,16.235,2270673
0.013,-0.896,0.225,21.484,2270677
0.013,-0.896,0.225,21.484,2270681
0.013,-0.896,0.225,29.297,2270685
0.049,-0.962,0.174,41.748,2270689
0.049,-0.962,0.174,56.274,2270693
0.197,-1.031,0.137,87.036,2270697
0.197,-1.031,0.137,87.036,2270701
0.197,-1.031,0.137,130.432,2270705
0.072,-0.949,0.086,174.133,2270709
0.072,-0.949,0.086,203.186,2270713
-0.203,-0.827,-0.021,206.543,2270717
-0.203,-0.827,-0.021,206.543,2270721
-0.203,-0.827,-0.021,193.237,2270725
-0.218,-0.884,-0.039,201.05,2270729
-0.218,-0.884,-0.039,208.008,2270733
-0.349,-0.967,0.025,226.807,2270737
-0.349,-0.967,0.025,209.961,2270741
-0.349,-0.967,0.025,209.961,2270745
-0.19,-0.905,0.1,168.274,2270749
-0.19,-0.905,0.1,166.443,2270753
-0.236,-0.934,-0.022,151.184,2270757
-0.236,-0.934,-0.022,148.193,2270761
-0.236,-0.934,-0.022,148.193,2270765
-0.329,-0.904,-0.105,155.212,2270769
-0.329,-0.904,-0.105,136.353,2270773
-0.021,-0.941,0.006,165.222,2270777
-0.021,-0.941,0.006,224.487,2270781
-0.021,-0.941,0.006,224.487,2270785
-0.14,-0.788,-0.117,257.507,2270789
-0.14,-0.788,-0.117,270.386,2270793
-0.489,-0.791,-0.087,259.277,2270797
-0.489,-0.791,-0.087,237.61,2270801
-0.473,-0.823,-0.003,211.792,2270805
-0.473,-0.823,-0.003,211.792,2270810
-0.473,-0.823,-0.003,196.228,2270814
-0.433,-0.855,-0.089,190.308,2270818
-0.433,-0.855,-0.089,185.425,2270822
-0.66,-0.766,0.259,161.438,2270826
-0.66,-0.766,0.259,161.438,2270830
-0.66,-0.766,0.259,139.404,2270834
-0.623,-0.812,0.096,143.921,2270838
-0.623,-0.812,0.096,133.728,2270842
-0.56,-0.817,-0.14,157.593,2270846
-0.56,-0.817,-0.14,189.331,2270850
-0.56,-0.817,-0.14,189.331,2270854
-0.817,-0.606,-0.108,180.664,2270858
-0.817,-0.606,-0.108,151.245,2270862
-1.002,-0.765,-0.163,122.314,2270867
-1.002,-0.765,-0.163,105.164,2270871
-1.002,-0.765,-0.163,105.164,2270875
-0.933,-0.794,-0.347,95.947,2270879
-0.933,-0.794,-0.347,62.744,2270883
-1.01,-0.693,-0.44,21.606,2270887
-1.01,-0.693,-0.44,4.883,2270891
-0.812,-0.945,-0.545,1.465,2270895
-0.812,-0.945,-0.545,1.465,2270899
-0.812,-0.945,-0.545,-16.235,2270903
-0.594,-1.198,-1.09,-44.739,2270907
-0.594,-1.198,-1.09,-31.555,2270911
-0.858,-0.675,-0.664,-14.16,2270915
-0.858,-0.675,-0.664,-14.16,2270919
-0.858,-0.675,-0.664,-13.489,2270923
-0.896,-0.516,-0.258,3.357,2270927
-0.896,-0.516,-0.258,2.502,2270931
-0.787,-0.611,-0.287,-18.555,2270935
-0.787,-0.611,-0.287,-18.555,2270939
-0.787,-0.611,-0.287,-18.127,2270943
-0.777,-0.752,-0.212,-22.949,2270947
-0.777,-0.752,-0.212,-35.828,2270951
-0.629,-0.836,-0.263,-44.617,2270955
-0.629,-0.836,-0.263,-44.8,2270959
-0.629,-0.836,-0.263,-44.8,2270963
-0.779,-0.598,-0.297,-49.133,2270968
-0.779,-0.598,-0.297,-60.12,2270972
-0.72,-0.699,-0.305,-54.26,2270976
-0.72,-0.699,-0.305,-49.133,2270980
-0.72,-0.699,-0.305,-49.133,2270984
-0.646,-0.721,-0.276,-47.119,2270988
-0.646,-0.721,-0.276,-44.25,2270992
-0.626,-0.725,-0.287,-41.138,2270996
-0.626,-0.725,-0.287,-38.757,2271000
-0.613,-0.76,-0.304,-36.743,2271004
-0.613,-0.76,-0.304,-36.743,2271008
-0.613,-0.76,-0.304,-35.217,2271012
-0.576,-0.785,-0.328,-36.865,2271016
-0.576,-0.785,-0.328,-40.833,2271021
-0.548,-0.842,-0.397,-44.556,2271025
-0.548,-0.842,-0.397,-46.326,2271029
-0.548,-0.842,-0.397,-46.326,2271033
-0.585,-0.898,-0.501,-42.664,2271037
-0.585,-0.898,-0.501,-38.94,2271041
-0.661,-0.84,-0.518,-39.001,2271045
-0.661,-0.84,-0.518,-33.447,2271049
-0.661,-0.84,-0.518,-33.447,2271053
-0.616,-0.683,-0.465,-24.109,2271057
-0.616,-0.683,-0.465,-13.672,2271061
-0.595,-0.539,-0.28,-23.621,2271065
-0.595,-0.539,-0.28,-27.771,2271069
-0.482,-0.663,-0.02,-30.884,2271074
-0.482,-0.663,-0.02,-30.884,2271078
-0.482,-0.663,-0.02,-43.457,2271082
-0.432,-0.916,0.127,-46.509,2271086
-0.432,-0.916,0.127,-76.782,2271090
-0.282,-1.003,0.069,-89.539,2271094
-0.282,-1.003,0.069,-89.539,2271098
-0.282,-1.003,0.069,-83.618,2271102
-0.458,-0.683,0.007,-71.594,2271106
-0.458,-0.683,0.007,-59.692,2271110
-0.329,-0.802,0.09,-74.463,2271114
-0.329,-0.802,0.09,-70.374,2271118
-0.329,-0.802,0.09,-70.374,2271122
-0.385,-0.707,0.145,-61.462,2271126
-0.385,-0.707,0.145,-63.721,2271130
-0.329,-0.682,0.166,-63.171,2271134
-0.329,-0.682,0.166,-65.857,2271138
-0.329,-0.682,0.166,-65.857,2271142
-0.36,-0.678,0.275,-58.411,2271147
-0.36,-0.678,0.275,-50.415,2271151
-0.253,-0.87,0.45,-62.744,2271155
-0.253,-0.87,0.45,-75.989,2271159
-0.193,-1.048,0.543,-69.275,2271163
-0.193,-1.048,0.543,-69.275,2271167
-0.193,-1.048,0.543,-66.589,2271171
-0.09,-1.047,0.518,-78.918,2271175
-0.09,-1.047,0.518,-84.045,2271179
-0.14,-0.91,0.382,-86.304,2271183
-0.14,-0.91,0.382,-86.304,2271187
-0.14,-0.91,0.382,-84.351,2271191
-0.22,-0.732,0.383,-82.703,2271195
-0.22,-0.732,0.383,-78.43,2271199
-0.162,-0.674,0.497,-71.655,2271203
-0.162,-0.674,0.497,-63.721,2271207
-0.162,-0.674,0.497,-63.721,2271211
-0.12,-0.668,0.693,-53.284,2271215
-0.12,-0.668,0.693,-34.058,2271219
-0.073,-0.593,0.736,-0.61,2271223
-0.073,-0.593,0.736,51.086,2271227
-0.073,-0.593,0.736,51.086,2271231
-0.158,-0.703,0.79,84.595,2271235
-0.158,-0.703,0.79,45.41,2271239
-0.319,-0.984,0.885,1.343,2271243
-0.319,-0.984,0.885,-10.01,2271247
-0.319,-0.984,0.885,-10.01,2271251
-0.275,-0.961,0.942,-21.24,2271255
-0.275,-0.961,0.942,-29.846,2271259
-0.261,-0.84,0.857,-29.846,2271263
-0.261,-0.84,0.857,-26.917,2271267
-0.261,-0.84,0.857,-26.917,2271271
-0.265,-0.719,0.761,-20.386,2271275
-0.265,-0.719,0.761,-10.376,2271279
-0.291,-0.731,0.733,-7.507,2271283
-0.291,-0.731,0.733,-1.343,2271287
-0.291,-0.731,0.733,-1.343,2271291
-0.284,-0.763,0.752,2.441,2271295
-0.284,-0.763,0.752,2.38,2271299
-0.254,-0.739,0.759,-0.671,2271303
-0.254,-0.739,0.759,-0.854,2271307
-0.29,-0.793,0.718,-0.427,2271311
-0.29,-0.793,0.718,-0.427,2271315
-0.29,-0.793,0.718,-5.615,2271319
-0.353,-0.833,0.677,-11.597,2271323
-0.353,-0.833,0.677,-13.672,2271327
-0.31,-0.818,0.647,-11.78,2271331
-0.31,-0.818,0.647,-11.78,2271335
-0.31,-0.818,0.647,12.512,2271339
0.097,-0.618,0.639,123.291,2271343
0.097,-0.618,0.639,202.698,2271347
-0.539,-0.658,0.66,122.742,2271351
-0.539,-0.658,0.66,122.742,2271355
-0.539,-0.658,0.66,61.646,2271359
-0.531,-0.668,0.731,39.612,2271363
-0.531,-0.668,0.731,24.109,2271367
-0.363,-0.634,0.908,10.559,2271371
-0.363,-0.634,0.908,10.559,2271375
-0.363,-0.634,0.908,7.385,2271379
-0.284,-0.622,1.122,7.874,2271383
-0.284,-0.622,1.122,5.859,2271387
-0.258,-0.622,1.311,9.094,2271391
-0.258,-0.622,1.311,9.094,2271395
-0.258,-0.622,1.311,11.353,2271399
-0.231,-0.521,1.413,14.709,2271403
-0.231,-0.521,1.413,23.438,2271407
-0.272,-0.433,1.193,28.015,2271411
-0.272,-0.433,1.193,28.015,2271415
-0.272,-0.433,1.193,28.625,2271419
-0.252,-0.505,1.02,32.776,2271423
-0.252,-0.505,1.02,43.884,2271427
-0.212,-0.61,1.127,50.964,2271431
-0.212,-0.61,1.127,63.477,2271435
-0.212,-0.61,1.127,63.477,2271439
-0.182,-0.511,1.038,83.13,2271443
-0.182,-0.511,1.038,89.661,2271447
-0.25,-0.408,0.861,116.577,2271451
-0.25,-0.408,0.861,140.93,2271455
-0.25,-0.408,0.861,140.93,2271460
-0.517,-0.413,0.824,117.432,2271464
-0.517,-0.413,0.824,103.149,2271468
-0.381,-0.44,0.724,109.497,2271472
-0.381,-0.44,0.724,113.464,2271476
-0.381,-0.44,0.724,113.464,2271480
-0.382,-0.471,0.683,115.662,2271484
-0.382,-0.471,0.683,127.319,2271488
-0.503,-0.567,0.699,120.605,2271492
-0.503,-0.567,0.699,113.586,2271496
-0.503,-0.567,0.699,113.586,2271500
-0.448,-0.595,0.742,113.037,2271504
-0.448,-0.595,0.742,114.929,2271508
-0.346,-0.565,0.708,121.216,2271512
-0.346,-0.565,0.708,131.47,2271516
-0.312,-0.5,0.689,143.494,2271520
-0.312,-0.5,0.689,143.494,2271524
-0.312,-0.5,0.689,153.564,2271528
-0.395,-0.458,0.73,156.616,2271532
-0.395,-0.458,0.73,153.259,2271536
-0.328,-0.438,0.931,154.968,2271540
-0.328,-0.438,0.931,154.968,2271544
-0.328,-0.438,0.931,178.894,2271548
-0.242,-0.394,0.521,205.75,2271552
-0.242,-0.394,0.521,237.0,2271556
-0.266,-0.33,0.396,268.86,2271560
-0.266,-0.33,0.396,268.86,2271564
-0.266,-0.33,0.396,305.115,2271568
-0.418,-0.316,0.322,345.276,2271572
-0.418,-0.316,0.322,371.033,2271576
-0.576,-0.216,0.333,330.811,2271580
-0.576,-0.216,0.333,311.218,2271584
-0.576,-0.216,0.333,311.218,2271588
-0.817,-0.229,0.147,314.392,2271592
-0.817,-0.229,0.147,305.298,2271596
-0.971,-0.161,0.022,303.528,2271600
-0.971,-0.161,0.022,306.335,2271604
-0.971,-0.161,0.022,306.335,2271608
-0.97,-0.056,-0.124,335.632,2271612
-0.97,-0.056,-0.124,364.258,2271616
-1.014,-0.069,-0.223,362.061,2271620
-1.014,-0.069,-0.223,327.637,2271624
-1.014,-0.069,-0.223,327.637,2271629
-1.183,-0.191,-0.181,317.444,2271633
-1.183,-0.191,-0.181,283.875,2271637
-1.421,-0.427,-0.255,250.671,2271641
-1.421,-0.427,-0.255,211.67,2271645
-1.054,-0.249,-0.318,196.716,2271649
-1.054,-0.249,-0.318,196.716,2271653
-1.054,-0.249,-0.318,201.721,2271657
-1.021,-0.258,-0.538,188.904,2271661
-1.021,-0.258,-0.538,164.124,2271665
-1.249,-0.281,-0.742,130.188,2271669
-1.249,-0.281,-0.742,130.188,2271673
-1.249,-0.281,-0.742,85.754,2271677
-1.324,-0.15,-0.646,50.293,2271681
-1.324,-0.15,-0.646,26.794,2271685
-1.219,-0.128,-0.532,11.963,2271689
-1.219,-0.128,-0.532,11.963,2271693
-1.219,-0.128,-0.532,5.127,2271697
-1.184,-0.144,-0.514,0.061,2271701
-1.184,-0.144,-0.514,-5.371,2271705
-1.215,-0.143,-0.531,-9.705,2271709
-1.215,-0.143,-0.531,-9.705,2271713
-1.215,-0.143,-0.531,-17.09,2271717
-1.271,-0.141,-0.515,-27.893,2271721
-1.271,-0.141,-0.515,-38.879,2271725
-1.27,-0.205,-0.467,-42.175,2271729
-1.27,-0.205,-0.467,-48.462,2271733
-1.27,-0.205,-0.467,-48.462,2271737
-1.321,-0.218,-0.496,-60.364,2271741
-1.321,-0.218,-0.496,-72.449,2271745
-1.316,-0.19,-0.54,-86.914,2271749
-1.316,-0.19,-0.54,-98.145,2271753
-1.316,-0.19,-0.54,-98.145,2271757
-1.227,-0.128,-0.551,-106.934,2271761
-1.227,-0.128,-0.551,-108.887,2271765
-1.16,-0.123,-0.546,-104.187,2271770
-1.16,-0.123,-0.546,-105.713,2271774
-1.26,-0.152,-0.559,-109.741,2271778
-1.26,-0.152,-0.559,-109.741,2271782
-1.26,-0.152,-0.559,-121.155,2271786
-1.341,-0.227,-0.498,-136.841,2271790
-1.341,-0.227,-0.498,-154.602,2271794
-1.262,-0.294,-0.301,-172.607,2271798
-1.262,-0.294,-0.301,-172.607,2271802
-1.262,-0.294,-0.301,-184.631,2271806
-1.119,-0.286,-0.086,-166.077,2271810
-1.119,-0.286,-0.086,-154.236,2271814
-0.96,-0.243,-0.151,-168.335,2271818
-0.96,-0.243,-0.151,-168.335,2271822
-0.96,-0.243,-0.151,-170.41,2271826
-0.859,-0.107,-0.148,-167.969,2271830
-0.859,-0.107,-0.148,-162.354,2271834
-0.74,-0.003,-0.103,-154.053,2271838
-0.74,-0.003,-0.103,-148.376,2271842
-0.74,-0.003,-0.103,-148.376,2271846
-0.655,-0.07,0.027,-144.897,2271850
-0.655,-0.07,0.027,-141.235,2271854
-0.642,-0.242,0.173,-140.137,2271858
-0.642,-0.242,0.173,-140.137,2271862
-0.642,-0.242,0.173,-140.137,2271867
-0.652,-0.418,0.315,-141.418,2271871
-0.652,-0.418,0.315,-146.179,2271875
-0.532,-0.416,0.443,-152.832,2271879
-0.532,-0.416,0.443,-160.828,2271883
-0.44,-0.301,0.532,-174.255,2271887
-0.44,-0.301,0.532,-174.255,2271891
-0.44,-0.301,0.532,-225.403,2271895
-0.535,-0.266,0.589,-299.744,2271899
-0.535,-0.266,0.589,-313.538,2271903
-0.256,-0.645,0.815,-307.922,2271907
-0.256,-0.645,0.815,-307.922,2271911
-0.256,-0.645,0.815,-349.487,2271915
-0.289,-0.656,0.86,-403.442,2271919
-0.289,-0.656,0.86,-407.593,2271923
0.182,-0.992,0.929,-334.778,2271927
0.182,-0.992,0.929,-334.778,2271931
0.182,-0.992,0.929,-244.995,2271935
0.133,-0.925,0.913,-176.88,2271939
0.133,-0.925,0.913,-163.147,2271943
-0.141,-0.928,0.604,-163.269,2271947
-0.141,-0.928,0.604,-132.874,2271951
-0.141,-0.928,0.604,-132.874,2271955
-0.062,-0.766,0.769,-104.004,2271959
-0.062,-0.766,0.769,-86.853,2271963
-0.11,-0.735,0.988,-73.486,2271967
-0.11,-0.735,0.988,-44.739,2271971
-0.11,-0.735,0.988,-44.739,2271975
-0.085,-0.688,1.156,-17.273,2271979
-0.085,-0.688,1.156,-1.099,2271983
-0.084,-0.764,1.356,16.113,2271987
-0.084,-0.764,1.356,44.617,2271991
-0.084,-0.764,1.356,44.617,2271995
0.034,-0.791,1.433,77.698,2271999
0.034,-0.791,1.433,108.948,2272003
0.049,-0.733,1.378,137.207,2272007
0.049,-0.733,1.378,159.485,2272011
0.049,-0.733,1.378,159.485,2272015
-0.035,-0.698,1.279,173.645,2272020
-0.035,-0.698,1.279,182.739,2272024
-0.15,-0.468,1.244,203.369,2272028
-0.15,-0.468,1.244,195.618,2272032
-0.427,-0.551,1.066,146.912,2272036
-0.427,-0.551,1.066,146.912,2272040
-0.427,-0.551,1.066,99.67,2272044
-0.14,-0.627,1.092,111.267,2272048
-0.14,-0.627,1.092,183.716,2272052
0.061,-0.559,1.033,246.216,2272056
0.061,-0.559,1.033,246.216,2272060
0.061,-0.559,1.033,263.184,2272064
-0.38,-0.401,0.709,262.939,2272068
-0.38,-0.401,0.709,258.24,2272072
-0.503,-0.402,0.453,249.939,2272076
-0.503,-0.402,0.453,249.939,2272080
-0.503,-0.402,0.453,244.629,2272084
-0.567,-0.363,0.353,251.587,2272088
-0.567,-0.363,0.353,255.859,2272092
-0.717,-0.243,0.253,256.348,2272096
-0.717,-0.243,0.253,256.348,2272100
-0.717,-0.243,0.253,263.0,2272104
-0.831,-0.124,0.033,268.311,2272108
-0.831,-0.124,0.033,265.015,2272112
-0.983,-0.028,-0.111,251.709,2272116
-0.983,-0.028,-0.111,234.68,2272120
-0.983,-0.028,-0.111,234.68,2272124
-1.066,0.082,-0.162,213.745,2272128
-1.066,0.082,-0.162,196.228,2272132
-1.076,0.067,-0.291,195.557,2272136
-1.076,0.067,-0.291,213.989,2272140
-1.076,0.067,-0.291,213.989,2272144
-1.126,0.208,-0.712,230.835,2272148
-1.126,0.208,-0.712,247.009,2272152
-1.061,0.603,-1.469,243.103,2272156
-1.061,0.603,-1.469,224.487,2272160
-1.061,0.603,-1.469,224.487,2272164
-1.421,0.873,-2.149,210.754,2272168
-1.421,0.873,-2.149,183.899,2272172
-1.805,0.863,-2.253,165.894,2272176
-1.805,0.863,-2.253,144.531,2272180
-2.195,0.569,-1.167,109.619,2272184
-2.195,0.569,-1.167,109.619,2272188
-2.195,0.569,-1.167,46.692,2272192
-2.668,0.365,0.699,-139.893,2272197
-2.668,0.365,0.699,-344.36,2272201
-1.622,0.253,0.884,-400.024,2272205
-1.622,0.253,0.884,-400.024,2272209
-1.622,0.253,0.884,-333.862,2272213
-0.936,0.013,0.065,-246.643,2272217
-0.936,0.013,0.065,-217.407,2272221
-1.411,0.435,-0.419,-255.249,2272225
-1.411,0.435,-0.419,-255.249,2272229
-1.411,0.435,-0.419,-316.284,2272233
-1.369,0.562,-0.6,-368.591,2272237
-1.369,0.562,-0.6,-408.325,2272241
-1.014,0.331,-0.14,-437.317,2272245
-1.014,0.331,-0.14,-455.383,2272249
-1.014,0.331,-0.14,-455.383,2272253
-0.774,0.144,0.393,-464.478,2272257
-0.774,0.144,0.393,-465.576,2272261
-0.588,0.032,0.553,-459.473,2272265
-0.588,0.032,0.553,-449.951,2272269
-0.588,0.032,0.553,-449.951,2272273
-0.445,-0.095,0.492,-443.054,2272277
-0.445,-0.095,0.492,-440.491,2272281
-0.38,-0.242,0.432,-447.51,2272285
-0.38,-0.242,0.432,-463.928,2272289
-0.23,-0.328,0.499,-477.722,2272293
-0.23,-0.328,0.499,-477.722,2272297
-0.23,-0.328,0.499,-480.347,2272302
-0.001,-0.364,0.673,-472.29,2272306
-0.001,-0.364,0.673,-456.97,2272310
0.083,-0.452,0.849,-437.317,2272314
0.083,-0.452,0.849,-437.317,2272318
0.083,-0.452,0.849,-416.992,2272322
0.089,-0.415,0.918,-398.254,2272326
0.089,-0.415,0.918,-382.935,2272330
0.161,-0.407,0.836,-369.568,2272334
0.161,-0.407,0.836,-369.568,2272338
0.161,-0.407,0.836,-351.868,2272342
0.406,-0.561,0.985,-322.388,2272346
0.406,-0.561,0.985,-271.729,2272350
0.768,-0.654,1.343,-194.214,2272354
0.768,-0.654,1.343,-118.042,2272358
0.768,-0.654,1.343,-118.042,2272362
0.794,-0.714,1.635,-58.533,2272366
0.794,-0.714,1.635,-6.775,2272370
0.737,-0.923,1.751,42.603,2272374
0.737,-0.923,1.751,87.952,2272378
0.737,-0.923,1.751,87.952,2272382
0.614,-1.054,1.645,126.099,2272386
0.614,-1.054,1.645,150.635,2272390
0.388,-0.953,1.322,169.8,2272394
0.388,-0.953,1.322,190.125,2272398
0.388,-0.953,1.322,190.125,2272402
0.163,-0.836,1.101,204.224,2272406
0.163,-0.836,1.101,209.351,2272410
-0.022,-0.788,1.058,209.778,2272414
-0.022,-0.788,1.058,211.487,2272418
-0.022,-0.788,1.058,211.487,2272422
-0.072,-0.724,1.044,218.384,2272426
-0.072,-0.724,1.044,229.248,2272430
-0.076,-0.583,0.942,242.859,2272434
-0.076,-0.583,0.942,256.226,2272438
-0.124,-0.512,0.856,268.433,2272442
-0.124,-0.512,0.856,268.433,2272446
-0.124,-0.512,0.856,281.738,2272450
-0.171,-0.478,0.833,296.631,2272454
-0.171,-0.478,0.833,313.171,2272458
-0.181,-0.403,0.752,330.383,2272462
-0.181,-0.403,0.752,330.383,2272466
-0.181,-0.403,0.752,346.558,2272470
-0.283,-0.337,0.668,359.619,2272474
-0.283,-0.337,0.668,369.934,2272479
-0.458,-0.237,0.571,378.906,2272483
-0.458,-0.237,0.571,378.906,2272487
-0.458,-0.237,0.571,381.531,2272491
-0.658,-0.158,0.445,375.916,2272495
-0.658,-0.158,0.445,368.103,2272499
-0.841,-0.057,0.198,360.168,2272503
-0.841,-0.057,0.198,360.168,2272507
-0.841,-0.057,0.198,350.159,2272511
-1.083,0.061,-0.119,333.862,2272515
-1.083,0.061,-0.119,311.951,2272519
-1.339,0.173,-0.388,287.231,2272523
-1.339,0.173,-0.388,260.803,2272527
-1.339,0.173,-0.388,260.803,2272531
-1.45,0.262,-0.622,231.995,2272535
-1.45,0.262,-0.622,203.857,2272539
-1.51,0.332,-0.778,179.321,2272543
-1.51,0.332,-0.778,157.41,2272547
-1.51,0.332,-0.778,157.41,2272551
-1.622,0.436,-0.844,137.39,2272555
-1.622,0.436,-0.844,116.516,2272559
-1.775,0.469,-0.838,87.646,2272563
-1.775,0.469,-0.838,46.448,2272567
-1.775,0.469,-0.838,46.448,2272571
-1.825,0.315,-0.881,2.502,2272575
-1.825,0.315,-0.881,-61.523,2272579
-1.68,0.276,-0.672,-128.174,2272583
-1.68,0.276,-0.672,-154.846,2272587
-1.542,0.172,-0.191,-158.508,2272591
-1.542,0.172,-0.191,-158.508,2272595
-1.542,0.172,-0.191,-195.862,2272599
-1.569,0.075,0.226,-258.301,2272603
-1.569,0.075,0.226,-303.894,2272607
-1.225,-0.061,0.161,-318.481,2272611
-1.225,-0.061,0.161,-318.481,2272615
-1.225,-0.061,0.161,-318.237,2272619
-1.049,-0.128,0.012,-321.045,2272623
-1.049,-0.128,0.012,-334.412,2272627
-1.065,-0.07,0.067,-354.797,2272631
-1.065,-0.07,0.067,-354.797,2272635
-1.065,-0.07,0.067,-380.005,2272639
-0.905,-0.083,0.235,-408.386,2272644
-0.905,-0.083,0.235,-429.321,2272648
-0.621,-0.199,0.379,-442.505,2272652
-0.621,-0.199,0.379,-450.928,2272656
-0.621,-0.199,0.379,-450.928,2272660
-0.429,-0.338,0.557,-453.918,2272664
-0.429,-0.338,0.557,-452.637,2272668
-0.223,-0.3,0.723,-448.914,2272672
-0.223,-0.3,0.723,-440.674,2272676
-0.223,-0.3,0.723,-440.674,2272680
-0.004,-0.23,0.774,-426.331,2272684
-0.004,-0.23,0.774,-408.813,2272688
0.124,-0.109,0.772,-397.949,2272692
0.124,-0.109,0.772,-405.701,2272696
0.124,-0.109,0.772,-405.701,2272700
0.321,-0.067,0.841,-420.349,2272704
0.321,-0.067,0.841,-434.265,2272708
0.75,-0.373,1.13,-435.73,2272712
0.75,-0.373,1.13,-375.61,2272716
1.791,-1.034,1.876,-193.115,2272720
1.791,-1.034,1.876,-193.115,2272724
1.791,-1.034,1.876,48.706,2272728
1.341,-1.153,2.362,160.217,2272732
1.341,-1.153,2.362,114.99,2272736
0.483,-1.151,2.09,92.896,2272740
0.483,-1.151,2.09,92.896,2272744
0.483,-1.151,2.09,140.747,2272748
0.653,-1.083,1.552,185.242,2272752
0.653,-1.083,1.552,203.979,2272756
0.367,-0.935,1.362,218.994,2272760
0.367,-0.935,1.362,218.994,2272764
0.367,-0.935,1.362,237.0,2272768
0.175,-0.79,1.343,251.587,2272772
0.175,-0.79,1.343,261.108,2272776
0.119,-0.623,1.11,271.301,2272780
0.119,-0.623,1.11,271.301,2272784
0.119,-0.623,1.11,286.438,2272788
0.078,-0.523,0.887,300.964,2272792
0.078,-0.523,0.887,312.256,2272796
-0.045,-0.352,0.727,321.899,2272800
-0.045,-0.352,0.727,331.238,2272804
-0.045,-0.352,0.727,331.238,2272808
-0.135,-0.205,0.607,338.074,2272812
-0.135,-0.205,0.607,335.449,2272817
-0.461,-0.176,0.428,300.415,2272821
-0.461,-0.176,0.428,247.803,2272825
-0.461,-0.176,0.428,247.803,2272829
-0.612,-0.146,0.613,221.436,2272833
-0.612,-0.146,0.613,241.638,2272837
-0.553,-0.05,0.71,278.198,2272841
-0.553,-0.05,0.71,294.434,2272845
-0.553,-0.05,0.71,294.434,2272849
-0.973,0.016,0.379,288.086,2272853
-0.973,0.016,0.379,291.016,2272857
-1.155,0.065,0.023,311.584,2272861
-1.155,0.065,0.023,323.059,2272865
-1.155,0.065,0.023,323.059,2272869
-1.254,0.161,-0.238,321.106,2272873
-1.254,0.161,-0.238,321.716,2272877
-1.406,0.222,-0.43,320.862,2272881
-1.406,0.222,-0.43,321.838,2272885
-1.613,0.28,-0.631,328.918,2272889
-1.613,0.28,-0.631,328.918,2272893
-1.613,0.28,-0.631,295.715,2272897
-2.036,0.258,-0.741,215.149,2272901
-2.036,0.258,-0.741,130.005,2272905
-2.075,0.142,-0.654,59.265,2272909
-2.075,0.142,-0.654,59.265,2272913
-2.075,0.142,-0.654,5.737,2272917
-1.75,-0.039,-0.478,-31.921,2272921
-1.75,-0.039,-0.478,-63.904,2272925
-1.705,-0.119,-0.288,-109.192,2272929
-1.705,-0.119,-0.288,-109.192,2272933
-1.705,-0.119,-0.288,-164.673,2272937
-1.711,-0.206,-0.288,-205.566,2272941
-1.711,-0.206,-0.288,-235.718,2272945
-1.584,-0.096,-0.227,-274.963,2272949
-1.584,-0.096,-0.227,-324.585,2272953
-1.584,-0.096,-0.227,-324.585,2272957
-1.43,-0.036,-0.029,-364.685,2272961
-1.43,-0.036,-0.029,-386.047,2272965
-1.042,-0.065,0.211,-382.874,2272969
-1.042,-0.065,0.211,-357.971,2272973
-1.042,-0.065,0.211,-357.971,2272977
-0.669,-0.129,0.382,-318.176,2272981
-0.669,-0.129,0.382,-269.104,2272986
-0.578,-0.273,0.528,-237.427,2272990
-0.578,-0.273,0.528,-229.004,2272994
-0.578,-0.273,0.528,-229.004,2272998
-0.767,-0.332,0.869,-253.479,2273002
-0.767,-0.332,0.869,-294.678,2273006
-0.521,-0.29,0.904,-318.604,2273010
-0.521,-0.29,0.904,-305.847,2273014
-0.085,-0.402,0.729,-271.667,2273018
-0.085,-0.402,0.729,-271.667,2273022
-0.085,-0.402,0.729,-242.737,2273026
-0.086,-0.504,0.796,-229.98,2273030
-0.086,-0.504,0.796,-222.656,2273034
-0.01,-0.531,0.981,-207.458,2273038
-0.01,-0.531,0.981,-207.458,2273042
-0.01,-0.531,0.981,-180.664,2273046
0.257,-0.584,1.103,-145.142,2273050
0.257,-0.584,1.103,-97.534,2273054
0.507,-0.745,1.358,-41.626,2273058
0.507,-0.745,1.358,-41.626,2273062
0.507,-0.745,1.358,8.789,2273066
0.459,-0.979,1.684,48.645,2273070
0.459,-0.979,1.684,80.383,2273074
0.346,-1.131,1.686,109.802,2273078
0.346,-1.131,1.686,135.986,2273082
0.346,-1.131,1.686,135.986,2273086
0.252,-1.178,1.529,154.785,2273090
0.252,-1.178,1.529,170.837,2273094
0.12,-1.083,1.321,183.472,2273098
0.12,-1.083,1.321,186.707,2273102
0.12,-1.083,1.321,186.707,2273106
0.009,-0.855,1.149,196.289,2273110
0.009,-0.855,1.149,200.745,2273114
-0.085,-0.693,1.002,201.233,2273118
-0.085,-0.693,1.002,207.458,2273122
-0.085,-0.693,1.002,207.458,2273126
-0.138,-0.518,0.839,218.933,2273130
-0.138,-0.518,0.839,227.539,2273134
-0.292,-0.338,0.703,231.628,2273138
-0.292,-0.338,0.703,233.337,2273142
-0.292,-0.338,0.703,233.337,2273146
-0.44,-0.216,0.515,238.77,2273150
-0.44,-0.216,0.515,241.638,2273154
-0.394,0.048,0.4,256.165,2273158
-0.394,0.048,0.4,292.725,2273163
-0.276,0.626,0.245,360.352,2273167
-0.276,0.626,0.245,360.352,2273171
-0.276,0.626,0.245,510.986,2273175
-0.76,0.286,0.112,652.283,2273179
-0.76,0.286,0.112,694.092,2273183
-2.281,0.41,0.049,578.613,2273187
-2.281,0.41,0.049,578.613,2273191
-2.281,0.41,0.049,416.87,2273195
-2.498,0.861,-0.536,286.987,2273199
-2.498,0.861,-0.536,189.27,2273203
-2.011,0.768,-1.242,128.967,2273207
-2.011,0.768,-1.242,128.967,2273211
-2.011,0.768,-1.242,98.755,2273215
-1.946,0.603,-1.521,63.904,2273219
-1.946,0.603,-1.521,7.202,2273223
-2.1,0.427,-0.998,-51.514,2273227
-2.1,0.427,-0.998,-51.514,2273231
-2.1,0.427,-0.998,-94.177,2273235
-1.918,0.201,-0.366,-126.465,2273239
-1.918,0.201,-0.366,-160.095,2273243
-1.764,0.119,-0.103,-197.266,2273247
-1.764,0.119,-0.103,-228.577,2273251
-1.764,0.119,-0.103,-228.577,2273255
-1.573,0.167,-0.115,-252.625,2273259
-1.573,0.167,-0.115,-274.475,2273263
-1.303,0.244,-0.085,-292.053,2273267
-1.303,0.244,-0.085,-304.382,2273271
-1.303,0.244,-0.085,-304.382,2273275
-1.073,0.216,-0.044,-315.063,2273279
-1.073,0.216,-0.044,-326.294,2273283
-0.917,0.167,0.043,-338.623,2273287
-0.917,0.167,0.043,-352.844,2273291
-0.917,0.167,0.043,-352.844,2273295
-0.769,0.099,0.223,-371.155,2273299
-0.769,0.099,0.223,-385.864,2273303
-0.57,-0.025,0.4,-396.606,2273307
-0.57,-0.025,0.4,-414.795,2273311
-0.354,-0.144,0.541,-427.979,2273315
-0.354,-0.144,0.541,-427.979,2273320
-0.354,-0.144,0.541,-421.509,2273324
-0.048,-0.24,0.752,-403.076,2273328
-0.048,-0.24,0.752,-379.7,2273332
0.104,-0.31,0.898,-355.225,2273336
0.104,-0.31,0.898,-355.225,2273340
0.104,-0.31,0.898,-347.839,2273344
0.159,-0.335,0.828,-351.929,2273348
0.159,-0.335,0.828,-332.825,2273352
0.425,-0.396,0.85,-298.035,2273356
0.425,-0.396,0.85,-298.035,2273360
0.425,-0.396,0.85,-266.357,2273364
0.563,-0.56,1.164,-237.976,2273368
0.563,-0.56,1.164,-203.857,2273372
0.695,-0.789,1.523,-160.339,2273376
0.695,-0.789,1.523,-109.375,2273380
0.695,-0.789,1.523,-109.375,2273384
0.837,-0.955,1.843,-51.453,2273388
0.837,-0.955,1.843,9.46,2273392
0.828,-1.127,2.121,67.261,2273396
0.828,-1.127,2.121,118.408,2273400
0.828,-1.127,2.121,118.408,2273404
0.724,-1.124,2.08,163.818,2273408
0.724,-1.124,2.08,208.984,2273412
0.537,-0.873,1.722,253.418,2273416
0.537,-0.873,1.722,263.0,2273420
0.537,-0.873,1.722,263.0,2273424
0.185,-0.678,1.263,247.498,2273428
0.185,-0.678,1.263,249.207,2273432
0.179,-0.565,0.974,261.658,2273436
0.179,-0.565,0.974,269.165,2273440
0.073,-0.414,0.974,275.757,2273444
0.073,-0.414,0.974,275.757,2273448
0.073,-0.414,0.974,287.903,2273452
-0.06,-0.292,0.952,304.565,2273456
-0.06,-0.292,0.952,321.96,2273460
-0.25,-0.167,0.827,339.172,2273464
-0.25,-0.167,0.827,339.172,2273468
-0.25,-0.167,0.827,353.821,2273472
-0.453,-0.007,0.638,365.417,2273476
-0.453,-0.007,0.638,375.244,2273480
-0.641,0.109,0.455,382.141,2273484
-0.641,0.109,0.455,382.141,2273488
-0.641,0.109,0.455,383.606,2273492
-0.846,0.192,0.306,380.371,2273496
-0.846,0.192,0.306,374.573,2273500
-0.997,0.302,0.124,366.699,2273504
-0.997,0.302,0.124,366.699,2273509
-0.997,0.302,0.124,357.544,2273513
-1.182,0.374,-0.121,346.008,2273517
-1.182,0.374,-0.121,328.064,2273521
-1.51,0.375,-0.351,301.208,2273525
-1.51,0.375,-0.351,263.977,2273529
-1.51,0.375,-0.351,263.977,2273533
-1.794,0.335,-0.569,216.919,2273537
-1.794,0.335,-0.569,172.668,2273541
-1.92,0.335,-0.717,136.169,2273545
-1.92,0.335,-0.717,98.511,2273549
-1.92,0.335,-0.717,98.511,2273553
-2.088,0.326,-0.724,52.612,2273557
-2.088,0.326,-0.724,-1.709,2273561
-2.167,0.285,-0.674,-61.218,2273565
-2.167,0.285,-0.674,-118.835,2273569
-2.167,0.285,-0.674,-118.835,2273573
-2.023,0.249,-0.567,-168.457,2273577
-2.023,0.249,-0.567,-207.764,2273581
-1.758,0.274,-0.344,-241.577,2273585
-1.758,0.274,-0.344,-271.851,2273589
-1.511,0.28,-0.141,-298.035,2273593
-1.511,0.28,-0.141,-298.035,2273597
-1.511,0.28,-0.141,-321.411,2273601
-1.279,0.249,-0.047,-342.285,2273605
-1.279,0.249,-0.047,-359.253,2273609
-0.995,0.229,0.055,-369.507,2273613
-0.995,0.229,0.055,-369.507,2273617
-0.995,0.229,0.055,-374.512,2273621
-0.75,0.149,0.236,-379.15,2273625
-0.75,0.149,0.236,-384.766,2273629
-0.566,-0.0,0.443,-391.479,2273633
-0.566,-0.0,0.443,-391.479,2273637
-0.566,-0.0,0.443,-398.071,2273641
-0.385,-0.177,0.621,-403.198,2273645
-0.385,-0.177,0.621,-406.738,2273649
-0.252,-0.254,0.721,-406.006,2273654
-0.252,-0.254,0.721,-404.785,2273658
-0.252,-0.254,0.721,-404.785,2273662
-0.189,-0.26,0.73,-407.41,2273666
-0.189,-0.26,0.73,-412.842,2273670
-0.074,-0.269,0.741,-416.687,2273674
-0.074,-0.269,0.741,-415.344,2273678
-0.074,-0.269,0.741,-415.344,2273682
0.138,-0.206,0.817,-410.461,2273686
0.138,-0.206,0.817,-401.001,2273690
0.45,-0.215,0.971,-382.874,2273694
0.45,-0.215,0.971,-354.736,2273698
0.45,-0.215,0.971,-354.736,2273702
0.808,-0.334,1.137,-317.139,2273706
0.808,-0.334,1.137,-273.743,2273710
1.119,-0.538,1.339,-229.004,2273714
1.119,-0.538,1.339,-186.157,2273718
1.229,-0.876,1.663,-145.142,2273722
1.229,-0.876,1.663,-145.142,2273726
1.229,-0.876,1.663,-103.027,2273730
1.21,-1.088,1.985,-55.237,2273734
1.21,-1.088,1.985,-1.16,2273738
1.099,-1.01,2.036,52.368,2273742
1.099,-1.01,2.036,52.368,2273746
1.099,-1.01,2.036,99.365,2273750
0.814,-0.832,1.727,134.46,2273754
0.814,-0.832,1.727,157.532,2273758
0.537,-0.673,1.319,172.668,2273762
0.537,-0.673,1.319,172.668,2273766
0.537,-0.673,1.319,183.411,2273770
0.44,-0.502,1.09,193.604,2273774
0.44,-0.502,1.09,206.909,2273778
0.313,-0.375,1.022,222.29,2273782
0.313,-0.375,1.022,222.29,2273786
0.313,-0.375,1.022,233.948,2273790
0.047,-0.3,1.01,244.263,2273794
0.047,-0.3,1.01,257.507,2273798
-0.202,-0.224,0.916,272.705,2273802
-0.202,-0.224,0.916,272.705,2273806
-0.202,-0.224,0.916,282.837,2273810
-0.566,-0.204,0.815,285.4,2273814
-0.566,-0.204,0.815,282.593,2273818
-0.897,-0.232,0.689,276.611,2273822
-0.897,-0.232,0.689,267.334,2273826
-0.897,-0.232,0.689,267.334,2273830
-1.16,-0.279,0.563,252.869,2273834
-1.16,-0.279,0.563,235.535,2273838
-1.308,-0.271,0.427,218.811,2273843
-1.308,-0.271,0.427,201.477,2273847
-1.308,-0.271,0.427,201.477,2273851
-1.446,-0.255,0.257,178.955,2273855
-1.446,-0.255,0.257,148.132,2273859
-1.657,-0.354,0.136,109.802,2273863
-1.657,-0.354,0.136,64.88,2273867
-1.657,-0.354,0.136,64.88,2273871
-1.759,-0.44,0.123,16.113,2273875
-1.759,-0.44,0.123,-31.494,2273879
-1.669,-0.428,0.195,-73.975,2273883
-1.669,-0.428,0.195,-113.159,2273887
-1.496,-0.421,0.309,-150.33,2273891
-1.496,-0.421,0.309,-150.33,2273895
-1.496,-0.421,0.309,-182.8,2273899
-1.297,-0.404,0.41,-211.06,2273903
-1.297,-0.404,0.41,-235.962,2273907
-1.089,-0.356,0.437,-257.935,2273911
-1.089,-0.356,0.437,-257.935,2273915
-1.089,-0.356,0.437,-278.137,2273919
-0.849,-0.299,0.479,-295.288,2273923
-0.849,-0.299,0.479,-308.167,2273927
-0.622,-0.298,0.573,-318.726,2273931
-0.622,-0.298,0.573,-318.726,2273935
-0.622,-0.298,0.573,-328.369,2273939
-0.432,-0.276,0.674,-335.266,2273943
-0.432,-0.276,0.674,-339.966,2273947
-0.256,-0.209,0.741,-351.135,2273951
-0.256,-0.209,0.741,-361.694,2273955
-0.256,-0.209,0.741,-361.694,2273959
-0.064,-0.197,0.828,-370.544,2273963
-0.064,-0.197,0.828,-374.329,2273968
0.192,-0.245,0.885,-370.361,2273972
0.192,-0.245,0.885,-365.662,2273976
0.192,-0.245,0.885,-365.662,2273980
0.495,-0.276,0.935,-359.009,2273984
0.495,-0.276,0.935,-346.008,2273988
0.802,-0.323,0.972,-322.083,2273992
0.802,-0.323,0.972,-292.175,2273996
0.981,-0.343,0.973,-262.39,2274000
0.981,-0.343,0.973,-262.39,2274004
0.981,-0.343,0.973,-233.704,2274008
1.063,-0.281,0.917,-208.13,2274012
1.063,-0.281,0.917,-189.758,2274016
1.165,-0.272,0.903,-173.828,2274020
1.165,-0.272,0.903,-173.828,2274024
1.165,-0.272,0.903,-152.832,2274028
1.312,-0.321,0.97,-118.408,2274032
1.312,-0.321,0.97,-68.176,2274036
1.352,-0.317,0.963,-16.968,2274040
1.352,-0.317,0.963,-16.968,2274044
1.352,-0.317,0.963,23.193,2274048
1.221,-0.307,0.981,54.443,2274052
1.221,-0.307,0.981,79.468,2274056
1.079,-0.208,0.957,98.45,2274060
1.079,-0.208,0.957,98.45,2274064
1.079,-0.208,0.957,112.488,2274068
0.939,-0.102,0.895,123.962,2274072
0.939,-0.102,0.895,134.399,2274076
0.826,-0.077,0.853,147.949,2274080
0.826,-0.077,0.853,147.949,2274084
0.826,-0.077,0.853,167.908,2274088
0.68,-0.084,0.865,190.063,2274092
0.68,-0.084,0.865,214.111,2274096
0.418,-0.066,0.896,233.826,2274100
0.418,-0.066,0.896,232.849,2274104
0.418,-0.066,0.896,232.849,2274108
0.096,-0.081,0.919,224.121,2274112
0.096,-0.081,0.919,225.098,2274116
-0.239,-0.275,0.944,212.341,2274120
-0.239,-0.275,0.944,201.294,2274124
-0.239,-0.275,0.944,201.294,2274128
-0.73,-0.434,0.951,212.036,2274132
-0.73,-0.434,0.951,211.121,2274136
-1.276,-0.741,1.184,187.439,2274140
-1.276,-0.741,1.184,168.823,2274144
-1.276,-0.741,1.184,168.823,2274148
-1.463,-1.111,1.515,154.846,2274152
-1.463,-1.111,1.515,132.507,2274156
-1.486,-1.186,1.561,99.304,2274160
-1.486,-1.186,1.561,58.167,2274164
-1.486,-1.186,1.561,58.167,2274168
-1.245,-1.052,1.023,22.705,2274172
-1.245,-1.052,1.023,-11.597,2274176
-0.89,-0.827,0.613,-46.448,2274180
-0.89,-0.827,0.613,-81.543,2274184
-0.702,-0.834,0.585,-114.258,2274188
-0.702,-0.834,0.585,-114.258,2274192
-0.702,-0.834,0.585,-144.226,2274196
-0.56,-0.859,0.732,-168.274,2274201
-0.56,-0.859,0.732,-185.364,2274205
-0.442,-0.754,0.824,-199.463,2274209
-0.442,-0.754,0.824,-199.463,2274213
-0.442,-0.754,0.824,-215.637,2274217
-0.312,-0.714,0.823,-229.492,2274221
-0.312,-0.714,0.823,-234.924,2274225
-0.132,-0.675,0.901,-234.009,2274229
-0.132,-0.675,0.901,-234.009,2274233
-0.132,-0.675,0.901,-239.258,2274237
-0.073,-0.421,0.981,-265.32,2274241
-0.073,-0.421,0.981,-275.635,2274245
0.127,-0.377,0.911,-261.047,2274249
0.127,-0.377,0.911,-241.821,2274253
0.127,-0.377,0.911,-241.821,2274257
0.239,-0.348,0.903,-231.567,2274261
0.239,-0.348,0.903,-227.051,2274265
0.411,-0.191,0.792,-218.079,2274269
0.411,-0.191,0.792,-202.576,2274273
0.411,-0.191,0.792,-202.576,2274277
0.64,-0.091,0.6,-183.472,2274281
0.64,-0.091,0.6,-166.748,2274285
0.816,0.023,0.552,-157.776,2274289
0.816,0.023,0.552,-151.306,2274293
0.816,0.023,0.552,-151.306,2274297
1.161,0.142,0.537,-136.353,2274301
1.161,0.142,0.537,-114.868,2274305
1.523,0.135,0.646,-85.205,2274309
1.523,0.135,0.646,-51.636,2274313
1.788,0.095,0.911,-13.489,2274317
1.788,0.095,0.911,-13.489,2274321
1.788,0.095,0.911,52.124,2274325
1.843,0.021,1.045,131.592,2274329
1.843,0.021,1.045,196.899,2274333
1.459,0.102,0.928,242.981,2274337
1.459,0.102,0.928,242.981,2274341
1.459,0.102,0.928,277.893,2274345
1.067,0.154,0.681,307.007,2274349
1.067,0.154,0.681,332.642,2274353
0.758,0.163,0.668,355.225,2274358
0.758,0.163,0.668,355.225,2274362
1.116,-0.014,0.82,273.071,2274989
1.074,0.05,0.84,304.749,2274993
1.074,0.05,0.84,343.445,2274997
1.074,0.05,0.84,343.445,2275001
0.663,0.04,0.963,377.197,2275005
0.663,0.04,0.963,394.043,2275009
-0.041,-0.069,1.093,406.738,2275013
-0.041,-0.069,1.093,414.551,2275017
-0.041,-0.069,1.093,414.551,2275021
-0.765,-0.257,1.29,391.479,2275025
-0.765,-0.257,1.29,349.792,2275029
-1.026,-0.574,1.273,317.566,2275033
-1.026,-0.574,1.273,322.449,2275038
-1.137,-0.925,1.027,346.375,2275042
-1.137,-0.925,1.027,346.375,2275046
-1.137,-0.925,1.027,361.511,2275050
-1.616,-0.997,0.857,357.3,2275054
-1.616,-0.997,0.857,324.768,2275058
-1.9,-0.881,0.378,272.949,2275062
-1.9,-0.881,0.378,272.949,2275066
-1.9,-0.881,0.378,207.642,2275070
-1.892,-0.762,-0.155,123.169,2275074
-1.892,-0.762,-0.155,29.236,2275078
-1.582,-0.675,-0.369,-54.016,2275082
-1.582,-0.675,-0.369,-54.016,2275086
-1.582,-0.675,-0.369,-117.188,2275090
-1.107,-0.597,-0.042,-157.166,2275094
-1.107,-0.597,-0.042,-185.791,2275098
-0.898,-0.58,0.579,-202.087,2275102
-0.898,-0.58,0.579,-204.834,2275106
-0.898,-0.58,0.579,-204.834,2275110
-0.822,-0.615,0.881,-198.364,2275114
-0.822,-0.615,0.881,-190.002,2275118
-0.821,-0.644,0.866,-188.843,2275122
-0.821,-0.644,0.866,-195.068,2275126
-0.821,-0.644,0.866,-195.068,2275130
-0.783,-0.556,0.671,-204.346,2275134
-0.783,-0.556,0.671,-217.346,2275138
-0.684,-0.449,0.479,-236.572,2275142
-0.684,-0.449,0.479,-260.376,2275146
-0.684,-0.449,0.479,-260.376,2275151
-0.53,-0.376,0.364,-284.973,2275155
-0.53,-0.376,0.364,-308.35,2275159
-0.236,-0.236,0.398,-321.594,2275163
-0.236,-0.236,0.398,-326.05,2275167
0.128,-0.102,0.603,-320.007,2275171
0.128,-0.102,0.603,-320.007,2275175
0.128,-0.102,0.603,-303.833,2275179
0.275,-0.037,0.64,-289.978,2275183
0.275,-0.037,0.64,-287.109,2275187
0.405,0.045,0.499,-281.616,2275191
0.405,0.045,0.499,-281.616,2275195
0.405,0.045,0.499,-270.447,2275199
0.586,0.084,0.404,-255.371,2275203
0.586,0.084,0.404,-237.183,2275207
0.656,0.011,0.462,-221.191,2275211
0.656,0.011,0.462,-221.191,2275215
0.656,0.011,0.462,-207.336,2275219
0.639,-0.147,0.628,-197.021,2275223
0.639,-0.147,0.628,-191.162,2275227
0.639,-0.228,0.764,-189.758,2275231
0.639,-0.228,0.764,-191.101,2275235
0.639,-0.228,0.764,-191.101,2275239
0.635,-0.282,0.895,-195.129,2275243
0.635,-0.282,0.895,-200.378,2275247
0.628,-0.388,1.097,-203.43,2275251
0.628,-0.388,1.097,-203.491,2275255
0.628,-0.388,1.097,-203.491,2275259
0.642,-0.49,1.295,-200.806,2275263
0.642,-0.49,1.295,-191.345,2275267
0.716,-0.52,1.329,-178.406,2275271
0.716,-0.52,1.329,-162.415,2275275
0.716,-0.52,1.329,-162.415,2275279
0.761,-0.473,1.225,-146.79,2275284
0.761,-0.473,1.225,-135.376,2275288
0.73,-0.401,1.058,-126.16,2275292
0.73,-0.401,1.058,-117.737,2275296
0.76,-0.375,0.938,-108.704,2275300
0.76,-0.375,0.938,-108.704,2275304
0.76,-0.375,0.938,-82.886,2275308
0.719,-0.333,0.912,-61.584,2275312
0.719,-0.333,0.912,-54.443,2275316
0.457,-0.405,0.917,-50.049,2275320
0.457,-0.405,0.917,-50.049,2275324
0.457,-0.405,0.917,-45.959,2275328
0.262,-0.562,1.378,-48.706,2275332
0.262,-0.562,1.378,-52.002,2275336
0.236,-0.503,1.474,-48.95,2275340
0.236,-0.503,1.474,-48.95,2275344
0.236,-0.503,1.474,-41.199,2275348
0.293,-0.434,1.145,-29.663,2275352
0.293,-0.434,1.145,-26.978,2275356
0.226,-0.305,1.02,-32.532,2275360
0.226,-0.305,1.02,-32.532,2275364
0.226,-0.305,1.02,-39.185,2275368
0.147,-0.173,0.932,-49.072,2275372
0.147,-0.173,0.932,-63.11,2275376
0.115,-0.171,0.804,-79.285,2275380
0.115,-0.171,0.804,-86.182,2275384
0.115,-0.171,0.804,-86.182,2275388
0.144,-0.251,0.753,-85.449,2275392
0.144,-0.251,0.753,-85.632,2275396
0.073,-0.277,0.776,-88.44,2275400
0.073,-0.277,0.776,-91.614,2275404
0.073,-0.277,0.776,-91.614,2275408
0.037,-0.301,0.848,-98.694,2275412
0.037,-0.301,0.848,-113.22,2275416
0.059,-0.299,0.935,-132.385,2275420
0.059,-0.299,0.935,-144.531,2275424
0.059,-0.299,0.935,-144.531,2275428
0.257,-0.28,0.977,-131.165,2275432
0.257,-0.28,0.977,-102.051,2275436
0.385,-0.265,1.016,-78.735,2275440
0.385,-0.265,1.016,-69.031,2275444
0.385,-0.265,1.016,-69.031,2275448
0.347,-0.172,1.057,-65.979,2275452
0.347,-0.172,1.057,-61.218,2275456
0.415,-0.15,1.062,-58.777,2275460
0.415,-0.15,1.062,-56.03,2275464
0.415,-0.15,1.062,-56.03,2275468
0.395,-0.143,1.063,-47.791,2275472
0.395,-0.143,1.063,-42.786,2275476
0.268,-0.141,1.042,-43.518,2275480
0.268,-0.141,1.042,-39.856,2275484
0.173,-0.07,0.947,-29.541,2275488
0.173,-0.07,0.947,-29.541,2275492
0.173,-0.07,0.947,-22.4,2275496
0.042,-0.075,0.854,-23.804,2275500
0.042,-0.075,0.854,-29.419,2275504
0.033,-0.148,0.841,-33.264,2275508
0.033,-0.148,0.841,-33.264,2275512
0.033,-0.148,0.841,-33.936,2275516
0.076,-0.199,0.923,-34.363,2275520
0.076,-0.199,0.923,-37.659,2275524
0.134,-0.214,1.008,-41.992,2275528
0.134,-0.214,1.008,-41.992,2275532
0.134,-0.214,1.008,-45.227,2275536
0.196,-0.18,1.016,-50.537,2275540
0.196,-0.18,1.016,-60.974,2275544
0.206,-0.128,1.008,-70.435,2275548
0.206,-0.128,1.008,-70.435,2275552
0.206,-0.128,1.008,-80.383,2275556
0.172,-0.068,0.977,-95.825,2275560
0.172,-0.068,0.977,-113.525,2275564
0.123,-0.086,0.932,-127.075,2275568
0.123,-0.086,0.932,-127.075,2275572
0.123,-0.086,0.932,-133.484,2275576
0.141,0.0,0.938,-133.484,2275580
0.141,0.0,0.938,-130.981,2275584
0.08,0.014,0.931,-127.869,2275588
0.08,0.014,0.931,-122.62,2275592
0.08,0.014,0.931,-122.62,2275596
0.043,-0.01,0.91,-115.051,2275600
0.043,-0.01,0.91,-108.521,2275604
0.003,-0.0,0.929,-106.14,2275608
0.003,-0.0,0.929,-100.525,2275612
0.003,-0.0,0.929,-100.525,2275617
-0.048,0.028,1.024,-89.905,2275621
-0.048,0.028,1.024,-73.303,2275624
0.062,0.378,1.272,-81.665,2275629
0.062,0.378,1.272,-86.243,2275633
0.062,0.378,1.272,-86.243,2275637
0.063,0.562,1.185,-103.821,2275641
0.063,0.562,1.185,-117.676,2275645
-0.057,0.37,1.018,-118.958,2275649
-0.057,0.37,1.018,-110.962,2275653
-0.141,0.247,1.099,-110.291,2275657
-0.141,0.247,1.099,-110.291,2275661
-0.141,0.247,1.099,-117.493,2275665
-0.159,0.233,1.12,-127.808,2275669
-0.159,0.233,1.12,-139.832,2275673
-0.11,0.267,1.08,-146.057,2275677
-0.11,0.267,1.08,-146.057,2275681
-0.11,0.267,1.08,-142.517,2275685
-0.111,0.254,0.96,-137.512,2275689
-0.111,0.254,0.96,-130.676,2275693
-0.202,0.155,0.92,-108.704,2275697
-0.202,0.155,0.92,-108.704,2275701
-0.202,0.155,0.92,-88.074,2275705
-0.251,0.106,0.938,-75.867,2275709
-0.251,0.106,0.938,-76.843,2275713
-0.25,0.085,0.927,-78.796,2275717
-0.25,0.085,0.927,-78.796,2275721
-0.25,0.085,0.927,-73.242,2275725
-0.191,0.128,0.839,-81.665,2275729
-0.191,0.128,0.839,-71.716,2275733
-0.177,0.171,0.914,-57.8,2275737
-0.177,0.171,0.914,-45.105,2275741
-0.177,0.171,0.914,-45.105,2275745
-0.045,0.364,0.923,-38.757,2275749
-0.045,0.364,0.923,-50.781,2275753
0.037,0.379,0.729,-43.091,2275757
0.037,0.379,0.729,-30.396,2275761
0.037,0.379,0.729,-30.396,2275765
0.052,0.28,0.438,-23.499,2275769
0.052,0.28,0.438,27.893,2275773
-0.342,0.681,0.583,198.792,2275777
-0.342,0.681,0.583,248.535,2275781
-0.342,0.681,0.583,248.535,2275785
-0.322,0.606,0.479,232.117,2275789
-0.322,0.606,0.479,246.887,2275793
-0.232,0.556,0.424,247.559,2275797
-0.232,0.556,0.424,208.679,2275801
-0.232,0.556,0.424,208.679,2275805
-0.057,0.199,0.195,143.066,2275809
-0.057,0.199,0.195,67.932,2275813
-0.908,0.243,0.897,-102.173,2275817
-0.908,0.243,0.897,-112.122,2275821
-0.538,-0.318,1.0,-81.238,2275825
-0.538,-0.318,1.0,-81.238,2275829
-0.538,-0.318,1.0,-104.797,2275833
-0.048,0.686,1.01,-114.807,2275837
-0.048,0.686,1.01,-112.488,2275841
-0.009,0.642,0.828,-84.351,2275845
-0.009,0.642,0.828,-84.351,2275849
-0.009,0.642,0.828,-27.1,2275853
0.18,0.619,0.999,11.78,2275857
0.18,0.619,0.999,-1.892,2275861
-0.053,0.462,1.318,-19.958,2275865
-0.053,0.462,1.318,-19.958,2275869
-0.053,0.462,1.318,118.774,2275873
0.067,0.482,0.694,95.093,2275877
0.067,0.482,0.694,97.473,2275881
-0.155,0.612,1.08,73.303,2275885
-0.155,0.612,1.08,73.303,2275889
-0.155,0.612,1.08,42.419,2275893
-0.083,0.528,0.896,41.87,2275897
-0.083,0.528,0.896,59.326,2275901
-0.083,0.416,0.81,75.439,2275905
-0.083,0.416,0.81,75.439,2275909
-0.083,0.416,0.81,84.839,2275913
0.0,0.484,0.958,57.556,2275917
0.0,0.484,0.958,55.359,2275921
0.06,0.64,0.914,101.868,2275925
0.06,0.64,0.914,101.868,2275929
0.06,0.64,0.914,122.62,2275933
-0.06,0.656,0.889,105.591,2275937
-0.06,0.656,0.889,28.015,2275941
-0.072,0.59,0.978,-65.491,2275945
-0.072,0.59,0.978,-123.352,2275949
-0.072,0.59,0.978,-123.352,2275953
0.168,0.475,0.8,-181.824,2275957
0.168,0.475,0.8,-186.951,2275961
0.148,0.399,0.835,-177.856,2275965
0.148,0.399,0.835,-148.193,2275969
0.148,0.399,0.835,-148.193,2275973
-0.335,0.206,1.011,-97.412,2275977
-0.335,0.206,1.011,-122.437,2275981
-0.144,0.272,0.759,-156.982,2275985
-0.144,0.272,0.759,-175.537,2275990
