Acc_X,Acc_Y,Acc_Z,Rot_Z,Millis
0.000488,0.108643,0.994141,-0.427246,63556
0.000244,0.107666,0.993896,-0.12207,63606
-0.001465,0.111084,0.995605,-0.366211,63656
-0.001709,0.109863,0.992432,-0.244141,63706
-0.000732,0.109375,0.994141,-0.244141,63756
-0.004395,0.110107,0.993896,-0.305176,63803
-0.000488,0.11084,0.992676,-0.12207,63851
-0.001709,0.106445,0.995361,-0.366211,63900
0.004883,0.111572,0.994629,-0.244141,63947
-0.000244,0.110107,0.995605,-0.366211,63993
-0.001953,0.110107,0.993408,-0.061035,64039
-0.001221,0.108887,0.99292,-0.305176,64083
-0.002197,0.107666,0.994873,-0.183105,64131
0.001221,0.107666,0.996582,-0.183105,64179
-0.002441,0.109375,0.996582,-0.061035,64227
0.001221,0.108643,0.994629,-0.183105,64278
0.003662,0.112305,0.993164,-0.305176,64326
-0.000244,0.108154,0.994629,-0.244141,64374
-0.000732,0.108643,0.993652,-0.12207,64422
-0.001953,0.106201,0.992676,-0.183105,64468
-0.000732,0.108643,0.994629,-0.244141,64513
-0.003662,0.110352,0.991699,-0.366211,64559
-0.000732,0.109619,0.99585,-0.12207,64608
-0.002197,0.109131,0.995117,-0.305176,64658
0,0.107422,0.993164,-0.183105,64707
-0.000732,0.109131,0.993408,-0.061035,64758
-0.003174,0.110352,0.993652,-0.061035,64806
0.000488,0.110107,0.995361,-0.183105,64854
-0.003662,0.109863,0.994141,-0.305176,64902
0.00293,0.108887,0.99585,-0.366211,64945
-0.001709,0.108154,0.997803,-0.305176,64990
-0.002441,0.113037,0.996826,-0.183105,65037
-0.000244,0.109619,0.995605,-0.183105,65086
-0.001465,0.108154,0.995605,-0.183105,65133
-0.001465,0.108887,0.996582,-0.244141,65182
0.001709,0.109863,0.994385,-0.488281,65231
-0.001709,0.109131,0.990479,-0.366211,65282
-0.000977,0.110352,0.991943,-0.305176,65329
-0.000488,0.107178,0.991455,-0.244141,65374
-0.00415,0.11084,0.994385,-0.244141,65422
-0.00415,0.110107,0.991455,-0.305176,65469
-0.001953,0.109131,0.997803,-0.244141,65517
-0.003418,0.109619,0.994873,-0.366211,65567
0,0.109619,0.994141,-0.244141,65612
-0.000977,0.109375,0.99292,-0.183105,65662
0.002441,0.106689,0.996582,-0.244141,65709
-0.001465,0.109619,0.998047,-0.061035,65758
-0.003418,0.108643,0.992432,-0.427246,65806
-0.00415,0.108398,0.991455,-0.305176,65858
-0.003906,0.110352,0.994141,-0.366211,65908
-0.001221,0.108887,0.998779,-0.427246,65957
-0.000732,0.109863,0.993652,-0.183105,66005
-0.000977,0.11084,0.99292,-0.12207,66052
-0.003174,0.111328,0.994873,-0.427246,66100
-0.000732,0.109863,0.994873,-0.244141,66145
-0.001709,0.109863,0.994141,-0.12207,66191
0.002686,0.111816,0.994873,-0.183105,66235
-0.001465,0.108643,0.993408,-0.183105,66285
-0.002197,0.112793,0.995605,-0.244141,66331
0,0.110107,0.996826,-0.061035,66378
-0.000488,0.111816,0.995117,-0.183105,66429
-0.001953,0.108887,0.992432,-0.244141,66476
0.000732,0.111084,0.995361,-0.305176,66523
-0.000244,0.107666,0.996094,-0.427246,66570
0.000488,0.108398,0.992188,-0.183105,66617
-0.001709,0.108643,0.992676,-0.244141,66665
-0.000488,0.112305,0.994385,-0.12207,66713
0.000732,0.109619,0.995605,-0.305176,66759
-0.000244,0.11084,0.993652,-0.305176,66806
0,0.110352,0.994629,-0.366211,66853
-0.000977,0.109863,0.99585,-0.183105,66899
-0.000488,0.110107,0.997314,-0.305176,66946
-0.00293,0.107422,0.994385,-0.244141,66992
0,0.10791,0.996826,-0.183105,67040
0.000977,0.109863,0.996826,-0.305176,67088
0,0.109131,0.995361,-0.244141,67134
-0.001709,0.108154,0.993164,-0.366211,67180
0.000977,0.109131,0.996338,-0.183105,67226
0.000732,0.109131,0.997559,-0.12207,67274
0.000488,0.109863,0.99292,-0.244141,67320
0.000732,0.109375,0.994385,-0.488281,67368
-0.001465,0.108154,0.996094,-0.305176,67416
0.000488,0.109863,0.993164,-0.366211,67463
-0.002441,0.109375,0.99292,-0.488281,67511
-0.003662,0.110596,0.995117,-0.183105,67559
0.000732,0.109863,1.000488,-0.12207,67616
0.00415,0.113037,0.993164,-0.244141,67665
-0.001465,0.112549,0.993164,-0.305176,67712
-0.003174,0.110107,0.994385,-0.244141,67758
0.000977,0.107422,0.996826,-0.061035,67805
-0.003174,0.108887,0.997559,-0.12207,67853
-0.001709,0.111084,0.995605,-0.488281,67903
-0.00708,0.107666,0.993408,-0.244141,67953
0.00415,0.107666,0.996338,-0.305176,68000
-0.002686,0.107666,0.99707,-0.366211,68048
0.000732,0.108887,0.995361,-0.366211,68097
-0.000732,0.109375,0.99585,-0.183105,68145
-0.001221,0.109131,0.994873,-0.244141,68193
-0.001709,0.108643,0.995361,-0.244141,68240
-0.00293,0.112305,0.993408,-0.244141,68286
-0.001465,0.108643,0.996338,-0.366211,68336
-0.001221,0.11084,0.996094,-0.183105,68381
-0.006104,0.109619,0.994873,-0.305176,68427
-0.003174,0.109131,0.994141,-0.244141,68476
-0.000488,0.108887,0.996094,0,68524
-0.001465,0.110596,0.994873,-0.183105,68570
-0.002441,0.109375,0.993164,-0.366211,68621
0.000488,0.110596,0.995361,-0.366211,68671
-0.00415,0.112061,0.993164,-0.305176,68721
-0.000732,0.111084,0.993652,-0.244141,68771
0.002197,0.109375,0.990479,-0.366211,68821
-0.000244,0.108887,0.993896,-0.305176,68869
-0.003906,0.110107,0.994141,-0.305176,68914
-0.003418,0.11084,0.99585,-0.305176,68962
-0.00293,0.106934,0.993652,-0.244141,69012
0.000977,0.105469,0.992676,-0.183105,69060
0.001709,0.10791,0.994141,-0.366211,69106
-0.00293,0.110596,0.993408,-0.305176,69153
-0.002686,0.106934,0.993652,-0.244141,69198
-0.001465,0.106934,0.995361,-0.12207,69248
-0.001953,0.109619,0.992432,-0.427246,69295
0.005615,0.110596,0.998047,-0.061035,69346
-0.001953,0.10791,0.994873,-0.183105,69394
-0.003174,0.106445,0.991943,-0.12207,69440
-0.000977,0.108154,0.99292,-0.244141,69489
-0.004883,0.110352,0.995605,-0.305176,69534
0,0.107422,0.991699,-0.305176,69583
-0.001221,0.111816,0.989258,-0.12207,69630
0.000977,0.108154,0.991211,-0.305176,69676
-0.005615,0.111572,0.993408,-0.061035,69723
-0.003906,0.109863,0.993652,-0.061035,69771
-0.000732,0.108154,0.994385,-0.427246,69817
0.000488,0.109619,0.995361,-0.244141,69863
0.000732,0.11377,0.995605,-0.12207,69911
-0.000244,0.108887,0.995117,-0.12207,69960
0.000488,0.106201,0.993652,-0.183105,70007
0.001465,0.109619,0.995117,-0.366211,70055
0.000732,0.108887,0.993896,-0.305176,70101
0.001465,0.112305,0.994385,-0.183105,70150
0,0.106445,0.992676,-0.183105,70195
0,0.110352,0.994629,-0.427246,70240
-0.000488,0.109375,0.999512,-0.183105,70284
-0.002197,0.111084,0.995361,-0.244141,70333
-0.000488,0.110107,0.991455,-0.183105,70381
-0.000244,0.108398,0.997314,-0.183105,70426
0.002197,0.108154,0.993896,-0.183105,70475
-0.001465,0.109863,0.991455,-0.366211,70527
0.000732,0.108887,0.991943,-0.305176,70572
-0.003418,0.111084,0.995117,-0.305176,70620
0.001221,0.112061,0.992432,-0.183105,70669
0.002686,0.111328,0.992188,-0.244141,70717
-0.000977,0.108398,0.997314,-0.305176,70765
-0.000244,0.110352,0.99585,-0.305176,70813
-0.00293,0.108887,0.994141,-0.305176,70861
0.000732,0.105225,0.994873,-0.183105,70910
-0.001465,0.109863,0.993652,0.061035,70961
-0.001953,0.110107,0.993896,-0.244141,71007
0.001709,0.111816,0.992432,-0.183105,71054
-0.001953,0.108154,0.99585,-0.244141,71101
-0.004639,0.110596,0.992432,-0.244141,71152
-0.000732,0.109131,0.993896,-0.305176,71202
-0.002197,0.108154,0.995117,-0.12207,71252
0,0.111816,0.994141,-0.183105,71301
-0.001221,0.106445,0.993408,-0.183105,71349
0.001221,0.108398,0.989746,-0.12207,71395
0,0.108887,0.993896,-0.12207,71442
-0.000488,0.107422,0.992676,-0.244141,71488
-0.000977,0.109619,0.994873,-0.061035,71533
-0.003174,0.107666,0.993896,-0.366211,71581
0,0.109863,0.991211,-0.244141,71626
0,0.111084,0.992432,-0.427246,71674
-0.003418,0.109131,0.994873,-0.244141,71720
0.000732,0.109863,0.993896,-0.244141,71768
0.003174,0.108643,0.993164,-0.244141,71815
0.001221,0.108887,0.994873,-0.12207,71865
0.002197,0.108643,0.993896,-0.12207,71910
-0.002197,0.109131,0.993652,-0.305176,71961
-0.00415,0.109619,0.995605,-0.366211,72007
-0.002197,0.108887,0.993408,-0.061035,72053
0.001709,0.11084,0.993164,-0.12207,72100
0.001221,0.108154,0.995605,-0.488281,72150
-0.003174,0.10791,0.996338,-0.488281,72199
-0.005127,0.108643,0.992676,-0.183105,72247
-0.000488,0.110596,0.992676,-0.488281,72293
-0.002686,0.111328,0.994141,-0.244141,72337
-0.000488,0.107422,0.992676,-0.244141,72384
-0.002197,0.107666,0.995117,-0.244141,72431
-0.001221,0.110352,0.991455,-0.183105,72478
-0.000244,0.108887,0.992188,-0.366211,72523
-0.000244,0.108887,0.993652,-0.12207,72572
-0.001953,0.107666,0.993408,-0.305176,72620
-0.001953,0.108154,0.99292,-0.305176,72666
0.00293,0.108154,0.994141,-0.061035,72717
-0.00293,0.109619,0.993408,-0.244141,72767
0.002686,0.111328,0.994385,-0.366211,72814
0.000977,0.109619,0.992676,-0.244141,72861
0.000488,0.10791,0.994629,-0.305176,72913
0.000244,0.106445,0.993652,-0.305176,72962
0.000977,0.109131,0.992188,-0.244141,73008
0,0.109863,0.990723,-0.244141,73057
-0.003418,0.109375,0.994873,-0.427246,73104
-0.001953,0.107178,0.992676,-0.305176,73151
-0.000977,0.110596,0.99585,-0.12207,73198
-0.000488,0.111328,0.993652,-0.305176,73249
-0.001221,0.110107,0.997803,-0.427246,73296
-0.00293,0.103516,0.993896,-0.244141,73344
-0.000977,0.107666,0.993652,-0.488281,73393
-0.000244,0.10791,0.997803,-0.305176,73441
-0.002197,0.108154,0.992188,-0.183105,73489
-0.000977,0.109619,0.994141,-0.427246,73533
0.001465,0.111328,0.99585,-0.305176,73580
0.002441,0.108887,0.995117,-0.488281,73629
0.000244,0.110107,0.995605,-0.183105,73679
0.000732,0.103027,0.994385,-0.244141,73724
-0.001221,0.112305,0.993652,-0.427246,73772
0.002686,0.108643,0.993896,-0.244141,73822
-0.000732,0.106934,0.998047,-0.366211,73870
-0.001465,0.112305,0.996338,-0.244141,73917
0,0.108643,0.99585,-0.061035,73964
0.002686,0.110352,0.993896,-0.183105,74010
0.002686,0.108643,0.993652,-0.244141,74058
-0.00293,0.109863,0.999268,-0.305176,74106
-0.000977,0.108398,0.992676,-0.061035,74155
-0.000977,0.105957,0.996826,-0.12207,74200
-0.000977,0.110352,0.992188,-0.366211,74252
-0.000488,0.110596,0.995361,-0.305176,74299
0,0.110596,0.995117,-0.427246,74347
-0.000732,0.11084,0.997803,-0.305176,74394
-0.002197,0.109619,0.996826,-0.366211,74448
0.000488,0.108643,0.995605,-0.244141,74496
0.001709,0.110107,0.994141,-0.183105,74543
-0.001465,0.106445,0.99585,-0.244141,74589
0.002197,0.109863,0.992432,-0.244141,74636
-0.000488,0.109863,0.994385,-0.183105,74684
-0.001953,0.109375,0.993408,-0.305176,74729
0.000977,0.108398,0.994873,-0.366211,74776
-0.003662,0.109619,0.994873,-0.183105,74822
-0.001221,0.110596,0.994141,-0.366211,74870
-0.001953,0.110596,0.994141,-0.244141,74921
-0.001221,0.107178,0.996094,-0.305176,74970
-0.003906,0.108154,0.996094,-0.244141,75017
-0.002197,0.111328,0.995605,-0.366211,75066
0.001709,0.11084,0.993408,-0.12207,75117
-0.003174,0.108154,1.000244,-0.244141,75166
0.000488,0.109619,0.98999,-0.244141,75212
0.003906,0.107178,0.992188,-0.305176,75261
-0.000488,0.107178,0.993896,-0.305176,75310
0.001465,0.108643,0.996094,-0.12207,75359
-0.001465,0.109619,0.993164,-0.427246,75406
0.000488,0.110596,0.995117,-0.12207,75455
0.000244,0.109375,0.99585,-0.305176,75501
-0.001221,0.109863,0.994385,-0.244141,75550
0.001953,0.108643,0.996338,-0.12207,75602
0,0.108398,0.992188,-0.183105,75647
-0.001953,0.109131,0.993896,-0.305176,75697
0.001465,0.111816,0.994629,-0.244141,75744
0.000732,0.108154,0.993164,-0.305176,75789
-0.001953,0.108887,0.992188,-0.366211,75835
-0.00293,0.108643,0.992188,-0.183105,75882
0.000244,0.111328,0.993896,-0.12207,75932
-0.00293,0.110352,0.992676,-0.305176,75979
0.002686,0.11084,0.996826,-0.244141,76028
-0.004639,0.110352,0.993652,-0.366211,76077
-0.000732,0.108887,0.992676,-0.183105,76126
-0.002441,0.11084,0.993896,-0.183105,76174
-0.004395,0.106934,0.993896,-0.12207,76223
0.000977,0.109863,0.990967,-0.305176,76270
-0.003418,0.110352,0.995605,-0.183105,76319
-0.003174,0.112793,0.993896,-0.12207,76366
-0.000977,0.108887,0.993164,-0.244141,76413
-0.002441,0.109619,0.994873,-0.183105,76459
-0.000488,0.107422,0.998535,-0.244141,76506
0.001709,0.109863,0.993652,-0.183105,76555
0.000732,0.109131,0.993408,-0.366211,76605
-0.000977,0.109619,0.991943,-0.183105,76656
-0.001709,0.111328,0.993652,-0.244141,76706
-0.000244,0.111572,0.996826,-0.366211,76754
-0.001221,0.111328,0.995361,-0.244141,76801
0.000977,0.110107,0.99707,-0.305176,76847
0.003906,0.110596,0.991211,-0.12207,76897
0.003174,0.106934,0.999756,-0.366211,76945
-0.000732,0.110352,0.996826,-0.12207,76993
-0.000244,0.110352,0.994873,-0.183105,77040
-0.000732,0.112793,0.995117,-0.12207,77089
0.000488,0.106689,0.993896,-0.366211,77141
-0.001709,0.109375,0.995117,-0.244141,77190
0.000488,0.108887,1.000244,-0.366211,77238
0,0.11084,0.995117,-0.12207,77287
0.001221,0.109131,0.98877,-0.366211,77334
0.001221,0.110107,0.989258,-0.244141,77382
0.005127,0.104492,1,-0.244141,77430
-0.006348,0.108643,0.995361,-0.244141,77474
-0.001221,0.109131,0.991943,-0.183105,77522
-0.000977,0.108887,0.993652,-0.366211,77566
-0.000977,0.109131,0.998779,-0.366211,77613
0.001221,0.106934,0.988037,-0.183105,77658
0.001465,0.109375,0.99585,-0.061035,77703
-0.005127,0.110352,0.995361,-0.244141,77752
-0.000244,0.110352,0.995361,-0.183105,77799
-0.002686,0.108887,0.99585,-0.305176,77847
-0.000244,0.110107,0.997314,-0.244141,77897
-0.004395,0.111328,0.994141,-0.305176,77946
0.000977,0.109863,0.993652,-0.244141,77992
0.000488,0.108154,0.995361,-0.305176,78042
0.000732,0.109863,0.99585,-0.244141,78089
-0.001465,0.109863,0.994385,-0.183105,78137
0.001953,0.109131,0.992188,-0.183105,78184
-0.002686,0.107666,0.99292,-0.366211,78234
0,0.11084,0.994385,-0.183105,78287
0,0.106934,0.992188,-0.244141,78335
-0.001221,0.109863,0.99292,-0.244141,78381
0.002441,0.108887,0.992676,-0.305176,78427
0.000977,0.110107,0.994873,-0.244141,78476
0.000977,0.108887,0.993896,-0.366211,78521
0.000732,0.106689,0.995361,-0.305176,78571
-0.003906,0.114258,0.993652,-0.244141,78617
0.002197,0.107178,0.993408,-0.366211,78665
-0.001953,0.109131,0.993896,-0.183105,78716
-0.003174,0.111572,0.992676,-0.183105,78763
0.000244,0.106689,0.99292,-0.244141,78809
-0.004395,0.109375,0.993652,-0.244141,78858
0.00415,0.111572,0.994141,-0.061035,78906
-0.004883,0.111816,0.992188,-0.488281,78955
-0.000244,0.11084,0.99292,-0.305176,79002
-0.000244,0.106934,0.993896,-0.183105,79049
-0.001221,0.10791,0.991455,-0.244141,79097
-0.003418,0.108643,0.990234,-0.244141,79146
0.002197,0.111084,0.994629,-0.366211,79194
-0.001221,0.107422,0.992676,-0.305176,79243
-0.00293,0.108398,0.995361,-0.366211,79289
-0.000244,0.107666,0.99707,-0.488281,79340
0.000244,0.107666,0.994385,-0.366211,79390
0.000488,0.113281,0.992676,-0.244141,79439
0.00293,0.11084,0.991943,-0.488281,79486
-0.000488,0.109375,0.994629,-0.12207,79535
-0.000488,0.10791,0.991943,-0.183105,79582
0.001465,0.109131,0.991699,-0.305176,79631
-0.001953,0.108643,0.995605,-0.366211,79681
-0.003174,0.109375,0.992676,-0.244141,79728
-0.001953,0.107666,0.992432,-0.366211,79776
-0.003174,0.108154,0.994873,-0.366211,79825
-0.001221,0.111084,0.994385,-0.183105,79872
-0.000488,0.105713,0.992432,-0.305176,79919
-0.003174,0.109863,0.994385,-0.305176,79964
-0.001953,0.108887,0.993408,-0.183105,80010
0,0.112305,0.996826,-0.366211,80057
-0.004395,0.11084,0.993164,-0.427246,80106
-0.001953,0.110596,0.995605,0,80152
0.000488,0.109375,0.995361,-0.305176,80198
-0.000977,0.112061,0.994385,-0.305176,80247
-0.00293,0.111816,0.989502,-0.366211,80293
-0.000732,0.109131,0.997559,-0.305176,80341
-0.001465,0.112061,0.993896,-0.305176,80388
0.002197,0.110107,0.99292,-0.183105,80437
0,0.107666,0.992676,-0.305176,80487
0.001221,0.111572,0.993164,-0.305176,80533
-0.003174,0.108398,0.991211,-0.183105,80581
-0.000244,0.110596,0.995361,-0.366211,80627
-0.002197,0.108154,0.99292,-0.305176,80677
-0.001709,0.111816,0.993164,-0.427246,80723
-0.000732,0.10791,0.994873,-0.244141,80768
0.000732,0.110107,0.996094,-0.183105,80816
-0.001953,0.109863,0.993652,-0.244141,80866
-0.002197,0.109619,0.995117,-0.366211,80915
-0.001221,0.109375,0.993652,-0.244141,80963
0.001709,0.110596,0.987793,-0.12207,81009
0.000244,0.111572,0.996338,-0.244141,81055
0.000977,0.109131,0.996338,-0.305176,81102
0,0.107178,0.992676,-0.061035,81149
-0.001465,0.108643,0.993164,-0.183105,81196
-0.001465,0.110352,0.995361,-0.305176,81244
-0.00415,0.108643,0.99292,-0.244141,81291
-0.000732,0.108887,0.996826,-0.305176,81342
-0.000977,0.108643,0.996582,-0.305176,81390
-0.001709,0.10791,0.994873,-0.305176,81438
-0.003418,0.111084,0.996582,-0.183105,81483
-0.003906,0.108643,0.991943,-0.183105,81529
-0.000488,0.108643,0.99292,-0.244141,81573
-0.002441,0.111816,0.992188,-0.427246,81622
-0.004395,0.10791,0.994873,-0.244141,81672
-0.001709,0.110107,0.995361,-0.183105,81721
0.000732,0.106689,0.994141,-0.305176,81772
0.001465,0.105713,0.993408,-0.183105,81820
0.001953,0.107178,0.991211,-0.12207,81867
-0.000244,0.106934,0.991455,-0.366211,81912
0,0.109619,0.993896,-0.305176,81962
-0.003662,0.105469,0.998535,-0.12207,82008
0.001221,0.108887,0.996826,-0.244141,82054
-0.002441,0.108398,0.994873,-0.305176,82104
-0.001221,0.109375,0.998047,-0.12207,82152
-0.003662,0.105957,0.991943,-0.305176,82198
-0.00293,0.110107,0.995117,-0.305176,82247
-0.002197,0.10791,0.995117,-0.427246,82297
0,0.111084,0.991943,-0.244141,82347
-0.002441,0.108398,0.996338,-0.244141,82391
0.000732,0.109863,0.995117,-0.427246,82441
-0.003662,0.108154,0.996338,-0.244141,82488
-0.000488,0.110596,0.993164,-0.244141,82534
0.000977,0.106689,0.995117,-0.12207,82581
-0.003662,0.108887,0.993164,-0.305176,82630
-0.003662,0.112305,0.996094,-0.305176,82681
0.001709,0.109619,0.99292,-0.305176,82729
-0.002197,0.108154,0.995117,-0.183105,82775
-0.003418,0.109375,0.996338,-0.244141,82824
-0.00293,0.110352,0.991699,-0.427246,82873
-0.001709,0.11084,0.98877,-0.183105,82922
-0.001709,0.109863,0.998535,-0.12207,82968
0.001221,0.110596,0.995117,-0.183105,83015
-0.002686,0.106934,0.994629,-0.366211,83065
-0.001953,0.109863,0.991943,-0.183105,83113
0.001953,0.107422,0.994873,-0.366211,83163
-0.000732,0.111572,0.990967,-0.244141,83213
-0.000488,0.109863,0.996094,-0.244141,83261
-0.000244,0.109619,0.993164,-0.244141,83308
-0.001221,0.10791,0.998779,-0.183105,83355
0,0.107422,0.994141,-0.366211,83406
-0.000977,0.112549,0.99292,-0.366211,83452
0.000244,0.105713,0.995361,-0.183105,83501
0.001465,0.110107,0.99585,-0.183105,83550
-0.000244,0.110107,0.991211,-0.183105,83598
-0.001709,0.109375,0.996826,-0.244141,83644
-0.002441,0.112061,0.992432,-0.366211,83691
0.000977,0.108887,0.993652,-0.366211,83739
-0.001221,0.109619,0.99292,-0.12207,83787
-0.000977,0.111816,0.995605,-0.183105,83832
-0.003174,0.108887,0.993408,-0.305176,83880
-0.001465,0.111084,0.995361,-0.244141,83927
-0.002197,0.108398,0.991943,-0.305176,83975
-0.002441,0.108887,0.992676,-0.305176,84021
-0.000244,0.109375,0.998779,-0.305176,84070
-0.003418,0.109131,0.991455,-0.305176,84120
0.001221,0.108887,0.995605,-0.305176,84165
-0.000977,0.106934,0.996582,-0.305176,84216
-0.001465,0.109619,0.995605,-0.12207,84262
-0.004883,0.108154,0.995361,-0.427246,84310
-0.000732,0.107178,0.99292,-0.12207,84357
0,0.108154,0.994873,-0.183105,84406
-0.000977,0.108398,0.994141,-0.366211,84451
-0.005127,0.109131,0.996094,-0.488281,84499
0.000488,0.10791,0.994629,-0.244141,84545
-0.000488,0.109863,0.998047,-0.183105,84595
-0.002686,0.107178,0.996338,-0.183105,84643
0,0.110596,0.993896,-0.183105,84693
0,0.111328,0.994873,-0.183105,84741
-0.000244,0.109375,0.993896,-0.244141,84788
-0.001953,0.10791,0.995605,-0.183105,84840
-0.001221,0.109375,0.994629,-0.427246,84887
-0.000488,0.109131,0.995361,-0.244141,84934
-0.001465,0.108887,0.993652,-0.061035,84980
-0.000732,0.11084,0.991211,-0.305176,85028
-0.001465,0.10791,0.992432,-0.305176,85075
-0.000977,0.111816,0.995605,-0.427246,85123
-0.001221,0.107178,0.990967,-0.244141,85170
-0.003662,0.111328,0.993164,-0.305176,85214
-0.001221,0.109863,0.994873,-0.305176,85264
0.002686,0.107666,0.994141,-0.183105,85310
0.001221,0.107178,0.99292,-0.12207,85358
0.003662,0.105957,0.995605,-0.061035,85405
0.000977,0.107666,0.995605,-0.244141,85458
0.001221,0.107666,0.992188,-0.244141,85503
0.000488,0.11084,0.995117,-0.305176,85551
0.000488,0.109863,0.996582,-0.427246,85599
-0.000977,0.11084,0.993164,-0.12207,85648
0,0.108643,0.997803,-0.183105,85694
-0.001465,0.109131,0.992676,-0.183105,85744
-0.002686,0.110352,0.996582,-0.305176,85794
-0.000732,0.108643,0.994385,-0.305176,85841
0,0.108643,0.992676,-0.366211,85887
-0.002686,0.109375,0.995117,0,85935
-0.001709,0.109863,0.994873,-0.366211,85984
0.001465,0.109131,0.996582,-0.427246,86031
-0.002686,0.110352,0.992676,-0.305176,86077
0.002197,0.108398,0.993652,-0.366211,86124
-0.000244,0.108398,0.992188,-0.12207,86169
-0.001709,0.111572,0.996826,-0.061035,86216
0.001221,0.10791,0.997314,-0.244141,86263
-0.002686,0.109375,0.990967,-0.183105,86311
0.001465,0.105469,0.994629,-0.183105,86357
-0.001709,0.110107,0.994629,-0.061035,86404
-0.001221,0.110352,0.993652,-0.427246,86452
-0.002197,0.108154,0.996826,0,86498
-0.001221,0.109131,0.995605,-0.244141,86547
0.002197,0.108887,0.996094,-0.12207,86593
-0.001709,0.108643,0.991699,-0.305176,86642
-0.001709,0.108643,0.99707,-0.366211,86690
-0.000244,0.109131,0.993164,-0.12207,86738
-0.002441,0.106445,0.995605,-0.244141,86787
0.000732,0.110352,0.992188,-0.366211,86834
-0.000244,0.10791,0.993164,-0.183105,86881
-0.000244,0.110596,0.991943,-0.366211,86931
0.000977,0.108398,0.995361,-0.183105,86979
-0.003174,0.108887,0.994873,-0.061035,87028
-0.001221,0.10791,0.992432,-0.12207,87078
-0.000732,0.108643,0.995361,-0.183105,87126
-0.001221,0.108887,0.99585,-0.12207,87173
-0.000732,0.109863,0.994629,-0.549316,87219
-0.001953,0.109619,0.993896,-0.305176,87266
0.000488,0.106689,0.996338,-0.366211,87312
-0.00293,0.112549,0.998535,-0.183105,87362
0.000244,0.111084,0.993896,-0.12207,87410
-0.003174,0.106445,0.994873,-0.305176,87456
-0.003174,0.107422,0.994873,-0.244141,87503
-0.000732,0.110352,0.996338,-0.12207,87552
-0.000244,0.109375,0.994385,-0.244141,87601
0.001709,0.109131,0.996582,-0.305176,87650
-0.001709,0.105713,0.99292,-0.366211,87698
0.001465,0.107422,0.993408,-0.244141,87745
-0.002686,0.109131,0.998047,-0.366211,87792
-0.001221,0.110352,0.994873,-0.305176,87842
0.001953,0.11084,0.993164,-0.12207,87887
-0.000244,0.110352,0.994629,-0.183105,87935
0.000244,0.110596,0.993164,-0.061035,87983
-0.000732,0.107178,0.993652,-0.366211,88031
-0.000244,0.107178,0.993408,-0.12207,88081
-0.003662,0.109375,0.992432,-0.488281,88130
0.000977,0.111328,0.991211,-0.488281,88176
0,0.110352,0.997803,-0.427246,88223
0.000244,0.108398,0.990967,-0.305176,88272
0.000244,0.109375,0.993652,-0.305176,88320
-0.000977,0.106934,1,-0.061035,88366
-0.001221,0.108398,0.993652,-0.244141,88410
-0.001465,0.109375,0.994385,-0.305176,88460
-0.00293,0.109131,0.992188,-0.305176,88507
-0.00293,0.108887,0.995361,-0.305176,88554
0,0.110107,0.995117,-0.366211,88600
-0.001465,0.108643,0.996582,-0.183105,88647
0.001709,0.11084,0.99585,-0.305176,88694
0.000732,0.107178,0.999268,-0.12207,88741
-0.000977,0.111816,0.993164,-0.183105,88793
-0.001221,0.111084,0.991455,-0.183105,88838
-0.003662,0.107666,0.990723,-0.061035,88886
-0.001221,0.104736,0.991211,-0.305176,88934
-0.000977,0.108887,0.994385,-0.244141,88980
0.001709,0.109863,0.994385,-0.244141,89027
0.001221,0.110107,0.990967,-0.061035,89073
0.001953,0.110596,0.994385,-0.305176,89121
0.002441,0.106201,0.993896,-0.244141,89170
0.000977,0.106445,0.994385,-0.183105,89221
0,0.109619,0.99292,-0.244141,89267
-0.001709,0.110107,0.99292,-0.244141,89313
-0.003906,0.108887,0.991699,-0.244141,89361
-0.001221,0.110107,0.993408,-0.305176,89412
0.000977,0.109375,0.995361,-0.183105,89459
-0.001465,0.109619,0.995117,-0.061035,89508
-0.002441,0.109375,0.996094,-0.305176,89556
0.00293,0.108154,0.995117,-0.305176,89604
-0.000977,0.108643,0.996582,-0.305176,89652
0.000244,0.107666,0.991455,-0.366211,89702
-0.003174,0.112549,0.993896,-0.244141,89752
-0.003418,0.106445,0.997803,-0.183105,89800
-0.000488,0.109131,0.990967,-0.183105,89850
-0.000488,0.107666,0.996582,-0.305176,89896
0.00293,0.106445,0.99292,-0.12207,89945
-0.003174,0.110107,0.992676,-0.427246,89992
-0.000732,0.110107,0.991455,-0.183105,90040
-0.002441,0.11084,0.992676,-0.305176,90087
-0.002441,0.10791,0.993408,-0.183105,90135
-0.000488,0.112549,0.993896,-0.183105,90182
-0.000244,0.107422,0.990234,-0.244141,90231
0.000244,0.109863,0.994385,-0.427246,90279
0.000732,0.108398,0.995605,-0.366211,90327
0,0.106689,0.991455,-0.366211,90379
0,0.109863,0.991455,-0.305176,90426
-0.001465,0.10791,0.995605,-0.366211,90474
0.001953,0.107422,0.994385,-0.427246,90525
-0.000244,0.108643,0.994385,-0.305176,90570
-0.001709,0.109863,0.996338,-0.305176,90618
0.001221,0.109619,0.993652,-0.366211,90667
-0.002686,0.109131,0.99292,-0.183105,90715
-0.001465,0.106445,0.990967,-0.183105,90765
0.000977,0.108643,0.992676,-0.427246,90812
-0.00293,0.108643,0.997559,-0.244141,90859
-0.000977,0.110107,0.992432,-0.366211,90906
-0.003174,0.109619,0.995117,-0.305176,90950
-0.002441,0.111328,0.993896,-0.366211,91000
-0.001465,0.108643,0.995117,-0.061035,91048
-0.001953,0.11084,0.990967,-0.12207,91094
-0.000488,0.10791,0.995361,-0.244141,91150
0.000977,0.110596,0.991455,0.061035,91199
0.001953,0.112305,0.99292,-0.183105,91246
0.001465,0.111328,0.994873,-0.12207,91297
-0.002686,0.109619,0.99292,-0.305176,91345
-0.000977,0.111084,0.995605,-0.244141,91394
0.000488,0.108398,0.994141,-0.366211,91441
0.000244,0.109375,0.995605,-0.12207,91490
-0.00293,0.110107,0.993164,-0.427246,91540
0.001709,0.110596,0.993896,-0.183105,91590
-0.001709,0.109863,0.993896,-0.244141,91637
0.00293,0.10791,0.992432,-0.305176,91685
0.000488,0.112061,0.99585,-0.244141,91731
0,0.110596,0.989014,-0.427246,91783
-0.000732,0.109375,0.994141,-0.244141,91831
-0.000244,0.106934,0.990234,-0.305176,91875
0.000977,0.108398,0.995117,-0.183105,91924
0.003662,0.109863,0.993652,-0.244141,91969
-0.002686,0.109619,0.994141,-0.183105,92017
-0.001221,0.11084,0.993652,-0.549316,92064
-0.004395,0.110352,0.993896,-0.244141,92111
-0.000244,0.110596,0.996094,-0.12207,92159
-0.002197,0.106934,0.994629,-0.244141,92209
0.000488,0.110596,0.994629,-0.366211,92261
-0.001953,0.111572,0.995361,-0.366211,92309
-0.001465,0.10791,0.995361,-0.366211,92357
-0.000732,0.109131,0.992432,-0.12207,92405
-0.001221,0.112793,0.993164,-0.427246,92449
-0.002441,0.108643,0.995605,-0.061035,92493
0.000732,0.111816,0.994873,-0.244141,92544
0.001221,0.109375,0.994385,-0.244141,92592
-0.000732,0.109619,0.994629,-0.427246,92641
-0.001709,0.10791,0.991455,-0.183105,92686
-0.001465,0.109131,0.992676,-0.183105,92733
0.001465,0.109131,0.994873,-0.488281,92780
0,0.11084,0.99585,-0.488281,92828
-0.001709,0.109131,0.99585,-0.427246,92875
-0.001953,0.111816,0.991455,-0.061035,92921
-0.003174,0.106445,0.994873,-0.244141,92968
-0.001953,0.108154,0.996582,-0.183105,93014
-0.000244,0.10791,0.996094,-0.366211,93062
-0.001953,0.109375,0.997803,-0.183105,93112
-0.000244,0.111084,0.993408,-0.305176,93159
-0.002441,0.112305,0.995361,-0.12207,93203
-0.002197,0.109619,0.996094,-0.244141,93252
0.000732,0.110107,0.992432,-0.244141,93300
0.000488,0.113037,0.994629,-0.12207,93348
-0.000977,0.112549,0.993652,-0.244141,93395
0.000732,0.108154,0.996582,-0.244141,93444
0,0.108887,0.990723,-0.427246,93492
-0.005127,0.106934,0.995117,-0.305176,93538
0.001465,0.106689,0.993896,-0.366211,93582
-0.004639,0.111572,0.996338,-0.305176,93631
0.001709,0.111572,0.997803,-0.366211,93680
0,0.106445,0.995117,-0.183105,93730
0.002197,0.10791,0.994385,-0.488281,93779
-0.000977,0.11084,0.994141,-0.183105,93825
-0.001465,0.11084,0.98999,-0.183105,93872
-0.003174,0.108398,0.995117,-0.244141,93923
-0.000977,0.108887,0.99292,-0.244141,93968
-0.003174,0.108887,0.993652,-0.183105,94012
-0.002441,0.110352,0.990967,-0.183105,94057
-0.002197,0.10791,0.991943,-0.244141,94103
0.002441,0.108887,0.994385,-0.061035,94150
-0.001953,0.107666,0.993408,-0.610352,94200
0.000244,0.109375,0.996094,-0.366211,94248
0.000732,0.109131,0.993408,-0.305176,94296
-0.001465,0.107422,0.993652,-0.183105,94344
0,0.108643,0.993164,-0.183105,94390
0.000488,0.109863,0.993408,-0.183105,94439
0.000977,0.108154,0.994873,-0.244141,94489
0.000244,0.11084,0.994141,-0.244141,94534
-0.001221,0.107666,0.995117,-0.061035,94583
-0.001953,0.108154,0.994629,-0.305176,94631
-0.001465,0.109619,0.994873,-0.183105,94678
0.002686,0.109619,0.991699,-0.12207,94726
-0.00415,0.112793,0.994385,-0.305176,94775
-0.001953,0.108887,0.992432,-0.305176,94822
-0.001709,0.105469,0.997314,-0.244141,94872
0.002441,0.108398,0.990234,-0.305176,94919
-0.000488,0.110107,0.99585,-0.12207,94968
-0.001221,0.109131,0.99292,-0.12207,95017
-0.000488,0.106934,0.995117,-0.244141,95068
-0.002197,0.10791,0.994141,-0.549316,95115
-0.003174,0.108398,0.992432,-0.244141,95162
-0.000732,0.108398,0.994385,-0.183105,95207
-0.002197,0.109863,0.994141,-0.244141,95255
-0.003174,0.107178,0.99585,-0.244141,95305
-0.001465,0.108154,0.995361,-0.305176,95354
0.001221,0.109863,0.996582,-0.488281,95401
-0.001465,0.109375,0.993408,-0.12207,95447
-0.000244,0.108398,0.993164,-0.183105,95496
-0.001465,0.108643,0.996338,-0.183105,95546
-0.004395,0.108398,0.993408,-0.305176,95592
0,0.109619,0.991943,-0.305176,95638
-0.000977,0.112793,0.993896,-0.244141,95688
-0.001465,0.108398,0.993164,-0.12207,95739
-0.002197,0.109375,0.992188,-0.244141,95786
-0.003662,0.111328,0.993408,-0.305176,95830
0.000977,0.110596,0.996338,-0.244141,95876
-0.002197,0.109863,0.994385,-0.305176,95923
-0.002197,0.109375,0.992676,-0.366211,95969
0.002441,0.109375,0.996582,-0.366211,96017
0,0.109863,0.997803,-0.244141,96063
0.001221,0.10791,0.992676,-0.12207,96112
0.001953,0.107422,0.994629,-0.183105,96161
0.000488,0.109863,0.992676,-0.244141,96209
0,0.111328,0.99292,-0.183105,96257
-0.004639,0.110596,0.994141,-0.12207,96309
-0.000977,0.10791,0.993408,-0.488281,96357
-0.003174,0.106934,0.995361,-0.183105,96408
-0.002686,0.112793,0.99585,-0.427246,96454
-0.001709,0.108154,0.989746,-0.366211,96502
-0.001709,0.108887,0.991455,-0.061035,96549
-0.001465,0.108154,0.996582,-0.183105,96598
0.000732,0.109619,0.988525,-0.183105,96646
0.000244,0.111572,0.986084,-0.12207,96696
-0.000488,0.105225,0.994873,-0.427246,96745
-0.000244,0.112549,0.996338,-0.244141,96792
-0.003174,0.107422,0.996582,-0.366211,96839
0.002441,0.107666,0.993164,-0.183105,96887
-0.000732,0.106689,0.991943,-0.183105,96934
-0.001221,0.112061,0.99292,-0.183105,96983
-0.00293,0.107422,0.998291,-0.366211,97033
-0.003418,0.112061,0.995361,-0.305176,97081
0.000244,0.110107,1.000732,-0.244141,97129
-0.001953,0.107178,0.995605,-0.061035,97176
0.001953,0.107178,0.992676,-0.244141,97224
-0.003174,0.11084,0.998535,-0.244141,97270
-0.002441,0.110596,0.992188,-0.183105,97315
0,0.109131,0.994873,-0.244141,97362
0.000977,0.107666,0.991699,-0.12207,97410
-0.002686,0.109863,0.994141,-0.12207,97462
0.00415,0.109375,0.993408,-0.183105,97510
-0.002197,0.105469,0.995117,-0.244141,97559
0.002197,0.11084,0.992432,-0.427246,97606
-0.003662,0.111572,0.99292,-0.305176,97652
0.000732,0.110352,0.996094,-0.305176,97701
-0.003418,0.108154,0.994141,-0.244141,97751
0.002197,0.106201,0.990234,-0.244141,97799
0.001465,0.110352,0.996582,-0.244141,97846
-0.001465,0.10791,0.990234,-0.244141,97893
-0.002441,0.109131,0.993164,-0.427246,97941
-0.001221,0.110107,0.992432,-0.12207,97988
-0.001465,0.103516,0.997803,-0.305176,98041
0.002441,0.11084,0.990967,-0.244141,98091
-0.00293,0.103027,0.989502,-0.244141,98141
-0.000488,0.111816,1.000488,-0.305176,98188
-0.00293,0.108154,0.99292,-0.244141,98241
-0.00415,0.112549,0.996338,-0.12207,98290
-0.003906,0.104004,0.993164,-0.244141,98341
-0.00293,0.113525,0.996826,-0.366211,98386
-0.000977,0.106445,0.991699,-0.244141,98431
-0.002686,0.115234,0.992188,-0.183105,98475
-0.000732,0.106689,0.99585,-0.183105,98522
-0.000977,0.11084,0.993896,-0.12207,98571
0,0.11084,0.993164,-0.366211,98619
0,0.108154,0.995117,-0.061035,98665
0.002686,0.108887,0.993896,-0.183105,98709
0.002197,0.112305,0.995117,-0.244141,98761
-0.003418,0.107178,0.995117,-0.305176,98807
-0.001953,0.108154,0.991211,-0.244141,98855
-0.002197,0.113037,0.993896,-0.244141,98899
-0.003174,0.10791,0.996094,-0.244141,98944
-0.000244,0.107666,0.992188,-0.366211,98993
0.002441,0.108643,0.993896,-0.183105,99043
-0.000977,0.112793,0.99707,-0.183105,99089
-0.001465,0.109863,0.99292,-0.305176,99136
0.000488,0.111572,0.995605,-0.12207,99183
-0.001465,0.108398,0.991699,-0.183105,99233
-0.000244,0.111816,0.995361,-0.244141,99279
0.001953,0.106201,0.992432,-0.061035,99329
-0.000732,0.105469,0.992432,-0.305176,99379
0.000732,0.105957,0.995361,-0.305176,99429
-0.001953,0.115967,0.993896,-0.12207,99479
-0.001465,0.107666,0.992188,-0.183105,99531
-0.003174,0.108643,0.990479,-0.305176,99581
-0.000732,0.105469,0.990234,-0.183105,99631
0.001465,0.11084,0.99585,-0.305176,99678
-0.001709,0.107666,0.993408,-0.244141,99726
-0.002197,0.111328,0.994873,-0.244141,99770
-0.000488,0.110596,0.991211,-0.488281,99820
-0.000977,0.111084,0.994629,-0.366211,99870
-0.002197,0.108398,0.994873,-0.366211,99920
-0.000244,0.110107,0.994629,-0.12207,99969
-0.000732,0.111572,0.995361,-0.488281,100015
-0.003662,0.109375,0.989258,-0.12207,100065
-0.001465,0.106445,0.995117,-0.183105,100111
0.003174,0.11084,0.995605,-0.244141,100161
-0.003662,0.113037,0.992432,-0.305176,100208
-0.001709,0.112061,0.997314,-0.244141,100257
-0.000488,0.110107,0.993652,-0.244141,100308
-0.001221,0.110352,0.994141,-0.244141,100357
0.001465,0.108398,0.994141,-0.366211,100404
-0.003174,0.107178,0.991455,-0.183105,100453
-0.000977,0.108887,0.99585,-0.061035,100502
-0.000488,0.110107,0.998535,0,100549
-0.003662,0.108887,0.992676,-0.12207,100595
0.000732,0.107178,0.993896,-0.366211,100640
-0.002197,0.109375,0.994385,-0.305176,100687
0.002441,0.110596,0.995361,-0.244141,100738
-0.000244,0.110352,0.999268,-0.244141,100787
-0.00293,0.109619,0.993408,-0.183105,100834
-0.002197,0.109131,0.995361,-0.305176,100879
0,0.108887,0.992676,-0.305176,100925
-0.001953,0.111572,0.99292,-0.244141,100971
-0.003418,0.111572,0.991699,-0.183105,101018
-0.001709,0.112549,1.001221,0,101069
-0.002441,0.107422,0.996582,-0.244141,101118
-0.000732,0.10498,0.996338,-0.305176,101168
-0.003662,0.111328,0.99292,-0.305176,101213
-0.000732,0.110352,0.992432,-0.305176,101260
0.000732,0.107422,0.995605,-0.305176,101308
-0.000488,0.110107,0.995117,-0.183105,101353
0.000244,0.106445,0.995117,-0.061035,101404
0.00293,0.108154,0.992432,-0.244141,101450
-0.000488,0.108398,0.996338,-0.305176,101500
0.000732,0.110352,0.992676,-0.12207,101552
-0.002197,0.111816,0.994629,-0.183105,101597
-0.003906,0.108154,0.99707,-0.12207,101645
-0.001221,0.108887,0.99292,-0.244141,101692
-0.003418,0.10791,0.99292,-0.305176,101739
-0.002441,0.110352,0.997314,-0.244141,101787
-0.000732,0.109131,0.996338,-0.427246,101837
0,0.113037,0.995605,-0.366211,101883
-0.002197,0.111084,0.994141,-0.244141,101935
-0.001465,0.108154,0.996338,-0.183105,101983
-0.003418,0.108398,0.993408,-0.305176,102030
-0.000732,0.110352,0.995605,-0.549316,102075
0.000732,0.112061,0.994141,-0.183105,102125
-0.003906,0.108643,0.995361,-0.305176,102174
0.001221,0.111816,0.996582,-0.244141,102221
0.001221,0.110107,0.995361,-0.549316,102268
-0.003174,0.110352,0.991943,-0.366211,102315
0.00293,0.109863,0.993408,-0.366211,102362
0.000732,0.108643,0.993652,-0.305176,102408
-0.000244,0.10791,0.993652,-0.244141,102455
-0.002686,0.108398,0.993652,-0.305176,102501
0.000488,0.110352,0.993896,-0.244141,102548
-0.00293,0.112305,0.993164,-0.12207,102594
-0.003418,0.110352,0.99707,-0.244141,102641
0.002686,0.112061,0.997314,-0.183105,102689
-0.000488,0.108398,0.996338,-0.366211,102735
0.000488,0.10791,0.993652,0,102791
0.003418,0.110107,0.994873,-0.183105,102838
0,0.107666,0.996826,-0.12207,102889
0.000244,0.109131,0.994629,-0.244141,102937
0,0.10791,0.993164,0.061035,102981
-0.001221,0.106934,0.996826,-0.427246,103027
-0.000244,0.108398,0.992676,-0.183105,103076
0.000732,0.109863,0.994629,-0.244141,103124
-0.001953,0.110352,0.993652,-0.183105,103173
-0.001953,0.110352,0.994873,-0.427246,103220
-0.000244,0.110352,0.995117,-0.244141,103269
-0.000732,0.108887,0.993896,-0.244141,103317
-0.000732,0.111084,0.991943,-0.244141,103371
0.001465,0.113037,0.994141,0.061035,103419
0.002686,0.112061,0.991943,-0.305176,103469
0.00293,0.112549,0.993164,0,103517
0.001221,0.108643,0.996582,-0.244141,103567
0.000244,0.10791,0.995117,-0.366211,103613
0,0.106201,0.993896,-0.244141,103662
0.000244,0.109131,0.995605,-0.183105,103708
-0.002197,0.108398,0.99292,-0.366211,103758
0.000244,0.108887,0.997314,-0.244141,103808
-0.000732,0.107178,0.995605,-0.12207,103859
0.000732,0.110596,0.994873,-0.183105,103906
-0.004639,0.108887,0.994629,-0.183105,103953
-0.00415,0.109375,0.991943,-0.183105,104001
-0.005127,0.108887,0.995605,-0.244141,104046
-0.00293,0.109375,0.994873,-0.244141,104091
-0.001953,0.108154,0.996826,-0.244141,104139
-0.000488,0.105713,0.993408,-0.305176,104187
-0.000244,0.10791,0.99707,-0.427246,104233
-0.003174,0.108398,0.993652,-0.12207,104283
-0.000488,0.109375,0.994385,-0.305176,104330
-0.001465,0.106934,0.994141,-0.244141,104379
-0.000977,0.108154,0.993408,-0.061035,104428
-0.000244,0.107666,0.992676,-0.183105,104478
0.001221,0.108154,0.999023,-0.366211,104525
-0.001953,0.11084,0.99585,-0.366211,104573
-0.000732,0.107666,0.996094,-0.244141,104625
0.001465,0.107666,0.995117,-0.244141,104671
-0.001709,0.106934,0.993408,-0.366211,104719
-0.003174,0.108887,0.994873,-0.427246,104764
0.003174,0.109131,0.994385,-0.183105,104814
0.000732,0.108398,0.997559,-0.305176,104859
-0.000488,0.11084,0.991943,-0.244141,104908
-0.000488,0.108398,0.994141,-0.061035,104954
-0.00415,0.112061,0.994629,-0.244141,105005
0,0.111328,0.994873,-0.305176,105051
-0.000488,0.110596,0.995117,-0.183105,105099
0.003174,0.111328,0.994629,-0.12207,105144
-0.001709,0.111084,0.992676,-0.244141,105190
0.000488,0.106689,0.99707,-0.305176,105238
-0.001465,0.11084,0.992676,-0.427246,105289
-0.001953,0.108643,0.993652,-0.183105,105340
-0.002441,0.109619,0.98999,-0.366211,105386
-0.000732,0.110107,0.994385,-0.183105,105437
0.001465,0.111328,0.994141,-0.183105,105486
0.003174,0.107666,0.991455,-0.12207,105534
-0.000244,0.111572,0.992188,-0.549316,105584
-0.000977,0.109619,0.993164,-0.366211,105633
0.000732,0.110107,0.994141,-0.427246,105682
-0.001465,0.108643,0.991699,-0.244141,105731
0.000488,0.109863,0.991699,-0.061035,105779
0.000244,0.108887,0.990967,-0.366211,105829
-0.002441,0.110352,0.992188,-0.183105,105874
0.000732,0.109619,0.991211,-0.183105,105921
0.000244,0.109863,0.994141,-0.244141,105967
-0.001221,0.110107,0.995361,-0.183105,106017
-0.002686,0.108887,0.99292,-0.244141,106064
0,0.110107,0.995605,-0.244141,106113
-0.000244,0.106689,0.989746,-0.12207,106160
0.002686,0.109375,0.997803,-0.061035,106205
-0.000977,0.108398,0.995361,-0.183105,106253
0.000244,0.109375,0.993164,-0.244141,106302
-0.002197,0.10791,0.999268,-0.244141,106349
-0.000244,0.108643,0.992432,-0.061035,106395
-0.001953,0.109619,0.989746,-0.183105,106441
-0.001465,0.107422,0.997314,-0.12207,106490
0.000732,0.109619,0.993408,-0.183105,106536
0.001465,0.109863,0.993164,-0.244141,106588
-0.001709,0.110352,0.994141,-0.183105,106636
0.000977,0.111084,0.994629,-0.305176,106685
-0.000488,0.107422,0.991943,-0.366211,106731
-0.003418,0.109375,0.994141,-0.305176,106781
0.000244,0.109375,0.992432,-0.244141,106826
0,0.108887,0.993408,-0.183105,106876
-0.003906,0.111572,0.996338,0,106922
0,0.111084,0.994873,-0.244141,106969
-0.001221,0.110596,0.995361,-0.305176,107014
-0.001953,0.11084,0.994629,-0.244141,107063
-0.001953,0.111328,0.993652,-0.305176,107112
-0.001953,0.109375,0.991455,-0.366211,107160
-0.000732,0.108643,0.994629,-0.183105,107208
-0.000977,0.10791,0.991211,-0.366211,107259
-0.000244,0.109375,0.990234,-0.244141,107307
-0.003662,0.108643,0.994141,-0.244141,107360
0.003174,0.107422,0.99292,-0.366211,107412
-0.001709,0.111084,0.996094,-0.183105,107462
-0.001709,0.110352,0.993164,-0.366211,107510
-0.001709,0.108887,0.993652,-0.183105,107559
-0.002686,0.110107,0.993652,-0.061035,107606
0.000244,0.108154,0.998047,-0.12207,107654
-0.002197,0.110107,0.994385,-0.305176,107700
0.001709,0.108887,0.99292,-0.366211,107748
0.001709,0.108643,0.99292,-0.305176,107798
0.000488,0.10791,0.99292,-0.305176,107850
-0.001465,0.107666,0.993164,-0.061035,107899
0.002441,0.109863,0.994629,-0.366211,107948
-0.003418,0.11084,0.993652,-0.427246,107999
-0.000488,0.109375,0.992188,-0.488281,108047
0.002686,0.108643,0.995605,-0.183105,108098
-0.00293,0.110596,0.992432,-0.549316,108143
0.000977,0.109863,0.991943,-0.183105,108192
-0.001465,0.108154,0.992188,-0.244141,108240
-0.00293,0.112793,0.995605,-0.183105,108288
-0.00293,0.109619,0.990479,-0.305176,108333
0.001465,0.109131,0.996826,-0.12207,108379
-0.000732,0.110596,0.998291,-0.305176,108427
0.003174,0.109375,0.995361,-0.244141,108475
-0.002197,0.105957,0.993896,-0.366211,108524
-0.003662,0.103027,0.993164,-0.183105,108571
-0.003906,0.110596,0.994629,-0.183105,108618
-0.00293,0.107666,0.996826,-0.305176,108666
-0.000244,0.111084,0.995117,-0.244141,108715
0.000977,0.109375,0.994141,-0.366211,108763
-0.001709,0.108643,0.993652,-0.366211,108810
-0.000732,0.111084,0.995117,-0.244141,108858
-0.001465,0.107666,0.994873,-0.12207,108911
0.000977,0.105713,0.994141,-0.183105,108962
-0.000977,0.106201,0.997803,-0.427246,109007
-0.000244,0.107666,0.993408,-0.366211,109054
-0.002441,0.110596,0.994873,-0.244141,109105
0.000244,0.111572,0.991699,-0.183105,109152
0.001709,0.111084,0.992432,-0.183105,109199
-0.000732,0.107178,0.993652,-0.183105,109250
-0.001709,0.109375,0.994141,-0.549316,109298
-0.000244,0.111572,0.994385,-0.244141,109345
-0.003662,0.108154,0.992188,-0.12207,109393
-0.002441,0.106934,0.99292,-0.183105,109438
-0.001221,0.111084,0.996094,-0.244141,109484
0.002686,0.108398,0.991699,-0.244141,109535
0.000244,0.108154,0.996094,-0.12207,109583
0.001953,0.108643,0.993896,-0.183105,109633
0.000732,0.111084,0.99292,-0.366211,109679
0.000244,0.108887,0.991211,-0.305176,109727
-0.000488,0.109375,0.996338,-0.366211,109772
-0.001221,0.110352,0.99292,-0.305176,109821
0.001953,0.112061,0.993652,-0.427246,109869
-0.001465,0.107666,0.991943,-0.305176,109915
-0.002197,0.109375,0.995605,-0.305176,109962
-0.001465,0.107178,0.994629,-0.366211,110014
-0.003418,0.11084,0.996094,-0.183105,110063
0.000488,0.10791,0.993164,-0.305176,110111
-0.003174,0.109863,0.994385,-0.244141,110158
-0.001221,0.110107,0.992432,-0.12207,110206
-0.001709,0.11084,0.997559,-0.244141,110253
-0.000488,0.109863,0.996094,-0.305176,110302
-0.002686,0.111816,0.995117,-0.12207,110351
-0.000488,0.111572,0.994629,-0.305176,110399
0,0.110596,0.993896,-0.244141,110448
-0.000488,0.109131,0.993652,-0.427246,110494
-0.000244,0.109619,0.992676,-0.12207,110543
0.000244,0.109863,0.996826,-0.061035,110589
-0.000977,0.113037,0.99292,-0.305176,110638
0.000244,0.108398,0.99292,-0.12207,110687
-0.001465,0.109863,0.998779,-0.183105,110737
-0.002441,0.110352,0.995117,-0.366211,110781
0.001465,0.109131,0.998779,-0.305176,110826
0,0.109619,0.992676,-0.305176,110874
-0.001465,0.107666,0.995117,-0.244141,110921
0,0.106445,0.99585,-0.366211,110968
0.000977,0.110596,0.994873,-0.183105,111013
0.001465,0.108643,0.996094,-0.305176,111059
0.002686,0.109375,0.991699,-0.183105,111108
-0.003174,0.109619,0.991943,-0.305176,111157
-0.002686,0.111572,0.996094,-0.061035,111205
-0.003906,0.105957,0.99292,-0.12207,111254
0.001221,0.108887,0.992432,-0.244141,111302
-0.002686,0.109375,0.997559,-0.244141,111348
-0.001709,0.110352,0.992676,-0.305176,111399
-0.001221,0.11084,0.995605,-0.12207,111448
-0.000977,0.108887,0.994385,-0.244141,111496
0.000732,0.112549,0.991699,-0.244141,111541
-0.001709,0.108154,0.991455,-0.427246,111588
0.000244,0.109619,0.996582,-0.183105,111636
-0.003418,0.111572,0.990234,-0.244141,111684
-0.002197,0.109131,0.995605,-0.305176,111730
-0.002441,0.10791,0.994141,-0.305176,111778
-0.000977,0.11084,0.994141,-0.305176,111826
0.000244,0.109375,0.993164,-0.244141,111875
0.001465,0.105957,0.990723,-0.366211,111921
-0.001465,0.109131,0.993896,-0.305176,111968
-0.000977,0.110107,0.993652,-0.183105,112015
-0.000732,0.111084,0.993896,-0.366211,112065
-0.003418,0.109619,0.996826,-0.12207,112113
0.000732,0.111572,0.991211,-0.366211,112159
-0.004883,0.108154,0.990967,-0.183105,112207
-0.004395,0.11084,0.993408,-0.549316,112255
0.000977,0.10791,0.990723,-0.244141,112305
-0.001709,0.107666,0.99585,-0.183105,112354
-0.000244,0.106689,0.993408,-0.244141,112402
-0.003418,0.109131,0.993652,-0.366211,112454
-0.001221,0.11084,0.996338,-0.244141,112499
-0.000244,0.10791,0.993896,-0.12207,112548
0.000244,0.108154,0.998779,-0.183105,112599
-0.001221,0.108398,0.992188,-0.366211,112646
-0.000488,0.108398,0.991455,-0.427246,112693
0.00293,0.109619,0.995605,-0.183105,112739
-0.002441,0.110352,0.994385,-0.244141,112788
-0.003174,0.108887,0.993408,-0.183105,112835
0.000732,0.108398,0.993408,-0.305176,112884
-0.001709,0.107422,0.993164,-0.12207,112932
0.000488,0.109375,0.997559,-0.244141,112981
0.001465,0.108154,0.993652,-0.183105,113027
-0.002197,0.110107,0.995361,-0.305176,113075
-0.001221,0.110107,0.994385,-0.305176,113122
-0.002686,0.109375,0.994141,-0.183105,113170
-0.004883,0.110596,0.994629,-0.12207,113220
-0.000244,0.109619,0.995361,-0.305176,113270
-0.001221,0.109375,0.993896,-0.366211,113319
-0.003662,0.108643,0.992676,-0.305176,113369
-0.00293,0.108398,0.998535,-0.366211,113416
-0.000732,0.109863,0.993652,-0.244141,113463
0,0.108398,0.995605,-0.244141,113510
0.000244,0.112305,0.994629,-0.366211,113557
0.001709,0.108154,0.992432,-0.305176,113606
-0.00415,0.109863,0.992432,-0.244141,113654
0,0.112061,0.993652,-0.305176,113705
-0.002197,0.109375,0.997559,-0.244141,113751
-0.000977,0.109619,0.993896,-0.244141,113799
0.000244,0.106689,0.991699,-0.183105,113845
-0.003418,0.105957,0.993896,-0.244141,113893
-0.001221,0.109619,0.99585,-0.427246,113941
0.000488,0.109131,0.991455,-0.366211,113988
-0.000488,0.109619,0.992676,-0.305176,114037
-0.001953,0.108643,0.993896,-0.244141,114085
0.001953,0.110352,0.995361,-0.244141,114135
-0.001221,0.107178,0.99292,-0.366211,114186
-0.000977,0.110596,0.991943,-0.244141,114233
-0.001221,0.111328,0.993896,-0.244141,114280
-0.002197,0.109619,0.994385,-0.244141,114327
-0.000244,0.109863,0.995117,-0.12207,114373
0,0.11084,0.99292,-0.305176,114418
0.001221,0.109375,0.996826,-0.305176,114463
-0.00293,0.112793,0.991211,-0.244141,114509
-0.00293,0.108643,0.99292,-0.427246,114556
-0.00293,0.110107,0.994629,-0.366211,114604
-0.000488,0.109863,0.998047,-0.366211,114654
0.000244,0.107666,0.996338,-0.305176,114702
-0.000977,0.108154,0.996582,-0.183105,114753
-0.001709,0.109375,0.99585,-0.12207,114802
-0.001953,0.109863,0.992188,-0.12207,114846
-0.005371,0.108643,0.994385,-0.183105,114897
0.001953,0.108643,0.997559,-0.305176,114946
0.000977,0.107422,0.992676,0.061035,114994
-0.000244,0.110352,0.99292,-0.305176,115045
0.002441,0.108643,0.993652,0,115094
0.002686,0.106934,0.994629,-0.305176,115143
-0.000732,0.111084,0.99585,-0.305176,115192
-0.001465,0.109131,0.99585,-0.183105,115244
-0.003174,0.112793,0.993164,-0.305176,115291
-0.000977,0.111572,0.993896,-0.12207,115340
-0.000488,0.107666,0.99292,-0.305176,115387
-0.002197,0.109863,0.993896,-0.366211,115438
0.000732,0.109619,0.997314,-0.183105,115485
0.001953,0.108887,0.99585,-0.244141,115534
-0.002197,0.108398,0.994141,-0.183105,115583
0.000732,0.10791,0.995117,-0.183105,115629
-0.003174,0.108887,0.997314,-0.183105,115676
-0.000244,0.109619,0.996582,-0.305176,115725
-0.000977,0.110352,0.993164,-0.12207,115773
0.000488,0.109619,0.995117,-0.305176,115820
-0.000488,0.109619,0.993896,0,115867
-0.003174,0.10791,0.993408,0.061035,115912
-0.00293,0.108887,0.995117,-0.244141,115961
-0.002197,0.111084,0.99585,-0.244141,116009
-0.000488,0.108887,0.992188,-0.244141,116061
0.001953,0.107422,0.993896,-0.366211,116106
-0.003662,0.10791,0.992188,-0.244141,13483
0.001465,0.108154,0.994141,-0.12207,13534
0.000977,0.108643,0.993408,-0.12207,13584
0.000977,0.10791,0.993408,-0.366211,13632
-0.00293,0.105957,0.99292,-0.244141,13677
-0.000732,0.109375,0.992676,0,13725
0.001221,0.110352,0.995117,-0.244141,13770
0.000244,0.110596,0.993896,-0.366211,13819
0.002441,0.111572,0.994629,-0.244141,13871
-0.000732,0.108643,0.993408,-0.183105,13917
-0.001221,0.106445,0.99585,-0.183105,13967
-0.001709,0.109131,0.99292,-0.183105,14017
-0.000977,0.108398,0.994873,-0.12207,14063
-0.000488,0.109863,0.993408,-0.244141,14108
-0.003662,0.108887,0.992188,-0.12207,14157
-0.001709,0.108887,0.994629,-0.366211,14204
-0.001221,0.112305,0.994385,-0.366211,14250
0.000732,0.109619,0.993164,-0.183105,14297
-0.000977,0.105469,0.996582,-0.12207,14345
-0.002197,0.111084,0.991699,-0.366211,14393
0.000977,0.109375,0.997314,-0.244141,14440
-0.000244,0.108154,0.993896,-0.488281,14487
0.000732,0.109375,0.993408,-0.427246,14535
-0.00293,0.110596,0.994629,-0.12207,14583
0.003174,0.109375,0.993652,-0.366211,14633
0.00293,0.111084,0.994141,-0.305176,14677
0.000732,0.108154,0.99707,-0.305176,14723
-0.000977,0.107422,0.993408,-0.244141,14773
-0.000488,0.110596,0.996094,-0.183105,14819
0.000977,0.109375,0.994873,-0.244141,14867
-0.001953,0.111328,0.992432,-0.183105,14913
-0.000244,0.109375,0.991943,-0.183105,14962
0.000732,0.111328,0.999756,-0.244141,15007
-0.000977,0.107422,0.99585,-0.305176,15051
0.001221,0.112061,0.994385,-0.183105,15097
-0.000732,0.106445,0.994141,-0.244141,15146
-0.00293,0.109131,0.996826,-0.305176,15193
-0.001221,0.106445,0.991455,-0.244141,15239
-0.002197,0.106934,0.99292,-0.366211,15287
-0.00293,0.10791,0.993652,-0.12207,15334
-0.000244,0.109131,0.994629,-0.183105,15384
-0.002441,0.110352,0.995117,-0.366211,15431
0.001221,0.108643,0.988525,-0.488281,15483
-0.000244,0.109863,0.993896,-0.244141,15533
-0.003174,0.110352,0.994141,-0.183105,15581
0.000732,0.109863,0.994141,-0.305176,15627
-0.003906,0.105713,0.994873,-0.366211,15676
0.000244,0.108887,0.995361,-0.12207,15727
-0.000732,0.105469,0.994873,-0.244141,15774
0.000488,0.109375,0.992432,-0.427246,15823
0.000488,0.11084,0.993408,-0.183105,15869
-0.001953,0.111816,0.992432,-0.366211,15914
-0.000977,0.108154,0.993408,-0.305176,15962
0.001465,0.111084,0.995361,-0.061035,16011
-0.000488,0.107178,0.991699,-0.305176,16057
-0.005859,0.111084,0.994385,-0.061035,16105
-0.000732,0.107666,0.991455,-0.183105,16154
0.001953,0.111816,0.996826,-0.305176,16201
0.000244,0.109375,0.995605,-0.244141,16247
0.00415,0.113281,0.99292,-0.366211,16292
-0.00415,0.105225,0.99585,-0.244141,16339
0.002686,0.111816,0.992432,-0.305176,16387
0,0.107666,0.995361,-0.366211,16434
0.000488,0.108643,0.993896,-0.427246,16484
-0.001709,0.109375,0.996338,-0.305176,16533
-0.000977,0.108643,0.99292,-0.183105,16582
0.000244,0.107178,0.99292,-0.305176,16632
-0.000977,0.111572,0.991699,-0.244141,16681
-0.005371,0.108887,0.995605,-0.061035,16729
-0.001221,0.111328,0.992432,-0.366211,16776
0,0.102783,0.996338,-0.305176,16828
0.001953,0.110352,0.991455,-0.12207,16875
0.001709,0.108154,0.996094,-0.366211,16925
0.000488,0.111328,0.991455,-0.12207,16974
0.00415,0.107178,0.990723,-0.061035,17023
-0.001709,0.110596,0.994141,-0.305176,17073
-0.002686,0.109619,0.994141,-0.244141,17124
-0.002197,0.109619,0.993408,-0.244141,17172
0.00293,0.110107,0.993164,-0.12207,17222
0,0.109619,0.991211,-0.183105,17274
-0.000244,0.111328,0.995117,-0.366211,17319
0.000732,0.108398,0.994141,-0.366211,17365
0.001221,0.112549,0.996338,-0.305176,17412
-0.000244,0.10791,0.993652,-0.244141,17458
0.000732,0.111328,0.992432,-0.366211,17509
-0.002197,0.107422,0.99292,-0.244141,17556
-0.001709,0.106689,0.998535,0,17600
-0.004395,0.109863,0.99292,-0.366211,17647
-0.000732,0.110107,0.992188,-0.183105,17694
-0.000488,0.111328,0.996826,0.061035,17742
-0.000488,0.111816,0.996338,-0.244141,17790
-0.003418,0.104736,0.993652,0,17838
0.000488,0.112061,0.994141,-0.244141,17883
-0.001465,0.106201,0.993164,-0.366211,17929
-0.003174,0.113281,0.995117,-0.244141,17975
0.001221,0.104492,0.998047,-0.366211,18021
-0.002686,0.105469,1.004883,-0.427246,18069
0,0.108887,0.990234,-0.244141,18116
-0.000244,0.106445,0.987793,-0.366211,18162
-0.001221,0.108887,1.003174,-0.183105,18209
0.000488,0.109619,0.994141,-0.366211,18259
0.000732,0.112793,0.999512,-0.183105,18309
-0.002441,0.106445,0.992432,-0.366211,18359
-0.000488,0.112793,0.994385,-0.12207,18409
-0.000244,0.110352,0.996582,-0.305176,18457
-0.002441,0.113037,0.994141,-0.244141,18505
-0.004639,0.106689,0.98999,-0.366211,18551
-0.000977,0.112793,0.993896,-0.366211,18597
-0.001709,0.109863,0.994385,-0.305176,18643
0,0.107666,0.991943,-0.183105,18690
-0.002197,0.10791,0.994141,-0.366211,18736
-0.001221,0.108887,0.991943,-0.183105,18781
-0.001709,0.109863,0.994873,-0.244141,18829
-0.001709,0.106689,0.995605,-0.488281,18879
-0.000977,0.109131,0.996826,-0.183105,18929
-0.000732,0.112793,0.99292,-0.488281,18978
-0.001221,0.105713,0.995605,-0.305176,19026
-0.005127,0.110352,0.991699,-0.183105,19071
0.001221,0.110352,0.998047,-0.305176,19119
-0.001465,0.109375,0.996582,-0.305176,19165
-0.000732,0.108643,0.991211,-0.488281,19211
0.000732,0.108643,0.993408,-0.305176,19261
0.001221,0.111572,0.994873,-0.366211,19307
-0.002197,0.107422,0.993164,-0.183105,19354
0.00293,0.111084,0.994873,-0.183105,19403
0.000488,0.112305,0.996826,-0.305176,19454
-0.001953,0.111572,0.990723,-0.305176,19504
-0.000244,0.107422,0.993408,-0.244141,19554
-0.002197,0.108154,0.994141,-0.183105,19602
0.002441,0.108154,0.994629,-0.305176,19648
0.001709,0.107178,0.991455,-0.244141,19695
0,0.10791,0.993164,-0.305176,19745
-0.000732,0.110352,0.991211,-0.244141,19793
0,0.112549,0.994629,-0.12207,19840
-0.000732,0.109131,0.996582,-0.305176,19890
-0.001221,0.112061,0.98877,-0.183105,19938
0.000488,0.113037,0.997314,-0.244141,19987
-0.003418,0.10376,0.986572,-0.488281,20033
-0.000977,0.113525,1.004395,-0.183105,20081
-0.000977,0.106689,0.99292,-0.366211,20130
-0.003418,0.109131,0.993896,-0.244141,20177
0.00293,0.108887,0.993164,-0.183105,20222
-0.000244,0.108154,0.995361,-0.305176,20274
-0.002441,0.108643,0.995605,-0.061035,20321
0.003418,0.106689,0.991943,-0.244141,20365
-0.004395,0.110596,0.994629,-0.183105,20413
-0.002197,0.110352,0.994141,-0.366211,20460
0.001953,0.113037,0.995605,-0.305176,20506
-0.000977,0.108154,0.994873,-0.305176,20553
0.000488,0.111328,0.993652,-0.366211,20601
0.000732,0.109375,0.991943,-0.183105,20649
0.001221,0.106689,0.996338,-0.305176,20694
-0.000732,0.105957,0.992188,-0.12207,20741
0.000488,0.109863,0.994873,-0.366211,20787
0.000488,0.108887,0.996094,-0.305176,20835
-0.000488,0.108643,0.993408,-0.244141,20881
0.002686,0.109863,0.994629,-0.061035,20929
-0.002441,0.11084,0.993408,-0.244141,20974
0.002197,0.104492,0.999023,-0.366211,21023
0.001221,0.108398,0.993164,-0.305176,21075
0,0.11084,0.993164,-0.427246,21123
0.002441,0.111328,0.998535,-0.183105,21172
-0.001465,0.10791,0.990234,-0.366211,21221
-0.00293,0.107422,0.996582,-0.305176,21267
-0.004883,0.106445,0.999023,-0.366211,21315
-0.000244,0.105469,0.996826,-0.305176,21362
-0.001465,0.108398,0.989502,-0.061035,21410
-0.001221,0.107178,0.994385,-0.427246,21459
0.000977,0.108643,0.995117,-0.427246,21511
-0.000977,0.109863,0.995117,-0.244141,21558
0.000488,0.108154,0.992676,-0.183105,21606
-0.00293,0.109375,0.996826,-0.427246,21652
-0.000977,0.107422,0.998291,-0.244141,21704
-0.000977,0.108643,0.994629,-0.305176,21751
0.001465,0.109619,0.990723,-0.244141,21795
0.000488,0.110352,0.995117,-0.305176,21843
0.001709,0.108643,0.996094,-0.244141,21889
0.002441,0.109131,0.996338,-0.305176,21934
-0.001953,0.108643,0.997559,-0.183105,21983
-0.001953,0.112305,0.994629,-0.183105,22028
-0.002441,0.11084,0.991455,-0.305176,22078
0.000488,0.109863,0.993652,-0.183105,22128
-0.001709,0.11084,0.994873,-0.366211,22180
-0.000244,0.112793,0.994873,-0.427246,22229
-0.001709,0.108643,0.992188,-0.244141,22277
-0.000977,0.111084,0.994141,-0.244141,22325
-0.001465,0.111816,0.99585,-0.305176,22372
-0.000732,0.111572,0.990723,-0.183105,22422
-0.00415,0.10791,0.994873,-0.244141,22470
0,0.107666,0.995605,-0.183105,22517
-0.000732,0.107666,0.993164,-0.183105,22564
-0.001953,0.109131,0.994385,-0.183105,22611
-0.002441,0.106934,0.995117,-0.305176,22660
-0.001221,0.108887,0.994629,-0.305176,22709
-0.001221,0.109863,0.994141,-0.244141,22756
0.001221,0.109863,0.994629,-0.244141,22801
-0.003662,0.106445,0.990967,-0.183105,22849
-0.000244,0.108887,0.994873,-0.183105,22897
-0.003418,0.11084,0.993164,-0.305176,22941
0.000244,0.109375,0.992432,-0.305176,22990
-0.001709,0.107178,0.98999,-0.305176,23038
0.000732,0.109619,0.99292,-0.12207,23085
0.004639,0.109375,0.99585,-0.12207,23133
-0.00293,0.108887,0.996338,-0.244141,23180
0.000488,0.108398,0.993652,-0.244141,23231
0,0.11084,0.996094,-0.427246,23281
-0.001953,0.10791,0.995605,-0.183105,23329
-0.001953,0.113037,0.992676,-0.12207,23379
-0.002686,0.107666,0.994629,-0.366211,23427
0.000977,0.10791,0.994141,-0.244141,23475
0.000244,0.111328,0.994385,-0.244141,23521
0.000977,0.108398,0.994873,-0.488281,23571
0.00293,0.106689,0.995605,-0.427246,23619
-0.004395,0.106934,0.991943,-0.12207,23667
0.000488,0.110107,0.993652,-0.12207,23716
-0.001221,0.108643,0.998291,-0.183105,23763
-0.000244,0.111084,0.993408,-0.183105,23812
-0.000244,0.110107,0.993408,-0.183105,23864
0.001465,0.109375,0.999268,-0.244141,23914
-0.000244,0.111328,0.992676,-0.12207,23965
-0.00293,0.104492,0.989258,-0.12207,24020
0.002197,0.10791,0.996826,-0.244141,24065
-0.000977,0.110107,0.998291,-0.061035,24115
0.003174,0.108154,0.990967,-0.244141,24162
-0.000732,0.106689,0.993652,-0.305176,24208
-0.001953,0.107666,0.995605,-0.305176,24256
-0.000244,0.112793,0.998047,-0.183105,24303
-0.003418,0.107178,0.991699,-0.183105,24349
0.000732,0.109863,0.990967,-0.305176,24399
-0.003662,0.108154,0.994141,-0.305176,24444
0.003662,0.108887,0.997803,-0.366211,24493
-0.00293,0.105225,0.989746,-0.244141,24539
-0.001221,0.111816,0.991699,-0.183105,24588
0.000977,0.107666,0.995117,-0.183105,24635
-0.001953,0.108887,0.994141,-0.366211,24681
-0.003418,0.106445,0.993164,-0.183105,24727
0.000732,0.113281,0.993896,-0.12207,24774
-0.001465,0.109131,0.998291,-0.183105,24822
0.001221,0.107422,0.991455,-0.244141,24871
0.002686,0.106445,0.996826,-0.488281,24919
-0.001221,0.109375,0.994385,-0.366211,24969
-0.002441,0.108643,0.99585,-0.244141,25016
0,0.108154,0.995361,-0.366211,25066
0.001709,0.109375,0.995605,-0.183105,25116
-0.001953,0.112549,0.99585,-0.244141,25162
0.000732,0.108154,0.994141,-0.183105,25209
-0.000732,0.111084,0.990479,0,25257
-0.001221,0.112061,0.99707,-0.305176,25302
-0.004639,0.108887,0.996582,-0.244141,25348
0.001221,0.110107,0.995361,-0.244141,25395
-0.001709,0.105713,0.990479,-0.305176,25442
-0.003418,0.111084,0.99585,-0.305176,25491
-0.002441,0.109131,0.99585,-0.12207,25541
-0.002197,0.110352,0.991211,-0.12207,25590
-0.001465,0.111084,0.993896,-0.244141,25635
-0.001953,0.107178,0.998535,0,25681
0,0.110596,0.996094,-0.12207,25727
0,0.106934,0.994629,-0.12207,25771
-0.000244,0.108154,0.99707,-0.244141,25816
0.001221,0.110596,0.99292,-0.244141,25860
-0.002197,0.109863,0.991943,-0.183105,25907
0.002197,0.110596,0.994385,-0.549316,25959
-0.001465,0.109619,0.99292,-0.183105,26003
-0.000488,0.111328,0.996826,-0.427246,26053
0.001709,0.107422,0.996338,-0.183105,26103
0.000244,0.108154,0.98999,-0.244141,26150
0.001953,0.111572,0.994385,-0.12207,26195
0.001709,0.106689,0.994629,-0.183105,26243
0.001465,0.109619,0.98999,-0.061035,26292
0.000244,0.109619,0.992676,-0.305176,26341
-0.001221,0.112061,0.993408,-0.427246,26390
0.004395,0.108154,0.989746,-0.305176,26444
0.000244,0.112061,0.994873,-0.12207,26493
0.001465,0.106445,0.993408,-0.183105,26540
-0.000732,0.109619,0.99585,-0.244141,26589
-0.003174,0.10791,0.992432,-0.183105,26636
-0.001953,0.109863,0.99292,-0.305176,26681
0.002686,0.108398,0.994629,-0.12207,26727
-0.000732,0.111084,0.989746,-0.244141,26778
0.000244,0.109863,0.995605,-0.305176,26827
0.000488,0.111572,0.996338,-0.305176,26874
-0.000488,0.10791,0.994141,-0.12207,26924
-0.003174,0.105713,0.995605,-0.305176,26973
-0.001221,0.108398,0.989502,-0.366211,27019
-0.002197,0.110107,0.993896,-0.183105,27067
-0.001465,0.107178,0.996582,-0.366211,27113
0,0.10791,0.995117,-0.305176,27162
-0.002686,0.107178,0.993408,-0.12207,27210
0.001953,0.106445,0.996582,-0.244141,27262
-0.001953,0.11084,0.995361,-0.305176,27311
-0.000244,0.106445,0.998535,-0.061035,27358
0.000244,0.108887,0.996094,-0.183105,27405
-0.000244,0.11084,0.995605,-0.427246,27453
-0.001465,0.110352,0.998291,-0.183105,27499
0.000977,0.108643,0.995605,-0.183105,27546
0.002197,0.108154,0.996826,-0.305176,27596
0.001221,0.108887,0.994385,-0.305176,27643
-0.001953,0.108154,0.996582,-0.183105,27691
-0.001465,0.107422,0.994141,-0.427246,27735
0.000244,0.110107,0.991943,-0.366211,27784
-0.003662,0.111084,0.994385,-0.244141,27833
-0.003906,0.10791,0.99585,-0.244141,27879
0,0.106689,0.991943,-0.305176,27928
-0.001221,0.111572,0.994873,-0.12207,27973
-0.001465,0.109619,0.997559,-0.244141,28022
0.000488,0.110352,0.994873,-0.12207,28070
0,0.105469,0.995605,-0.427246,28118
0.003174,0.111328,0.997803,-0.244141,28165
-0.000977,0.109375,0.995605,-0.366211,28210
-0.000732,0.110107,0.990723,-0.244141,28259
0.000244,0.111816,0.994629,-0.12207,28309
-0.001221,0.11084,0.994385,-0.366211,28356
0.001465,0.108887,0.992676,-0.366211,28408
-0.003662,0.110107,0.992432,-0.366211,28455
-0.002197,0.110107,0.993652,-0.366211,28502
-0.002441,0.110352,0.99292,-0.12207,28548
0.000244,0.11084,0.992676,-0.488281,28594
0.000732,0.109863,0.99292,-0.244141,28642
-0.002441,0.108398,0.994385,-0.183105,28692
0.000732,0.108887,0.994629,-0.427246,28739
-0.001709,0.112061,0.994873,-0.305176,28786
-0.002441,0.113525,0.992432,-0.244141,28833
-0.000732,0.109863,0.996338,-0.427246,28878
0.002441,0.108398,0.994873,-0.366211,28926
-0.002197,0.111572,0.995117,-0.183105,28974
-0.000488,0.108398,0.998535,-0.12207,29022
-0.001953,0.110352,0.99292,-0.183105,29071
-0.002686,0.109863,0.993408,-0.061035,29118
-0.001221,0.108887,0.994629,-0.183105,29170
0.000732,0.11084,0.993652,-0.366211,29220
-0.001465,0.11084,0.997803,-0.305176,29266
0.000488,0.109619,0.994141,-0.305176,29312
-0.001465,0.108154,0.99292,0,29358
-0.000488,0.110596,0.994873,-0.366211,29411
0.002197,0.107422,0.994873,-0.183105,29460
-0.002441,0.107666,0.994873,-0.488281,29508
0.000732,0.108398,0.993408,-0.244141,29558
-0.000732,0.108154,0.996338,-0.244141,29605
0.000244,0.110352,0.995117,-0.244141,29650
0.001465,0.111084,0.992676,-0.12207,29695
-0.000244,0.109863,0.991943,-0.305176,29744
0,0.108887,0.99292,-0.427246,29789
0,0.107666,0.993652,-0.183105,29837
0.000488,0.103027,0.990479,-0.366211,29883
-0.000732,0.109131,0.994873,-0.061035,29931
-0.001953,0.111572,0.993408,-0.12207,29980
-0.003662,0.106934,0.99707,-0.366211,30031
0.001221,0.110596,0.991943,-0.244141,30079
-0.000977,0.107422,0.99292,-0.244141,30127
0.000244,0.109863,0.993408,-0.366211,30173
-0.001221,0.106934,0.994385,-0.366211,30223
-0.000244,0.112305,0.995605,-0.244141,30269
-0.001465,0.10791,0.993408,-0.12207,30315
-0.001465,0.110107,0.99292,-0.244141,30365
0.000244,0.107422,0.98999,-0.305176,30409
-0.000732,0.105957,0.99585,-0.305176,30455
-0.001953,0.109619,0.996094,-0.183105,30502
0.000732,0.10791,0.99585,-0.244141,30553
-0.003906,0.108398,0.994141,-0.305176,30600
-0.002441,0.10791,0.994141,-0.183105,30646
0.000244,0.109863,0.995361,-0.427246,30694
0,0.109619,0.996338,-0.244141,30742
0,0.11084,0.99707,-0.244141,30789
0.000488,0.109619,0.994629,-0.244141,30835
-0.000244,0.112305,0.98877,-0.12207,30880
-0.001709,0.107422,0.994873,-0.183105,30929
0.000977,0.109619,0.991699,-0.305176,30977
-0.00293,0.110352,0.992676,-0.366211,31023
-0.003418,0.109619,0.992188,-0.061035,31070
-0.004639,0.109131,0.994141,-0.183105,31121
0.003418,0.108398,0.993652,-0.305176,31169
0,0.108887,0.994141,-0.244141,31216
0.000244,0.107422,0.994141,-0.244141,31262
-0.002197,0.11084,0.994385,-0.305176,31309
-0.00293,0.108154,0.993408,-0.12207,31360
-0.001465,0.11084,0.992676,-0.366211,31409
0.000977,0.111084,0.996582,-0.305176,31458
-0.003418,0.110352,0.99585,-0.12207,31505
0.001221,0.108887,0.992676,-0.183105,31551
0,0.109619,0.994873,-0.061035,31600
0.001221,0.108154,0.993408,-0.305176,31646
-0.003174,0.105957,0.993164,-0.244141,31693
0.000732,0.112549,0.992432,-0.366211,31742
0.001221,0.109863,0.996338,-0.183105,31790
-0.002441,0.109131,0.994141,-0.12207,31837
0,0.110107,0.994385,-0.366211,31882
0.000488,0.109863,0.993652,-0.366211,31929
-0.001221,0.110107,0.996094,-0.183105,31977
0.001221,0.107178,0.993408,-0.305176,32023
0,0.107666,0.995117,-0.427246,32073
0.000244,0.108154,0.992432,-0.183105,32123
0.002197,0.106445,0.99585,-0.305176,32173
-0.000488,0.109863,0.992432,-0.305176,32219
0.000732,0.108154,0.994629,-0.244141,32267
-0.003174,0.11084,0.992676,-0.244141,32317
0.000488,0.107422,0.992188,-0.366211,32368
-0.003906,0.111328,0.995605,-0.183105,32415
0.002197,0.105469,0.995605,-0.183105,32462
-0.003662,0.108398,0.996094,-0.427246,32512
-0.001709,0.112549,0.994629,-0.183105,32564
-0.002686,0.109619,0.99585,-0.427246,32610
-0.002441,0.111084,0.994141,-0.12207,32658
-0.001221,0.10791,0.993408,-0.305176,32705
0,0.10791,0.99585,-0.061035,32753
0.000244,0.111816,0.996582,-0.305176,32805
0.002686,0.11084,0.996826,-0.244141,32856
-0.001709,0.110352,0.992188,-0.244141,32908
-0.002441,0.111816,0.993896,-0.183105,32958
0.001465,0.109863,0.994873,-0.12207,33004
0.000977,0.111328,0.994141,-0.366211,33050
-0.000732,0.110596,0.994873,-0.305176,33094
0.001953,0.112793,0.992432,-0.366211,33139
-0.000732,0.108887,0.99292,-0.244141,33187
0.000732,0.108154,0.999268,-0.427246,33234
-0.001221,0.106445,0.993896,-0.305176,33281
-0.002441,0.108154,0.991699,-0.183105,33331
-0.002686,0.112305,0.991211,-0.305176,33381
-0.001221,0.111816,0.990723,-0.366211,33428
-0.000488,0.110107,0.995605,-0.244141,33475
0.000732,0.107422,0.994629,-0.549316,33522
-0.002197,0.106445,0.993408,-0.366211,33569
-0.004883,0.108887,0.992432,-0.183105,33613
0.00415,0.109619,0.992676,-0.366211,33661
0.000244,0.108154,0.994385,-0.183105,33712
-0.001709,0.109131,0.995361,-0.061035,33758
-0.000488,0.110596,0.995117,-0.305176,33806
-0.002441,0.110596,0.990967,-0.427246,33853
0.000244,0.108398,0.993652,-0.183105,33899
0.000488,0.109131,0.99707,-0.244141,33949
-0.001465,0.109863,0.99292,-0.12207,33996
0.000244,0.110596,0.99292,-0.305176,34042
-0.001465,0.107422,0.994141,-0.305176,34087
-0.001709,0.108154,0.994873,-0.183105,34136
0.000488,0.109863,0.996094,-0.183105,34184
-0.001221,0.108887,0.991699,-0.244141,34230
0.000732,0.109619,0.994141,-0.244141,34280
-0.002197,0.109375,0.994385,-0.244141,34330
-0.000244,0.108154,0.994629,-0.305176,34378
-0.00293,0.108398,0.995361,-0.305176,34431
0.000244,0.112793,0.991943,-0.244141,34479
-0.001709,0.109131,0.995361,-0.244141,34526
0.003174,0.107178,0.993164,-0.061035,34573
-0.001709,0.109375,0.995117,-0.305176,34619
-0.002441,0.108398,0.993896,-0.183105,34668
-0.002441,0.111084,0.996338,-0.244141,34715
0.001953,0.106201,0.994873,-0.061035,34764
-0.001953,0.110596,0.995117,-0.427246,34811
-0.003906,0.109863,0.996582,-0.366211,34860
-0.001709,0.109131,0.997803,-0.244141,34910
0.000732,0.108154,0.994141,-0.366211,34955
0.002686,0.109131,0.996338,-0.305176,35002
0.000977,0.109375,0.99292,-0.244141,35051
-0.002441,0.110352,0.994141,-0.305176,35100
-0.000244,0.106445,0.996826,-0.12207,35147
0.002441,0.109863,0.993408,-0.12207,35195
-0.000244,0.109375,0.991455,-0.305176,35246
-0.004395,0.11084,0.995361,-0.366211,35294
0,0.109863,0.996826,-0.244141,35341
-0.002441,0.106201,0.99292,-0.12207,35385
0.001953,0.107422,0.994629,-0.183105,35429
-0.000732,0.109375,0.995605,-0.305176,35480
-0.004395,0.106201,0.991699,-0.244141,35527
0.000732,0.108154,0.998047,-0.366211,35572
0.000244,0.11084,0.991211,-0.244141,35620
0.002441,0.106201,0.998047,-0.366211,35666
0.003418,0.108154,0.993164,-0.305176,35713
-0.000488,0.111328,0.997803,-0.305176,35761
0,0.107422,0.995117,-0.366211,35807
0.002441,0.106934,0.993408,-0.366211,35854
0.001709,0.109619,0.994385,-0.427246,35898
0,0.110352,0.997314,-0.183105,35947
0.001465,0.106689,0.995117,-0.488281,35992
0.000244,0.109863,0.996338,-0.244141,36040
-0.000732,0.109619,0.996826,-0.244141,36088
-0.000732,0.107422,0.994629,-0.305176,36135
-0.001953,0.110352,0.996338,-0.427246,36183
0.000488,0.110596,0.99707,-0.305176,36230
0.000488,0.107178,0.994385,-0.183105,36280
-0.000732,0.112061,0.99292,-0.12207,36331
-0.002686,0.108398,0.993896,-0.12207,36378
-0.000732,0.108887,0.992676,-0.305176,36428
-0.002197,0.110352,0.99585,-0.12207,36479
0.000488,0.111084,0.992188,-0.366211,36530
-0.003418,0.109619,0.998779,-0.12207,36579
0.001953,0.109375,0.994385,-0.305176,36626
-0.001709,0.108154,0.993652,-0.366211,36671
0.000488,0.106689,0.994141,-0.244141,36718
0.000732,0.108887,0.996338,-0.183105,36764
-0.000732,0.106689,0.995117,-0.427246,36810
-0.006348,0.10791,0.990967,-0.244141,36858
0.001953,0.107422,0.99585,-0.244141,36909
-0.000977,0.105713,0.994873,-0.366211,36960
-0.003662,0.108398,0.993408,-0.488281,37008
0,0.106201,0.995361,-0.183105,37060
-0.002441,0.111816,0.996582,-0.183105,37104
0,0.10791,0.995117,-0.244141,37155
-0.002686,0.111328,0.993164,-0.244141,37200
-0.003174,0.106934,0.993164,-0.244141,37248
-0.004639,0.109375,0.994629,-0.305176,37297
-0.000488,0.109131,0.993164,-0.366211,37345
0.001221,0.109619,0.994629,-0.12207,37393
-0.003174,0.11084,0.996582,-0.305176,37444
-0.001465,0.107666,0.99585,-0.305176,37495
-0.000244,0.108887,0.993408,-0.244141,37540
-0.001709,0.105957,0.993652,-0.244141,37588
0.003174,0.105713,0.996582,-0.061035,37636
-0.000732,0.108154,0.993164,-0.244141,37684
-0.004639,0.10791,0.997559,-0.061035,37734
-0.001953,0.105713,0.994629,-0.366211,37783
-0.001953,0.108398,0.99585,-0.12207,37830
0.000977,0.107666,0.996094,-0.305176,37878
-0.004639,0.109375,0.99585,-0.183105,37924
0.001709,0.110352,0.994385,-0.244141,37970
-0.003906,0.108643,0.997314,-0.427246,38017
-0.00293,0.108398,0.991455,-0.427246,38064
0.001221,0.107422,0.994141,-0.183105,38110
0.000244,0.109863,0.994873,-0.183105,38155
-0.000244,0.107666,0.996338,-0.305176,38203
-0.001953,0.11084,0.996582,-0.366211,38249
-0.001953,0.111816,0.993408,-0.183105,38295
-0.000244,0.108643,0.990479,-0.305176,38345
-0.003418,0.108643,0.994629,-0.366211,38392
-0.000732,0.114014,0.994873,-0.244141,38439
-0.003662,0.110352,0.996094,-0.366211,38488
-0.001221,0.108887,0.995361,-0.366211,38535
-0.001953,0.108643,0.993896,-0.244141,38584
-0.000977,0.11084,0.991455,-0.061035,38636
-0.005371,0.105225,0.99585,-0.183105,38683
0.001953,0.111084,0.993408,-0.305176,38730
0.000488,0.106201,0.993652,-0.305176,38776
0.000732,0.110596,0.990967,-0.366211,38829
0.001221,0.109131,0.993164,-0.061035,38875
-0.000488,0.108887,0.992188,-0.244141,38922
0.000488,0.108398,0.994385,-0.305176,38970
0.00293,0.111084,0.993408,-0.183105,39017
-0.002197,0.110596,0.994873,-0.244141,39065
-0.002197,0.110352,0.993164,-0.183105,39114
0.000732,0.109375,0.993164,-0.427246,39163
-0.004395,0.109619,0.994629,-0.305176,39211
-0.002686,0.108154,0.995117,-0.244141,39258
-0.000244,0.108643,0.994629,-0.244141,39307
-0.000488,0.108643,0.990967,0.061035,39352
0.001465,0.108887,0.994873,-0.305176,39400
-0.00293,0.105713,0.993652,-0.366211,39447
-0.001953,0.108887,0.997314,-0.12207,39494
0,0.110352,0.997314,-0.366211,39540
-0.003418,0.109131,0.991455,-0.244141,39586
0.002197,0.111084,0.995117,-0.183105,39636
-0.001221,0.11084,0.991211,-0.183105,39683
-0.002197,0.110107,0.994385,-0.305176,39733
-0.002686,0.108154,0.993164,-0.427246,39781
0.000244,0.108154,0.995605,-0.061035,39827
-0.000244,0.110107,0.994385,-0.244141,39877
0.000732,0.108887,0.992676,-0.183105,39927
0,0.109619,0.992432,-0.183105,39974
-0.001953,0.10791,0.993408,-0.183105,40019
0.000977,0.109131,0.994141,-0.427246,40068
-0.002441,0.107666,0.997559,-0.183105,40113
0.000977,0.111084,0.99585,-0.305176,40165
0.000244,0.107666,0.994629,-0.244141,40210
-0.000488,0.111084,0.995605,-0.427246,40258
-0.000488,0.10791,0.995361,-0.061035,40307
0,0.109619,0.994629,-0.305176,40354
0.001465,0.111572,0.996338,-0.12207,40400
-0.001709,0.105713,0.995361,-0.244141,40448
0.000977,0.108887,0.994141,-0.183105,40495
0.002686,0.109375,0.994141,-0.305176,40541
0.000244,0.108154,0.991699,-0.183105,40592
-0.001709,0.111328,0.994629,-0.244141,40639
-0.004639,0.107666,0.992676,-0.244141,40691
0.000244,0.108154,0.994629,-0.12207,40742
-0.002197,0.108154,0.99707,-0.427246,40792
-0.000977,0.108398,0.993652,-0.244141,40841
-0.002686,0.111816,0.998291,-0.427246,40890
-0.00415,0.110107,0.995605,-0.305176,40938
-0.001953,0.107422,0.993164,-0.183105,40985
0.000977,0.108398,0.994873,-0.305176,41033
0,0.108643,0.995361,-0.244141,41081
-0.003174,0.107422,0.991699,-0.183105,41125
-0.006104,0.108887,0.995361,-0.427246,41174
0.000732,0.110107,0.993164,-0.183105,41220
-0.000977,0.109375,0.992432,-0.244141,41264
0.001709,0.110596,0.996338,-0.183105,41312
0,0.110352,0.993164,-0.244141,41360
0.002686,0.109375,0.994385,-0.366211,41405
-0.003906,0.109863,0.996582,-0.12207,41452
-0.001465,0.109375,0.994385,-0.12207,41498
0.001465,0.108398,0.996338,-0.366211,41546
-0.001709,0.108887,0.993408,-0.244141,41596
-0.000977,0.111816,0.999756,-0.12207,41642
-0.00293,0.110107,0.996338,-0.244141,41692
-0.000244,0.113525,0.997559,-0.244141,41739
-0.003906,0.108643,0.987305,-0.427246,41786
-0.00293,0.107666,0.99707,-0.427246,41836
-0.00415,0.102539,1.012207,-3.540039,41884
0.009277,0.108887,1.015137,-2.990723,41934
0.000732,0.111572,1.00415,-0.793457,41980
0.002686,0.109375,0.998047,-0.244141,42027
0.000732,0.109375,0.992676,-0.305176,42074
-0.000244,0.107178,0.987061,-0.305176,42119
0.000732,0.10498,0.991943,-0.366211,42165
-0.001221,0.106201,0.991699,-0.305176,42212
-0.001709,0.105957,0.99585,-0.183105,42260
-0.002441,0.106201,0.990234,-0.305176,42313
-0.001953,0.105713,0.990234,-0.305176,42362
-0.001465,0.10791,0.990234,-0.183105,42409
0.000977,0.105713,0.989502,-0.305176,42456
0.001221,0.105713,0.990967,-0.488281,42504
0.000732,0.109375,0.991699,-0.366211,42552
0.000488,0.104736,0.991699,-0.183105,42599
-0.002441,0.106445,0.996582,-0.183105,42646
0.001221,0.107666,0.992188,-0.305176,42694
0,0.107666,0.996338,-0.244141,42741
-0.003662,0.107422,0.994385,-0.183105,42789
0.284424,0.22168,0.638672,-41.1377,42837
0.029053,0.084229,1.12793,-14.16016,42887
0.0354,0.03833,1.159668,65.36865,42935
-0.09082,-0.142578,1.219482,-7.629395,42982
0.011719,0.011963,1.005371,14.89258,43032
-0.008057,0.073486,0.143799,-37.23145,43079
-0.063477,0.060303,1.032227,-12.51221,43131
-0.012451,0.018555,0.881104,-19.89746,43177
-0.055176,0.101318,0.996582,-42.05322,43225
-0.026123,0.023926,1.006592,-6.103516,43277
0.014893,-0.010986,1.003906,-18.00537,43325
-0.044189,-0.060791,0.927002,-20.87402,43373
-0.002197,0.013672,1.016357,-13.97705,43418
-0.054932,-0.107178,1.014404,27.83203,43472
0.028564,0.101074,1.01709,39.18457,43519
-0.0354,-0.002686,0.928467,64.81934,43567
0.052246,0.067139,1.10083,-2.990723,43613
0.059082,-0.101074,0.904297,39.36768,43661
-0.031006,0.114746,0.978027,-16.60156,43710
0.020996,0.04248,1.016846,-9.460449,43755
-0.017334,0.039063,1.005615,-10.43701,43804
0.107666,-0.011963,1.064209,-28.44238,43855
-0.587646,0.385742,1.167236,43.21289,43904
-0.083984,0.073486,0.860352,-20.93506,43952
0.009277,0.115723,1.024902,-16.29639,43999
0.010986,0.107178,1.033936,-16.41846,44046
-0.099854,-0.075439,1.30127,-91.55273,44092
-0.613037,0.735596,1.593262,-111.2671,44141
-0.118652,0.642578,1.148438,-175.1099,44189
-0.103271,0.009033,1.177734,-213.9893,44238
0.014648,-0.155762,0.886719,-272.583,44285
0.295898,-0.574707,-0.345947,-114.0137,44335
0.273438,-0.791748,-0.649414,-84.04541,44385
0.338135,-0.874512,-0.945068,-20.87402,44435
0.30127,-0.9104,-0.358398,26.48926,44482
0.229492,-0.603516,-0.25415,41.87012,44526
0.364014,-0.511475,0.423584,136.7798,44576
0.029053,-0.168457,0.920654,136.9629,44624
-0.263184,-0.093994,1.727051,158.1421,44673
-0.694336,0.378662,1.506348,91.00342,44719
-0.681152,0.306152,1.779053,-51.69678,44770
-0.461426,0.25708,1.469482,-132.8735,44818
-0.078857,-0.174072,1.139648,-160.9497,44866
0.123779,-0.191406,0.471191,-235.8398,44915
0.488525,-0.681396,-0.592041,-143.9819,44967
0.56665,-0.914551,-0.758301,-58.65479,45016
0.48877,-1.055908,-0.349609,-14.5874,45064
0.493164,-1.027832,-0.608643,6.774902,45108
0.362549,-0.677979,-0.151367,79.89502,45156
0.282959,-0.243408,0.228516,145.813,45206
0.047852,0.022705,1.25708,224.9756,45254
-0.44751,0.274658,1.58252,17.8833,45302
-0.352783,0.299805,1.613525,8.728027,45355
-0.409424,0.306396,1.573486,-43.09082,45404
-0.369141,0.353271,1.702393,-102.2949,45451
0.047607,-0.023682,0.949951,-185.3027,45499
0.184326,-0.248535,0.884521,-153.2593,45547
0.55542,-0.585938,0.162354,-125.7324,45594
0.654541,-0.980225,-0.130859,-46.56982,45641
0.544678,-0.907959,-0.287109,12.57324,45690
0.365967,-0.741455,-0.094727,77.81982,45739
0.381836,-0.92749,0.220703,95.45898,45787
-0.065918,-0.165527,0.328613,195.8618,45834
-0.447021,0.060791,1.535156,529.4189,45881
-0.317383,1.073486,1.022949,53.03955,45927
-0.852051,0.554443,1.764404,55.96924,45976
-0.347656,0.345459,1.135742,-40.2832,46028
-0.406982,0.15625,1.319824,-97.65625,46076
-0.522705,0.412354,1.154053,-198.4863,46125
-0.168213,-0.04126,0.808594,-232.9102,46172
0.246826,-0.507568,0.566895,-240.0513,46218
0.568359,-0.812256,-0.430176,-113.4644,46265
0.746338,-1.155273,-0.685791,-0.12207,46313
0.69873,-0.909424,-0.330811,37.47559,46360
0.511719,-0.213867,-0.525391,42.05322,46408
-0.296387,0.766357,1.354492,329.6509,46458
-0.912354,0.74585,1.220459,-6.225586,46508
-0.693115,0.781006,1.385986,68.84766,46554
-0.437012,0.634277,1.658203,-98.87695,46601
-0.37085,0.538574,1.012207,-178.3447,46647
-0.106445,0.283936,1.354248,-227.0508,46696
0.529541,-0.213623,0.158691,-300.5371,46747
0.774902,-1.001953,0.011719,-112.915,46795
0.601563,-1.115479,-0.484375,14.16016,46842
0.401611,-0.803223,-0.123047,93.68896,46890
0.187744,-0.638184,0.269287,132.8735,46937
0.187744,-0.542236,0.955078,197.998,46987
-0.369141,0.101563,0.778809,239.1357,47036
-0.640625,0.360107,1.30542,148.8647,47087
-0.695068,0.545898,1.046387,23.19336,47138
-0.539063,0.217285,1.801514,-51.33057,47184
-0.435059,0.248047,1.203369,-123.5962,47233
-0.336426,0.134033,1.016113,-153.1982,47280
-0.125977,-0.112061,0.894531,-188.0493,47326
0.222412,-0.384521,0.390381,-190.3687,47373
0.369629,-0.806885,-0.453857,-105.4688,47421
0.431152,-1.09375,-0.557617,-20.01953,47467
0.200928,-1.005127,-0.553467,18.98193,47517
0.206787,-1.001953,-0.707275,1.708984,47567
0.214111,-0.849121,-0.19458,26.24512,47614
0.250977,-0.781738,-0.41333,3.845215,47662
0.498291,-0.395996,0.613037,94.84863,47709
0.23877,-0.22998,0.616943,109.7412,47753
-0.274902,0.505371,1.059082,163.147,47800
-0.236084,0.590088,1.241699,7.019043,47848
-0.238281,0.569336,1.506592,34.42383,47895
-0.331055,0.662354,1.378662,-57.31201,47947
-0.313721,0.508057,1.431396,-72.08252,47993
-0.063721,0.2146,1.084961,-180.603,48039
-0.067871,0.09082,0.880859,-149.5361,48087
0.238037,-0.344238,0.33374,-159.1797,48136
0.008789,-0.718262,-0.567383,147.0337,48185
-0.282471,-1.019287,-0.534912,60.85205,48231
-0.000977,-1.117188,-0.376709,20.01953,48280
-0.000977,-1.125244,-0.518066,-5.065918,48328
0.055908,-1.069092,-0.38501,-39.00146,48376
0.057373,-0.826172,-0.223633,-42.78564,48424
0.350342,-0.690186,0.131104,-73.97461,48469
0.275391,-0.606201,0.173096,-59.2041,48515
0.669678,-0.248535,0.742676,-126.6479,48561
0.293701,0.046875,0.501465,-150.8789,48608
0.236084,0.371582,1.495361,21.30127,48659
0.123047,0.498047,1.522461,-6.835938,48707
0.061523,0.588135,1.427734,-17.39502,48757
0.074707,0.393066,1.412842,-28.38135,48804
0.117188,0.267822,1.123535,-66.16211,48848
0.147949,0.021729,1.096924,-45.6543,48895
0.143799,-0.080322,0.844238,-43.09082,48941
0.300293,-0.48291,0.374023,-14.5874,48987
0.221924,-0.697266,-0.130615,143.7378,49037
-0.503174,-0.991943,-0.719238,142.8833,49085
-0.213867,-1.041748,-0.612305,49.80469,49135
-0.23877,-1.030762,-0.560547,19.83643,49183
-0.397705,-0.844971,-0.723389,-57.67822,49229
0.020264,-0.869873,-0.194824,-70.73975,49282
0.009521,-0.922363,-0.471436,-131.7139,49330
0.394043,-0.643799,0.336914,-126.0986,49380
0.237549,-0.422607,0.158936,-178.5278,49427
0.361816,-0.030518,1.157471,-139.2822,49480
0.118164,0.099365,1.334229,-63.7207,49526
0.025146,0.033691,1.220459,0.793457,49573
-0.074951,0.178955,1.420166,1.953125,49622
-0.048096,0.142334,1.23584,-14.89258,49668
-0.072021,0.133545,1.127197,-33.99658,49714
0.029785,-0.036377,1.105469,-63.65967,49760
0.087646,-0.234131,1.001709,-78.43018,49808
0.239746,-0.586914,0.523193,-72.75391,49857
0.347412,-0.814209,0.374023,-40.40527,49903
0.390869,-0.963867,0.140869,-0.610352,49950
0.506592,-1.088379,-0.036621,29.60205,49999
0.561279,-1.002686,0.172852,97.65625,50048
0.202148,-0.340576,0.443604,115.4785,50095
0.025879,0.0979,1.165527,99.42627,50141
-0.179688,0.346924,1.424316,32.34863,50188
-0.054932,0.275879,1.347656,-80.32227,50237
0.091064,0.274414,1.355469,-181.0303,50286
0.102295,0.213135,0.785889,-143.0664,50330
0.473877,-0.162842,0.942627,-164.7949,50377
0.519531,-0.32959,0.749268,-65.7959,50424
0.66333,-0.534424,0.727539,-50.90332,50471
0.532715,-0.56543,0.642334,118.9575,50519
0.133057,-0.067871,0.712158,155.1514,50569
0.024902,0.022949,1.208008,96.92383,50618
-0.355469,0.340576,1.28833,40.83252,50663
-0.361328,0.421143,1.200684,-64.81934,50707
-0.157227,0.349854,1.376953,-164.4287,50754
0.461426,-0.096191,0.981445,-177.002,50806
0.760986,-0.643311,0.337158,-60.66895,50854
0.7854,-0.572754,0.518555,8.911133,50905
0.716797,-0.618408,0.373535,141.2354,50953
0.570557,-0.242432,0.623779,147.644,51001
0.152832,0.088379,1.270508,182.6782,51051
-0.14502,0.368896,1.420166,89.11133,51100
-0.049805,0.312744,0.996826,12.57324,51149
-0.083984,0.293213,0.901123,-18.73779,51195
-0.02417,0.269043,1.11377,5.310059,51242
0.040771,0.216309,0.920654,-29.35791,51289
0.091309,0.19165,0.844727,-18.00537,51337
0.255127,0.376465,2.418945,-81.35986,51387
0.032959,0.166016,0.962891,-21.78955,51437
0.017334,0.151367,0.97876,-17.76123,51486
-0.035889,0.17627,1.000244,8.911133,51537
-0.000977,0.124512,0.996094,9.521484,51583
0.004883,0.18335,1.105957,-5.065918,51631
0.016357,0.186279,0.818115,11.23047,51679
0.026855,0.093262,0.864014,32.40967,51728
-0.017822,0.086914,0.909424,28.38135,51775
-0.019531,0.108154,1.00293,38.45215,51821
-0.045898,0.10083,1.005615,24.35303,51869
-0.009277,0.118896,1.018799,5.554199,51917
-0.01001,0.119629,0.999512,-1.77002,51966
-0.006348,0.118164,0.988525,0.12207,52015
-0.005371,0.118408,0.994629,-0.244141,52063
-0.001953,0.094727,0.980225,0.915527,52109
-0.00415,0.123047,0.994385,-0.366211,52157
-0.006104,0.11792,1.004883,-0.244141,52202
-0.003662,0.126465,0.986816,-0.183105,52250
-0.004395,0.118164,0.982178,-0.366211,52301
-0.005127,0.121582,0.995361,0.061035,52350
-0.006836,0.116455,0.99585,-0.305176,52396
-0.003662,0.11792,0.989746,-0.366211,52442
-0.005371,0.118408,0.991943,-0.183105,52489
-0.007324,0.115723,0.993652,-0.305176,52538
-0.008057,0.123047,0.989502,-0.305176,52585
-0.002441,0.120361,0.990479,-0.244141,52636
-0.002686,0.116943,0.995117,-0.488281,52684
-0.002197,0.121094,0.991943,-0.183105,52732
-0.004883,0.120361,0.993652,-0.366211,52781
-0.006104,0.119141,0.994385,-0.061035,52829
-0.005859,0.118896,0.992676,-0.244141,52879
-0.005127,0.118652,0.992188,-0.12207,52925
-0.002197,0.119385,0.993408,-0.183105,52972
-0.005371,0.120361,0.993896,-0.305176,53017
-0.005615,0.119873,0.995117,-0.244141,53068
-0.006104,0.119141,0.992432,-0.305176,53119
-0.004883,0.119141,0.99292,-0.305176,53166
-0.003906,0.117676,0.990234,-0.061035,53212
-0.001221,0.121094,0.992432,-0.366211,53259
-0.00415,0.118408,0.991699,-0.244141,53309
-0.003906,0.119629,0.991211,-0.12207,53354
-0.004883,0.120605,0.991211,-0.244141,53401
-0.004639,0.11792,0.989746,-0.305176,53449
-0.006104,0.118896,0.992188,-0.183105,53496
-0.005127,0.11792,0.991943,-0.183105,53545
-0.003906,0.119385,0.992188,-0.305176,53592
-0.003906,0.121338,0.994629,-0.244141,53641
-0.00415,0.120117,0.991943,-0.305176,53689
-0.006836,0.118896,1,-0.244141,53737
-0.004639,0.120605,0.997559,-0.12207,53781
-0.00708,0.123047,0.99292,-0.12207,53827
-0.003174,0.116943,0.997314,-0.12207,53875
-0.00293,0.125488,0.993164,-0.305176,53921
-0.003662,0.112061,0.983398,-0.244141,53968
-0.003174,0.117432,0.992676,-0.061035,54015
-0.002441,0.12085,0.993408,-0.183105,54062
-0.005615,0.119141,0.996582,-0.366211,54110
-0.003662,0.118896,0.997314,-0.244141,54156
-0.002441,0.112793,0.988281,-0.305176,54202
-0.001953,0.123535,0.997559,-0.183105,54249
-0.003174,0.119629,0.993896,-0.244141,54298
-0.006104,0.120117,0.994385,-0.244141,54346
-0.006592,0.111572,0.989014,-0.366211,54393
-0.004395,0.120117,0.999023,-0.244141,54441
-0.00708,0.11792,0.995605,-0.061035,54488
-0.004883,0.115479,0.989014,-0.427246,54538
-0.001709,0.115479,0.990967,-0.244141,54590
-0.002441,0.121582,0.994873,-0.183105,54639
-0.003418,0.115234,0.994629,-0.244141,54688
-0.006104,0.116943,0.994629,-0.183105,54736
-0.006104,0.117676,0.994141,-0.244141,54785
-0.004395,0.120605,1.016357,-0.244141,54833
-0.00415,0.116211,0.993164,-0.366211,54880
-0.005859,0.121582,0.98999,-0.366211,54926
-0.001953,0.116943,1.001465,-0.183105,54975
-0.006348,0.120605,0.993896,-0.244141,55022
-0.005127,0.11792,0.98999,-0.305176,55073
-0.008301,0.116699,0.994385,-0.366211,55120
-0.006104,0.117432,0.997803,-0.244141,55168
-0.004639,0.118896,0.989502,-0.244141,55216
-0.004883,0.117432,0.99292,-0.305176,55262
-0.00415,0.117676,0.989502,-0.366211,55310
-0.003174,0.116211,0.991699,-0.244141,55358
-0.005859,0.118164,0.993896,-0.305176,55408
-0.003174,0.116455,0.992432,-0.061035,55453
-0.007324,0.11792,0.993896,-0.244141,55498
-0.00415,0.116211,0.993408,-0.183105,55544
-0.00293,0.118652,0.998047,-0.366211,55594
-0.005859,0.117676,0.992188,-0.12207,55644
-0.00415,0.115967,0.993408,-0.366211,55690
-0.00293,0.118652,0.994629,0,55738
-0.00293,0.119873,0.993896,-0.244141,55783
-0.003418,0.120361,0.993164,-0.488281,55832
0,0.118408,0.994629,-0.366211,55879
-0.005127,0.116455,0.989258,-0.366211,55927
-0.000488,0.11792,0.995361,-0.366211,55974
-0.006348,0.118408,0.992188,-0.12207,56024
-0.006104,0.115967,0.99292,-0.183105,56071
-0.005859,0.120117,0.991699,-0.244141,56118
-0.005371,0.118164,0.990479,-0.183105,56163
-0.003906,0.119141,0.99707,-0.366211,56212
-0.004639,0.117188,0.993896,-0.244141,56258
-0.00293,0.117432,0.995361,-0.183105,56307
-0.000732,0.119385,0.992188,-0.366211,56355
-0.004395,0.118652,0.99292,-0.305176,56403
-0.006104,0.11792,0.993408,-0.183105,56450
-0.006104,0.114014,0.993652,-0.12207,56496
-0.006348,0.116943,0.992188,-0.366211,56549
-0.003662,0.117432,0.996094,-0.061035,56598
-0.004639,0.116211,0.993164,0,56648
-0.008545,0.12207,0.991699,-0.305176,56692
-0.006592,0.119385,0.993652,-0.061035,56740
-0.00415,0.117188,0.996582,-0.427246,56788
-0.003906,0.113281,0.993164,-0.12207,56834
-0.00293,0.117676,0.992188,-0.183105,56884
-0.006836,0.118408,0.991943,-0.183105,56934
-0.004395,0.119629,0.994873,-0.305176,56985
-0.003906,0.115234,0.992432,-0.12207,57032
-0.003418,0.11792,0.990234,-0.305176,57079
-0.005615,0.118408,0.98999,-0.488281,57125
-0.002686,0.118896,0.990479,-0.366211,57175
-0.005615,0.119385,0.990723,-0.244141,57221
-0.002686,0.116455,0.995361,-0.305176,57270
-0.004395,0.120117,0.994141,-0.244141,57318
-0.004883,0.117432,0.99707,-0.305176,57366
-0.003906,0.116943,0.992676,-0.183105,57413
-0.005371,0.11792,0.991211,-0.305176,57459
-0.003662,0.114502,0.994629,-0.305176,57508
-0.006836,0.116211,0.989746,-0.305176,57556
-0.003418,0.115234,0.990479,0.061035,57604
-0.002197,0.117676,0.995117,-0.12207,57651
-0.003906,0.118408,0.99292,-0.244141,57697
-0.006836,0.121094,0.990723,-0.244141,57743
-0.002441,0.115479,0.991211,-0.305176,57792
-0.006348,0.115234,1.000488,-0.244141,57839
-0.006348,0.118408,0.990967,-0.244141,57887
-0.003174,0.116943,0.996582,-0.12207,57936
-0.008057,0.113281,0.995361,-0.488281,57986
-0.004639,0.115723,0.998047,-0.305176,58033
-0.002197,0.117432,0.998291,-0.244141,58080
-0.004883,0.120117,0.996582,-0.305176,58128
-0.002197,0.11499,0.996094,-0.061035,58176
-0.004883,0.119385,0.993896,-0.549316,58225
-0.005127,0.116211,0.999268,-0.305176,58275
-0.005127,0.119629,0.994385,-0.244141,58322
-0.005371,0.118896,0.989258,-0.244141,58369
-0.004639,0.121338,0.998291,-0.12207,58417
-0.001221,0.116699,0.996582,-0.244141,58466
-0.006836,0.116455,0.994629,-0.305176,58516
-0.006348,0.120117,0.99707,-0.244141,58565
-0.005615,0.119141,0.997314,-0.427246,58615
-0.005127,0.118896,0.990479,-0.244141,58661
-0.007813,0.115967,0.994873,-0.366211,58710
-0.006592,0.116943,0.998535,-0.183105,58758
-0.003906,0.119141,0.992188,-0.12207,58808
-0.000977,0.118408,0.991699,-0.061035,58854
-0.005859,0.114746,0.991699,-0.549316,58905
-0.004883,0.11792,0.991211,-0.183105,58957
-0.002686,0.118164,0.992676,-0.305176,59004
-0.006592,0.116699,0.994141,-0.366211,59052
-0.004639,0.115723,0.992676,-0.305176,59102
-0.001953,0.114746,0.995361,-0.183105,59151
-0.006592,0.11792,0.989258,-0.12207,59199
-0.004639,0.116455,0.984375,-0.244141,59250
-0.007324,0.117432,0.98877,-0.183105,59298
-0.005615,0.118652,0.992188,-0.244141,59347
-0.004883,0.122559,0.999512,-0.244141,59394
-0.004639,0.119629,0.994385,-0.183105,59441
-0.006348,0.11792,0.991699,-0.427246,59488
-0.001953,0.114746,0.990967,-0.183105,59535
-0.006104,0.117188,0.992188,-0.244141,59581
-0.005127,0.119629,0.998291,-0.244141,59627
-0.008301,0.115723,0.997559,-0.183105,59673
-0.003418,0.118896,0.993408,-0.305176,59724
-0.00293,0.118896,0.993164,-0.244141,59775
-0.00415,0.120117,0.989746,-0.244141,59824
-0.003174,0.116943,0.996338,-0.061035,59869
-0.003906,0.118652,0.99585,-0.183105,59916
-0.007324,0.119141,0.997314,-0.488281,59968
-0.00415,0.119385,0.994629,-0.244141,60017
-0.00708,0.119629,0.991943,-0.488281,60066
-0.006348,0.123047,0.993652,-0.183105,60113
-0.00708,0.11792,0.998291,-0.427246,60158
-0.003906,0.120605,0.994873,-0.183105,60211
-0.005615,0.114502,0.992188,-0.366211,60259
-0.005127,0.120605,0.99292,-0.305176,60306
-0.005615,0.119141,0.994629,-0.305176,60352
-0.009766,0.118164,0.992432,-0.183105,60400
-0.003906,0.11499,0.991211,-0.366211,60448
-0.005371,0.119629,0.99292,-0.305176,60496
-0.005371,0.117432,0.993164,-0.183105,60543
-0.002441,0.116943,0.99292,-0.488281,60591
-0.004395,0.117188,0.993896,-0.183105,60644
-0.005859,0.118408,0.993164,-0.061035,60690
-0.005615,0.11792,0.98999,-0.244141,60736
-0.008057,0.116455,0.99292,-0.305176,60783
-0.008057,0.117432,0.994141,-0.305176,60831
-0.003662,0.118164,0.992188,-0.244141,60878
-0.005859,0.120117,0.996826,-0.244141,60926
-0.004883,0.119385,0.991699,-0.305176,60975
-0.008301,0.119141,0.995605,-0.12207,61020
-0.003662,0.119385,0.992676,-0.366211,61065
-0.003174,0.120361,0.991211,-0.305176,61114
-0.004395,0.117676,0.991699,-0.305176,61163
-0.006836,0.118164,0.994385,-0.12207,61214
-0.00415,0.115967,0.99292,-0.12207,61264
-0.006836,0.118164,0.991699,-0.183105,61312
-0.004883,0.117432,0.996094,-0.305176,61360
-0.004639,0.119873,0.99292,-0.183105,61405
-0.006592,0.11792,0.990967,-0.244141,61455
-0.006348,0.116699,0.990234,-0.183105,61504
-0.006836,0.117432,0.992432,-0.12207,61551
-0.001465,0.11499,0.993408,-0.183105,61598
-0.008057,0.117676,0.993164,-0.183105,61644
-0.004395,0.120117,0.99292,-0.366211,61692
-0.006836,0.116455,0.993896,-0.366211,61741
-0.004639,0.120117,0.992188,-0.12207,61787
-0.007568,0.118652,0.996582,-0.427246,61837
-0.001221,0.119873,0.990723,-0.244141,61885
-0.004883,0.117676,0.993896,-0.244141,61932
-0.005371,0.117188,0.991943,-0.061035,61982
-0.004883,0.116455,0.992188,-0.305176,62033
-0.006836,0.119873,0.992188,-0.244141,62081
-0.005127,0.118408,0.998047,-0.12207,62128
-0.005859,0.117676,0.991943,-0.366211,62176
-0.007813,0.121582,0.990723,-0.305176,62224
-0.00415,0.116699,0.994385,-0.12207,62272
-0.003906,0.11499,0.991455,-0.305176,62318
-0.001221,0.119141,0.991943,-0.427246,62368
-0.007324,0.118652,0.993896,-0.305176,62417
-0.005859,0.116699,0.993652,-0.366211,62464
-0.003662,0.115723,0.987549,-0.183105,62512
-0.005615,0.118896,0.994141,-0.244141,62558
-0.007568,0.119385,0.994385,-0.427246,62602
-0.003418,0.117432,0.991943,-0.183105,62648
-0.004395,0.120361,0.993408,-0.244141,62698
-0.009766,0.119385,0.993896,-0.244141,62743
-0.003906,0.116943,0.993896,-0.305176,62791
-0.006836,0.116455,0.995605,-0.12207,62840
-0.005859,0.117676,0.991943,-0.366211,62887
-0.005371,0.118408,0.992432,0.061035,62935
-0.00415,0.118896,0.992676,-0.305176,62980
-0.004395,0.116455,0.994629,-0.183105,63030
-0.005615,0.118408,0.993652,-0.305176,63077
-0.006348,0.118652,0.995605,-0.366211,63125
-0.003906,0.118652,0.993896,-0.183105,63175
-0.003662,0.118896,0.991455,-0.305176,63224
-0.003418,0.116211,0.99292,-0.061035,63274
-0.007813,0.11792,0.991455,-0.244141,63318
-0.004639,0.120605,0.995605,-0.12207,63364
-0.003906,0.115967,0.991943,-0.183105,63410
-0.003662,0.117432,0.99292,-0.061035,63459
-0.005615,0.116455,0.992188,-0.12207,63506
-0.006104,0.117676,0.989746,-0.366211,63551
-0.00415,0.116455,0.991699,-0.12207,63598
-0.002441,0.118652,0.994629,-0.305176,63644
-0.003906,0.116211,0.994141,-0.244141,63693
-0.005371,0.117676,0.997559,-0.488281,63743
-0.006592,0.120605,0.993408,-0.183105,63794
-0.005371,0.11792,0.993408,-0.305176,63841
-0.003662,0.116699,0.992432,-0.305176,63887
-0.004639,0.118652,0.99292,0,63933
-0.009033,0.117676,0.992676,-0.305176,63979
-0.006836,0.118652,0.991943,-0.183105,64030
-0.004395,0.119629,0.990723,-0.183105,64077
-0.005127,0.115234,0.99585,-0.244141,64127
-0.001221,0.117188,0.995361,-0.244141,64175
-0.001709,0.11792,0.995605,-0.427246,64225
-0.004883,0.118164,0.993408,-0.488281,64273
-0.006104,0.116211,0.992432,-0.183105,64323
-0.007568,0.118164,0.99585,-0.244141,64370
-0.005859,0.117676,0.995605,-0.305176,64416
-0.006104,0.117432,0.993896,-0.061035,64466
-0.003418,0.116211,0.993652,-0.183105,64515
-0.006592,0.12207,0.990479,-0.305176,64563
-0.005127,0.117188,0.99707,-0.305176,64614
-0.005615,0.119629,0.995605,-0.488281,64660
-0.00708,0.119629,0.992188,-0.244141,64707
-0.00708,0.121338,0.993408,-0.366211,64752
-0.005371,0.119141,0.991943,-0.366211,64797
-0.007324,0.116943,0.993408,-0.183105,64843
-0.008057,0.120605,0.994385,-0.244141,64888
-0.004883,0.12085,0.990234,-0.366211,64938
-0.00708,0.117432,0.995605,-0.427246,64984
-0.002441,0.116211,0.99292,-0.305176,65030
-0.004883,0.114746,0.987793,-0.244141,65076
-0.002686,0.118408,0.993164,-0.244141,65121
-0.005859,0.119141,0.994141,-0.12207,65170
-0.00415,0.11792,0.99707,-0.12207,65217
-0.003418,0.117676,0.991943,-0.244141,65267
-0.00293,0.118896,0.993652,-0.12207,65313
-0.003906,0.119629,0.995605,-0.12207,65363
-0.004883,0.119873,0.991211,-0.427246,65410
0,0.116455,0.993652,-0.244141,65461
-0.003906,0.116455,0.99292,-0.12207,65508
-0.003906,0.116699,0.990723,-0.427246,65559
-0.00415,0.115723,0.993408,-0.244141,65607
-0.006836,0.117188,0.995117,-0.183105,65656
-0.004883,0.119141,0.995605,-0.427246,65708
-0.004639,0.117188,0.990967,-0.305176,65758
-0.001953,0.117676,0.99585,-0.305176,65806
-0.005859,0.116943,0.989746,-0.305176,65852
-0.005615,0.118164,0.991699,-0.305176,65902
-0.004395,0.119629,0.994141,-0.12207,65949
-0.00293,0.11792,0.99292,-0.12207,65996
-0.002686,0.119873,0.993164,-0.244141,66046
-0.003662,0.117188,0.993164,-0.244141,66092
-0.005371,0.114502,0.995605,-0.305176,66141
-0.00415,0.118164,0.99292,-0.183105,66188
-0.003418,0.116699,0.994629,-0.427246,66237
-0.004395,0.115479,0.993896,-0.427246,66284
-0.003662,0.11377,0.992188,-0.305176,66332
-0.005615,0.11792,0.99707,-0.183105,66380
-0.006348,0.115967,0.992188,-0.183105,66428
-0.008057,0.115967,0.989014,-0.366211,66476
-0.006104,0.116455,0.995361,-0.305176,66521
-0.006836,0.117676,0.990234,-0.366211,66572
-0.007324,0.118896,0.993164,-0.305176,66619
-0.008057,0.117432,0.99585,-0.183105,66666
-0.002441,0.115479,0.994141,-0.244141,66714
-0.002686,0.11499,0.992432,-0.305176,66760
-0.002686,0.116455,0.990967,-0.244141,66806
-0.006592,0.116943,0.992188,-0.427246,66853
-0.005127,0.116211,0.996094,-0.305176,66900
-0.003174,0.119629,0.994385,-0.244141,66948
-0.008301,0.116211,0.994385,-0.183105,66999
-0.004395,0.116699,0.993652,-0.244141,67048
-0.00293,0.116699,0.990479,-0.427246,67096
-0.005371,0.118164,0.991699,-0.244141,67147
-0.004883,0.118408,0.993896,-0.183105,67194
-0.003418,0.11792,0.990723,-0.366211,67239
-0.004639,0.118896,0.993408,-0.244141,67286
-0.001221,0.116211,0.993896,-0.12207,67333
-0.002441,0.119141,0.993652,-0.244141,67382
-0.00708,0.115479,0.993652,-0.183105,67427
-0.006348,0.118408,0.993408,-0.305176,67475
-0.003418,0.118652,0.993408,-0.427246,67523
-0.006592,0.116943,0.994141,-0.183105,67572
-0.007813,0.115723,0.987793,-0.305176,67619
-0.005127,0.117188,0.993652,-0.305176,67666
-0.003418,0.117676,0.992432,-0.305176,67714
-0.005615,0.119385,0.996338,-0.12207,67762
-0.004883,0.114502,0.992432,-0.366211,67812
-0.008789,0.118164,0.992676,-0.244141,67859
-0.00415,0.117188,0.993408,-0.305176,67905
-0.003174,0.117432,0.996582,-0.244141,67952
-0.008545,0.119629,0.991455,-0.305176,68003
-0.006104,0.118164,0.99292,-0.12207,68049
-0.003906,0.115723,0.994629,-0.366211,68100
-0.005859,0.116943,0.992188,-0.366211,68147
-0.008301,0.117188,0.994141,-0.488281,68197
-0.006836,0.118164,0.989502,-0.305176,68246
-0.004883,0.116943,0.994385,-0.244141,68294
-0.004883,0.117676,0.991699,-0.305176,68343
-0.004883,0.116455,0.993164,-0.305176,68391
-0.003662,0.117432,0.990479,-0.305176,68440
-0.006104,0.118408,0.991943,-0.244141,68488
-0.006592,0.118164,0.99292,-0.244141,68537
-0.008545,0.118896,0.997559,-0.244141,68584
-0.00415,0.115234,0.992676,-0.427246,68634
-0.006104,0.11792,0.991699,-0.061035,68681
-0.004395,0.115234,0.991211,-0.366211,68734
-0.00415,0.114502,0.994629,-0.427246,68785
-0.005127,0.11792,0.994629,-0.183105,68830
-0.00708,0.119141,0.995605,-0.183105,68879
-0.005127,0.115479,0.992188,-0.12207,68928
-0.000244,0.119873,0.994385,-0.488281,68974
-0.004639,0.116699,0.992188,-0.366211,69022
-0.004883,0.119873,0.994385,-0.366211,69071
-0.001465,0.118896,0.99292,-0.305176,69123
-0.006348,0.120361,0.992676,-0.305176,69174
-0.005615,0.117432,0.990479,-0.305176,69222
-0.007568,0.117432,0.992676,-0.183105,69273
-0.001953,0.117676,0.991211,-0.244141,69321
-0.00415,0.115967,0.992188,-0.12207,69367
-0.004395,0.116943,0.993652,-0.366211,69416
-0.006104,0.116211,0.990723,-0.305176,69462
-0.005859,0.116699,0.992676,-0.305176,69507
-0.004883,0.116455,0.991699,-0.061035,69555
-0.00708,0.115723,0.990967,-0.244141,69601
-0.002197,0.119873,0.990723,-0.244141,69646
-0.003174,0.116211,0.997314,-0.12207,69693
-0.004639,0.116943,0.992432,-0.183105,69739
-0.004639,0.117676,0.991699,-0.244141,69786
-0.005615,0.118896,0.993408,-0.244141,69833
-0.005371,0.119385,0.994385,-0.366211,69882
-0.005615,0.118652,0.992432,-0.244141,69929
-0.006592,0.115967,0.990234,-0.305176,69973
-0.002686,0.118896,0.994629,-0.061035,70020
-0.004639,0.116699,0.994629,-0.183105,70069
-0.00708,0.117432,0.993652,-0.061035,70117
-0.006836,0.11792,0.994141,-0.244141,70164
-0.00415,0.119385,0.991699,-0.12207,70215
-0.003906,0.118408,0.995361,-0.305176,70263
-0.003418,0.114258,0.991943,-0.183105,70311
-0.003174,0.117676,0.997314,-0.244141,70359
-0.001465,0.117188,0.992188,-0.183105,70407
-0.005371,0.118408,0.99707,-0.183105,70461
-0.00293,0.116699,0.990967,-0.244141,70508
-0.00415,0.116455,0.995361,-0.305176,70555
-0.007324,0.120605,0.994629,-0.183105,70600
-0.005615,0.115479,0.993652,-0.244141,70647
-0.006592,0.114746,0.999023,-0.305176,70698
-0.003174,0.120361,0.997314,-0.183105,70742
-0.005859,0.117676,0.991943,-0.244141,70789
-0.002441,0.118652,0.991699,-0.183105,70836
-0.005127,0.118408,0.991211,-0.305176,70883
-0.00415,0.117188,0.99585,0.12207,70931
-0.00415,0.118896,0.992676,-0.366211,70979
-0.007813,0.117676,0.990234,-0.244141,71028
-0.006592,0.115723,0.994141,-0.305176,71076
-0.008789,0.117188,0.993408,-0.366211,71125
-0.004395,0.115479,0.992432,-0.244141,71173
-0.005859,0.118408,0.991943,-0.183105,71219
-0.007324,0.115723,0.994873,-0.183105,71265
-0.004395,0.120605,0.994385,-0.183105,71313
-0.003418,0.11792,0.99292,-0.244141,71361
-0.006836,0.11792,0.99292,-0.183105,71408
-0.002441,0.118652,0.994629,-0.366211,71452
-0.005859,0.117676,0.995361,-0.244141,71501
-0.003418,0.120117,0.993408,-0.183105,71548
-0.00415,0.118652,0.992676,-0.183105,71596
-0.00708,0.116699,0.991699,-0.12207,71643
-0.00415,0.117188,0.995117,-0.183105,71694
-0.008057,0.115234,0.992676,-0.12207,71740
0.000977,0.118164,0.991455,-0.244141,71787
-0.004639,0.116455,0.992432,-0.427246,71836
-0.003418,0.117188,0.991699,-0.366211,71882
-0.001709,0.115723,0.995605,-0.488281,71929
-0.001709,0.118408,0.99585,-0.366211,71978
-0.004639,0.11792,0.991699,-0.305176,72025
-0.003174,0.11792,0.993408,-0.12207,72073
-0.005127,0.117676,0.990234,-0.12207,72120
-0.006104,0.116455,0.994141,-0.305176,72167
-0.006592,0.117188,0.992188,-0.244141,72218
-0.00708,0.116943,0.991211,-0.183105,72264
-0.006104,0.118164,0.994385,-0.183105,72309
-0.005859,0.118164,0.992432,-0.12207,72357
-0.006104,0.116943,0.993652,-0.183105,72408
-0.003906,0.11792,0.992188,-0.244141,72456
-0.003174,0.114746,0.993652,-0.305176,72504
-0.005859,0.115479,0.98999,-0.549316,72551
-0.00293,0.114014,0.995605,-0.427246,72598
-0.006104,0.117676,0.994873,-0.244141,72646
-0.00708,0.117676,0.993896,-0.366211,72694
-0.005859,0.119629,0.992676,-0.305176,72739
-0.006836,0.117432,0.995361,-0.183105,72787
-0.009277,0.115479,0.992432,-0.366211,72836
-0.000244,0.118408,0.99292,-0.488281,72885
-0.007324,0.119141,0.995117,-0.244141,72931
-0.004639,0.12085,0.996338,-0.305176,72978
-0.008301,0.120361,0.991455,-0.305176,73026
-0.003906,0.116211,0.994385,-0.12207,73071
-0.005615,0.119629,0.992676,-0.183105,73118
-0.005371,0.116943,0.99707,-0.061035,73168
-0.003174,0.117432,0.996338,-0.244141,73218
-0.004883,0.117676,0.992432,-0.12207,73264
-0.003174,0.117676,0.99292,-0.488281,73311
-0.005615,0.118652,0.996094,-0.183105,73362
-0.003174,0.115234,0.991699,-0.305176,73408
-0.007568,0.117432,0.994141,-0.244141,73454
-0.003174,0.116455,0.991943,-0.061035,73503
-0.005371,0.115234,0.996338,-0.366211,73550
-0.003662,0.119873,0.995117,-0.244141,73596
-0.005859,0.117188,0.989258,-0.183105,73644
-0.001221,0.12085,0.98999,-0.366211,73691
-0.002686,0.115234,0.990234,-0.244141,73738
-0.00415,0.117432,0.993408,-0.305176,73783
-0.006104,0.114014,0.994873,-0.12207,73833
-0.005371,0.118652,0.993896,-0.061035,73880
-0.003174,0.117676,0.993408,-0.244141,73928
-0.008545,0.116699,0.99292,-0.305176,73977
-0.005859,0.116699,0.993896,-0.549316,74022
-0.00708,0.114746,0.994873,-0.366211,74070
-0.003906,0.114746,0.99585,-0.244141,74119
-0.007324,0.115723,0.990967,-0.244141,74168
-0.007568,0.119629,0.994873,-0.305176,74216
-0.00708,0.117676,0.995117,-0.305176,74265
-0.005615,0.116211,0.990723,-0.244141,74310
-0.005615,0.116943,0.992432,-0.183105,74359
-0.006348,0.116943,0.991699,-0.244141,74407
-0.005127,0.116455,0.993652,-0.244141,74454
-0.005371,0.118896,0.994629,-0.366211,74500
-0.006104,0.120361,0.990479,-0.305176,74547
-0.005859,0.117188,0.992188,-0.183105,74594
-0.00708,0.119385,0.993896,-0.244141,74646
-0.005615,0.116943,0.991943,-0.183105,74698
-0.008545,0.11792,0.993896,-0.244141,74744
-0.006104,0.116699,0.989502,-0.366211,74788
-0.002197,0.115723,0.992676,-0.12207,74835
-0.004639,0.117188,0.994873,-0.12207,74884
-0.001709,0.120117,0.996338,-0.244141,74933
-0.004883,0.119385,0.991699,-0.366211,74980
-0.005371,0.118164,0.995361,-0.244141,75029
-0.008789,0.11792,0.992188,-0.12207,75078
-0.005615,0.11792,0.992432,-0.12207,75124
-0.006836,0.12085,0.994385,-0.305176,75172
-0.00293,0.115234,0.993164,-0.305176,75216
-0.003418,0.117432,0.99707,-0.244141,75263
-0.003418,0.116943,0.993408,-0.305176,75310
-0.009521,0.118164,0.990479,-0.305176,75362
-0.003174,0.117188,0.991699,-0.305176,75411
-0.004639,0.117676,0.990967,-0.183105,75459
-0.004395,0.119629,0.995361,-0.427246,75507
-0.004883,0.118896,0.993652,-0.366211,75556
-0.005615,0.119873,0.993408,-0.305176,75605
-0.005371,0.119141,0.993896,-0.12207,75654
-0.006836,0.116943,0.993164,-0.244141,75701
-0.005615,0.116699,0.993652,-0.061035,75749
-0.004639,0.118164,0.994141,-0.061035,75796
-0.006104,0.116699,0.990967,-0.305176,75842
-0.003418,0.11792,0.992432,-0.061035,75889
-0.005127,0.119141,0.994629,-0.12207,75939
-0.003906,0.118408,0.993652,-0.305176,75989
-0.006104,0.117188,0.993408,-0.12207,76036
-0.003906,0.117676,0.992188,-0.366211,76080
-0.004395,0.117432,0.991699,-0.427246,76128
-0.00415,0.115234,0.992188,-0.183105,76173
-0.000977,0.116943,0.994385,-0.305176,76221
-0.007813,0.116455,0.994629,-0.305176,76271
-0.006592,0.116455,0.991455,-0.427246,76320
-0.001953,0.117676,0.991943,-0.183105,76364
-0.005371,0.116699,0.991699,-0.366211,76413
-0.004883,0.116455,0.990967,-0.305176,76460
-0.004639,0.116699,0.992432,-0.366211,76509
-0.003906,0.117188,0.991211,-0.12207,76558
-0.006348,0.119385,0.993408,-0.305176,76606
-0.006104,0.119873,0.992676,-0.12207,76653
-0.003418,0.121582,0.993652,-0.244141,76700
-0.006348,0.119629,0.992188,-0.366211,76748
-0.005615,0.118164,0.994141,-0.183105,76794
-0.005127,0.118896,0.993896,-0.12207,76842
-0.007813,0.118652,0.994873,-0.305176,76888
-0.006836,0.118408,0.990967,-0.12207,76935
-0.003418,0.116699,0.991455,-0.305176,76983
-0.004639,0.116455,0.993164,-0.366211,77031
-0.006592,0.120117,0.989502,-0.427246,77076
-0.003418,0.118896,0.992676,-0.183105,77126
-0.006592,0.119385,0.992676,-0.305176,77175
-0.006348,0.118896,0.994873,-0.366211,77226
-0.004639,0.114746,0.994873,-0.183105,77276
-0.00415,0.118896,0.996094,-0.305176,77324
-0.006348,0.118652,0.996582,-0.305176,77370
-0.005371,0.119873,0.99292,-0.12207,77420
-0.003906,0.115967,0.992676,-0.488281,77465
-0.004639,0.117676,0.990234,-0.183105,77513
-0.007568,0.117676,0.99292,-0.061035,77561
-0.005615,0.119385,0.992676,-0.305176,77608
-0.008057,0.115723,0.991943,-0.244141,77653
-0.005371,0.119385,0.990967,-0.183105,77700
-0.008057,0.118164,0.994385,-0.305176,77746
-0.003906,0.11792,0.995117,-0.305176,77792
-0.00415,0.117188,0.990723,-0.305176,77838
-0.005615,0.119141,0.993652,-0.305176,77887
-0.005859,0.117676,0.991455,-0.183105,77933
-0.000977,0.117188,0.992188,-0.366211,77986
-0.002441,0.118408,0.996094,-0.061035,78033
-0.009277,0.11792,0.992188,-0.183105,78083
-0.008301,0.119629,0.991943,-0.183105,78131
-0.001953,0.11792,0.991943,-0.183105,78179
-0.007813,0.117188,0.995361,-0.244141,78225
-0.005127,0.115234,0.992432,-0.244141,78271
-0.006592,0.116211,0.99292,-0.12207,78318
-0.003906,0.115479,0.996582,-0.366211,78367
-0.004639,0.115967,0.993896,-0.305176,78415
-0.002441,0.119385,0.992188,-0.366211,78461
-0.006348,0.116943,0.990479,0.061035,78508
-0.003174,0.115479,0.993164,-0.183105,78556
-0.002197,0.118652,0.99292,-0.12207,78602
-0.005615,0.116699,0.993652,-0.244141,78649
-0.003662,0.116455,0.993896,-0.366211,78696
-0.005371,0.116455,0.990967,-0.305176,78744
-0.00415,0.115967,0.995605,-0.12207,78791
-0.004883,0.116943,0.999756,-0.244141,78837
-0.006592,0.115967,0.990723,-0.12207,78884
-0.002686,0.118652,0.992432,-0.305176,78932
-0.004883,0.117188,0.992676,-0.305176,78979
-0.008789,0.119873,0.990723,-0.183105,79027
-0.000977,0.118896,1.001709,-1.037598,79074
-0.002686,0.119141,1.003174,-0.12207,79122
-0.003418,0.119873,1.02002,-0.244141,79171
0.000244,0.117432,1.001953,-0.305176,79218
-0.00293,0.117188,0.99292,-0.183105,79262
-0.005127,0.111816,0.989502,-0.183105,79310
-0.006592,0.118896,0.99707,-0.12207,79359
-0.002441,0.109375,0.991455,-0.183105,79408
-0.006836,0.114258,0.99585,-0.427246,79455
-0.006836,0.115479,0.987793,-0.305176,79503
-0.00293,0.115967,0.987549,-0.183105,79549
-0.007324,0.111572,0.990967,-0.244141,79595
-0.00293,0.113281,0.992676,-0.183105,79645
-0.005615,0.11792,0.989746,-0.305176,79695
-0.004395,0.115723,0.991211,-0.427246,79743
-0.005371,0.116699,0.991211,-0.366211,79790
-0.003418,0.111084,0.993896,-0.305176,79836
-0.001953,0.113281,0.995361,-0.366211,79888
-0.004395,0.114746,0.992676,-0.183105,79935
-0.006836,0.114502,0.993896,-0.183105,79981
-0.008545,0.115234,0.994385,-0.366211,80035
-0.003662,0.115479,0.991211,-0.305176,80084
-0.005859,0.113525,0.993896,-0.366211,80133
-0.007568,0.114746,0.994873,-0.12207,80179
-0.00415,0.114258,0.987549,-0.183105,80226
0.07959,0.144775,1.095703,-29.66309,80273
0.142822,0.235352,1.17749,-82.6416,80322
-0.576904,0.137207,1.018311,-389.5264,80374
-0.333496,0.12915,0.807617,-13.24463,80421
0.001465,0.063721,1.171143,-94.23828,80465
-0.02417,0.402832,1.918701,-87.34131,80512
0,0.307861,0.755127,-160.4004,80558
0.149414,-0.025635,0.858398,-189.3311,80607
0.279297,-0.203857,0.63916,-86.48682,80654
0.539551,-0.436768,0.565674,-3.356934,80704
0.610596,-0.478516,0.416992,56.27441,80753
0.332275,-0.246826,0.62207,136.1084,80804
-0.047363,0.060547,1.023682,135.498,80850
-0.69043,0.444092,1.581055,65.91797,80899
-0.322021,0.37915,1.240479,-62.25586,80944
-0.290771,0.284668,1.15918,-104.8584,80989
0.212646,0.034424,1.019775,-116.1499,81036
0.368408,-0.147461,0.866699,-168.0908,81083
0.476807,-0.318848,0.678467,-47.24121,81130
0.721924,-0.537354,0.689209,-13.3667,81180
0.873047,-0.64209,0.58667,38.81836,81224
0.573975,-0.534424,0.491455,90.69824,81270
0.574463,-0.497559,0.685547,100.2808,81317
0.337891,-0.264893,0.599365,108.1543,81363
0.155762,-0.08252,0.746826,109.375,81408
-0.683105,0.311768,1.030762,73.66943,81455
-0.522217,0.448242,1.115479,18.55469,81501
-0.633301,0.304199,1.079834,-25.75684,81547
-0.216064,0.120361,1.336182,-73.30322,81593
-0.302979,0.137451,0.904541,-68.60352,81640
0.214844,-0.109619,1.472412,-190.4907,81693
0.122803,-0.091797,0.88623,-119.9951,81742
0.529541,-0.339355,0.753418,-109.9854,81789
0.745605,-0.443359,0.524414,-37.71973,81837
1.041992,-0.63208,0.326416,-19.22607,81885
0.957275,-0.608887,0.287842,77.88086,81931
0.642578,-0.421875,-0.023682,119.0186,81976
0.491699,-0.19165,0.593994,166.3818,82023
-0.43457,0.38501,0.977295,206.665,82069
-0.115234,0.321289,1.426758,-81.72607,82117
-0.203613,0.378174,1.306641,-2.258301,82168
-0.127686,0.25,1.304443,-63.7207,82222
-0.213379,0.215332,1.212402,-75.68359,82266
0.175537,0.011475,1.013184,-146.2402,82315
0.372559,-0.169678,0.883301,-131.1035,82363
0.539795,-0.308105,0.487793,-34.60693,82410
0.844238,-0.488525,0.37793,-23.19336,82457
1.138184,-0.696045,0.4646,34.729,82505
0.695557,-0.56665,0.276123,88.0127,82554
0.676758,-0.524414,0.300537,63.78174,82603
0.521729,-0.372314,0.634277,77.45361,82651
0.344238,-0.171387,0.802246,82.03125,82696
0.118408,0.012451,1.048584,51.45264,82747
0.115967,0.043945,1.133057,13.48877,82795
0.057373,0.083984,1.077637,-1.464844,82842
0.142334,0.031494,1.157471,-23.74268,82888
0.13623,-0.003662,1.236328,-4.272461,82938
0.119385,-0.022949,0.878662,-6.469727,82986
0.195557,-0.092285,0.995117,-7.507324,83036
0.109863,-0.061523,1.019287,2.502441,83086
0.091797,-0.022949,0.962158,0.732422,83132
0.114502,-0.020996,1.043213,-0.671387,83176
0.105957,-0.028076,0.98291,-1.89209,83226
0.131592,-0.03833,0.990234,-2.624512,83272
0.119385,-0.029297,1.000732,-0.549316,83319
0.118896,-0.02832,0.997559,-1.953125,83368
0.111572,-0.023193,0.984863,-0.610352,83415
0.115234,-0.028076,1.005859,-1.525879,83464
0.100586,-0.021729,0.997314,-1.037598,83511
0.10498,-0.025635,0.992676,-0.488281,83561
0.09668,-0.018311,0.991699,0.061035,83607
0.104004,-0.017334,1.009033,-0.549316,83653
0.101074,-0.019531,0.99292,0.061035,83700
0.095215,-0.013428,0.987305,-0.305176,83748
0.096436,-0.019043,1.004639,0.549316,83793
0.112305,-0.016357,0.99585,-0.488281,83839
0.110107,-0.02002,1.003174,-0.915527,83884
0.103516,-0.019531,0.983398,-0.976563,83931
0.097412,-0.019043,1.009766,-0.305176,83981
0.112549,-0.017334,0.987793,-2.685547,84031
0.105957,-0.023193,0.98999,-1.77002,84077
0.094238,-0.016846,0.99292,0.061035,84123
0.090088,-0.016602,1.005859,-0.183105,84169
0.102783,-0.020996,0.994873,-0.610352,84216
0.10498,-0.018555,0.992676,-0.671387,84265
0.092773,-0.017578,1.007813,-0.549316,84316
0.099609,-0.018066,0.995117,-2.01416,84368
0.106689,-0.02124,1.007813,-0.671387,84415
0.099121,-0.020996,1.00415,0.12207,84465
0.098633,-0.015625,0.997559,0.244141,84514
0.107178,-0.020752,1.005615,-0.793457,84560
0.094238,-0.021973,0.994873,-1.098633,84611
0.100342,-0.015869,0.993896,0.854492,84660
0.096191,-0.022217,0.996338,0.244141,84706
0.091553,-0.026367,0.98999,0.366211,84751
0.101074,-0.018066,1.002441,0.366211,84797
0.085205,-0.020264,0.998047,1.464844,84843
0.092529,-0.020264,0.995605,-0.854492,84890
0.100342,-0.015381,0.993896,-1.525879,84937
0.092529,-0.021973,1,-0.305176,84985
0.091064,-0.01123,0.986816,-0.976563,85029
0.080322,-0.007324,1.012451,2.685547,85078
0.068115,-0.00415,0.973389,-0.610352,85125
0.073975,0.008789,1.01001,1.953125,85174
0.062256,0.010986,0.978516,-2.441406,85219
0.053955,0.009277,0.980713,-1.708984,85267
0.057617,0.01709,0.987549,1.220703,85315
0.047607,0.019531,0.969727,-1.220703,85362
0.036865,0.126221,0.576416,44.00635,85415
0.338623,-0.128906,-0.247803,154.48,85463
-0.040039,0.32666,1.320557,121.3989,85512
-0.040283,-0.015381,1.164063,21.85059,85558
-0.05957,0.050781,0.843506,25.57373,85603
0.015625,0.106201,1.32666,7.507324,85655
0.00415,0.121582,1.023926,-4.394531,85703
-0.012207,0.087402,1.008301,3.112793,85751
-0.005859,0.097412,0.991699,-2.624512,85800
-0.008789,0.100098,0.985596,1.77002,85850
-0.00708,0.088135,0.98999,-0.366211,85900
-0.001465,0.095459,0.98877,-0.12207,85948
-0.000732,0.095703,0.996826,0,85996
-0.005615,0.099609,0.996826,-0.305176,86043
-0.008789,0.088867,0.996338,-0.610352,86091
-0.001953,0.09668,0.990723,-0.244141,86141
-0.003418,0.10083,0.992188,-0.244141,86187
-0.005859,0.103027,0.997559,-0.305176,86232
-0.005371,0.095947,0.998291,-0.183105,86279
-0.005127,0.099121,0.99707,-0.183105,86328
-0.008301,0.099365,1.000244,-0.183105,86375
-0.005127,0.099854,1.00293,-0.305176,86420
-0.006104,0.096191,0.996582,-0.549316,86466
-0.002441,0.102051,1.003418,-0.610352,86514
-0.005859,0.104248,1.001709,-0.305176,86563
-0.005859,0.098145,0.997559,-0.488281,86612
-0.007324,0.094971,0.992676,-0.549316,86656
-0.000977,0.103271,0.99707,-0.244141,86700
-0.002197,0.098633,0.994873,-0.366211,86748
-0.002197,0.096924,1.000977,-0.366211,86798
-0.003174,0.097656,0.995605,-0.610352,86851
-0.007324,0.101563,1.001221,-0.488281,86897
-0.005859,0.098633,0.997559,-0.244141,86947
-0.004395,0.100098,0.995361,-0.305176,86996
-0.005371,0.101074,0.996826,-0.366211,87048
-0.005127,0.101318,1.000977,-0.244141,87095
-0.005615,0.094971,0.993164,-0.366211,87143
-0.002441,0.099854,0.995361,-0.12207,87190
-0.003418,0.102295,0.995605,-0.12207,87238
-0.005859,0.095459,0.994629,-0.366211,87293
-0.004395,0.098877,0.993164,-0.305176,87342
-0.004639,0.099365,0.996094,-0.305176,87391
-0.006104,0.099121,0.993896,-0.305176,87440
-0.003906,0.097168,0.996338,-0.183105,87490
-0.007813,0.097656,0.996826,-0.305176,87540
-0.005371,0.100098,0.99585,-0.305176,87588
-0.003174,0.095703,0.996826,-0.183105,87637
-0.009033,0.096924,0.996094,-0.244141,87685
-0.002686,0.099854,0.994141,-0.305176,87732
-0.005371,0.09668,0.995605,-0.183105,87780
-0.007324,0.098633,0.992676,-0.244141,87830
-0.005615,0.098877,0.991455,-0.244141,87881
-0.005859,0.101807,0.99707,-0.244141,87935
-0.007324,0.09668,0.994873,-0.366211,87985
-0.002197,0.097656,0.998047,-0.366211,88032
-0.005859,0.099365,0.994629,-0.12207,88079
-0.002441,0.101074,0.996582,-0.366211,88126
-0.006592,0.096191,0.99292,-0.183105,88179
-0.005371,0.095947,0.99585,-0.305176,88224
-0.005127,0.100586,0.996094,-0.305176,88270
-0.003418,0.099365,0.994629,-0.305176,88317
-0.005371,0.100586,0.996094,-0.183105,88362
-0.002441,0.099365,0.996826,-0.305176,88411
-0.002686,0.103027,0.999268,-0.061035,88457
-0.006348,0.096436,0.997314,-0.305176,88505
-0.003662,0.102051,0.997314,-0.244141,88555
-0.004639,0.095459,0.996338,-0.183105,88602
-0.006104,0.100342,0.995361,-0.305176,88648
-0.000977,0.100342,0.991699,-0.305176,88695
-0.00293,0.099121,0.998047,-0.12207,88741
-0.004883,0.098877,0.997314,-0.305176,88789
-0.005615,0.099854,0.998535,-0.244141,88835
-0.00415,0.0979,0.994385,-0.305176,88882
-0.00415,0.098877,0.994141,-0.427246,88929
-0.002686,0.099854,0.996582,-0.427246,88976
-0.003662,0.097412,1,-0.244141,89030
-0.003906,0.100098,0.993408,-0.183105,89078
-0.00293,0.097656,0.998047,-0.366211,89127
-0.004639,0.097412,0.996826,-0.305176,89175
-0.005615,0.100586,0.998535,-0.12207,89225
-0.006592,0.095215,0.995361,-0.061035,89271
-0.005371,0.102051,0.995117,-0.305176,89316
-0.009521,0.100098,0.994629,-0.183105,89363
-0.006592,0.097412,0.996826,-0.12207,89410
-0.006836,0.10083,1.001221,-0.244141,89456
-0.006348,0.099365,0.99707,-0.366211,89505
-0.000977,0.099121,0.995605,-0.305176,89552
-0.005371,0.099854,0.994141,-0.366211,89599
-0.004639,0.095703,0.993896,-0.305176,89646
-0.003174,0.095215,0.998291,-0.183105,89694
-0.004639,0.098145,0.994873,-0.244141,89743
-0.004883,0.097656,0.996338,-0.244141,89789
-0.005127,0.098633,0.996826,-0.305176,89839
-0.00293,0.101807,0.997314,-0.244141,89886
-0.006104,0.099365,0.999268,-0.244141,89934
-0.004395,0.099609,0.995605,-0.305176,89983
-0.005615,0.099365,0.998047,-0.244141,90031
-0.006104,0.094971,0.99585,-0.244141,90079
-0.005615,0.097656,0.994385,-0.366211,90128
-0.00415,0.099121,0.996582,-0.183105,90176
-0.006836,0.104492,0.994385,-0.305176,90223
-0.003174,0.093506,0.996826,-0.244141,90273
-0.005859,0.097412,0.994873,-0.305176,90321
-0.005371,0.100586,0.993896,-0.305176,90369
-0.00708,0.098145,0.993408,-0.305176,90418
-0.003174,0.0979,0.995605,-0.244141,90467
-0.006836,0.099365,0.998535,-0.244141,90512
-0.000977,0.0979,0.99585,-0.366211,90561
-0.004883,0.096436,0.999512,-0.12207,90610
-0.00708,0.100098,0.996338,-0.061035,90659
-0.003906,0.099121,1.000977,-0.305176,90708
-0.006592,0.099121,0.993896,-0.427246,90754
-0.004639,0.099609,0.992432,-0.305176,90804
-0.00293,0.097168,0.994629,-0.244141,90853
-0.00415,0.098145,0.992188,-0.366211,90905
-0.006592,0.097656,0.998291,-0.244141,90955
-0.006104,0.10083,0.996826,-0.244141,91003
-0.00708,0.098877,0.997803,-0.244141,91055
-0.005615,0.098633,0.994629,-0.305176,91104
-0.003906,0.09668,0.99707,-0.488281,91156
-0.003418,0.099609,0.994141,-0.244141,91208
-0.005371,0.098389,0.995361,-0.305176,91255
-0.007813,0.100098,0.999756,-0.183105,91303
-0.007568,0.098633,1.001953,-0.305176,91353
-0.004639,0.101318,0.994141,-0.305176,91400
-0.008545,0.098633,0.997559,-0.12207,91449
-0.003174,0.096436,0.997314,-0.366211,91497
-0.004883,0.097412,0.99585,-0.244141,91541
-0.001953,0.098877,0.998535,-0.244141,91589
-0.004883,0.098877,0.995605,-0.244141,91637
-0.00293,0.099609,0.994629,-0.244141,91688
-0.005371,0.097656,0.993652,-0.244141,91740
-0.004395,0.098389,0.998535,-0.183105,91789
-0.005371,0.098145,0.99585,-0.244141,91837
-0.005615,0.098633,0.993896,-0.305176,91884
-0.006592,0.098389,0.994385,-0.305176,91931
-0.006348,0.098633,0.997803,-0.427246,91981
-0.004639,0.094482,0.996094,-0.366211,92027
-0.006592,0.102051,0.994385,-0.183105,92076
-0.004639,0.099121,0.992432,-0.305176,92125
-0.006348,0.094971,0.998779,-0.244141,92173
-0.005127,0.098145,0.997559,-0.366211,92220
-0.007568,0.099854,0.996582,-0.244141,92272
-0.00708,0.096924,0.998535,-0.244141,92321
-0.002686,0.097412,0.993896,-0.12207,92369
-0.00293,0.097656,0.994385,0,92415
-0.004395,0.099854,0.997559,-0.183105,92467
-0.005371,0.099854,0.995605,-0.183105,92515
-0.007324,0.097656,0.993408,-0.305176,92563
-0.004395,0.099609,0.995361,-0.366211,92611
-0.003906,0.09668,0.994873,-0.366211,92660
-0.003906,0.097412,0.99585,-0.305176,92707
-0.005371,0.098145,0.99707,-0.366211,92752
-0.004639,0.097656,0.994629,-0.183105,92803
-0.005859,0.0979,0.994385,-0.244141,92851
-0.001709,0.095459,0.994141,-0.183105,92897
-0.007813,0.098633,0.996094,-0.427246,92945
-0.004639,0.099609,0.99707,-0.366211,92997
-0.002197,0.098877,1.002197,-0.549316,93042
-0.005615,0.097412,0.992432,-0.305176,93091
-0.004395,0.098633,0.995361,-0.366211,93136
-0.003174,0.099854,0.999512,-0.366211,93183
-0.00708,0.0979,0.999756,-0.244141,93234
-0.003174,0.097412,0.993896,-0.244141,93282
-0.004395,0.098877,0.993408,-0.305176,93329
-0.005859,0.098633,0.997803,-0.305176,93376
-0.005127,0.098145,0.99707,-0.305176,93425
-0.003662,0.098633,0.995117,-0.12207,93473
-0.006348,0.094238,0.996094,-0.183105,93519
-0.005127,0.096924,1.001953,-0.305176,93567
-0.004883,0.095947,0.998779,-0.366211,93614
-0.005859,0.097656,0.998779,0,93660
-0.006836,0.098877,0.998047,-0.366211,93705
-0.004395,0.094727,0.995117,-0.305176,93755
-0.004883,0.095459,0.997559,-0.12207,93805
-0.003174,0.099365,0.998779,-0.488281,93850
-0.005615,0.095459,0.995117,-0.305176,93897
-0.001953,0.098145,0.996826,-0.183105,93945
-0.005127,0.097412,0.991943,-0.366211,93991
