Acc_X,Acc_Y,Acc_Z,Rot_Z,Millis
0.014,-0.005,1.001,-0.183,198887
0.015,-0.006,1.002,-0.305,198912
0.015,-0.005,1.001,-0.183,198938
0.014,-0.005,1.002,-0.183,198963
0.014,-0.004,1.002,-0.122,198990
0.015,-0.005,1.001,-0.244,199018
0.012,-0.005,1.002,-0.244,199045
0.014,-0.005,1.002,-0.244,199070
0.015,-0.006,1.001,-0.183,199094
0.015,-0.004,1.004,-0.244,199121
0.017,-0.006,1.0,-0.244,199146
0.014,-0.005,1.003,-0.244,199171
0.014,-0.005,1.003,-0.122,199197
0.013,-0.006,1.002,-0.244,199223
0.016,-0.005,1.002,-0.183,199247
0.013,-0.004,1.001,-0.183,199275
0.014,-0.005,1.003,-0.305,199302
0.016,-0.005,1.001,-0.305,199328
0.015,-0.006,1.002,-0.183,199353
0.013,-0.005,1.002,-0.183,199377
0.015,-0.006,1.004,-0.061,199403
0.014,-0.004,1.002,-0.122,199428
0.014,-0.006,1.005,-0.122,199452
0.014,-0.006,1.001,-0.122,199477
0.014,-0.004,1.004,-0.305,199504
0.015,-0.006,1.004,-0.183,199530
0.015,-0.004,1.001,-0.183,199557
0.015,-0.006,1.003,-0.183,199583
0.014,-0.005,1.002,-0.122,199608
0.014,-0.004,1.003,-0.183,199636
0.014,-0.006,1.002,-0.305,199664
0.015,-0.006,1.002,-0.183,199688
0.014,-0.004,1.003,-0.122,199711
0.014,-0.005,1.001,-0.183,199735
0.014,-0.005,1.003,-0.183,199760
0.014,-0.006,1.003,-0.183,199787
0.014,-0.006,1.002,-0.305,199811
0.013,-0.005,1.003,-0.244,199836
0.012,-0.005,1.002,-0.244,199864
0.014,-0.006,1.003,-0.305,199889
0.013,-0.006,1.001,-0.183,199916
0.014,-0.005,1.001,-0.122,199939
0.015,-0.006,1.004,-0.244,199965
0.013,-0.006,1.003,-0.244,199993
0.015,-0.005,1.002,-0.183,200021
0.014,-0.005,1.001,-0.305,200046
0.015,-0.004,1.004,-0.244,200071
0.014,-0.006,1.003,-0.427,200095
0.015,-0.004,1.003,-0.244,200118
0.014,-0.005,1.003,-0.183,200143
0.013,-0.004,1.002,-0.061,200167
0.014,-0.006,1.002,-0.305,200191
0.014,-0.005,1.002,-0.122,200216
0.014,-0.005,1.002,-0.244,200239
0.014,-0.004,1.002,-0.305,200266
0.015,-0.005,1.003,-0.244,200292
0.015,-0.005,1.002,-0.244,200316
0.014,-0.006,1.004,-0.305,200344
0.013,-0.006,1.004,-0.122,200369
0.014,-0.004,1.004,-0.244,200394
0.015,-0.004,1.004,-0.183,200420
0.014,-0.006,1.003,-0.183,200447
0.014,-0.005,1.002,-0.183,200474
0.014,-0.005,1.003,-0.183,200502
0.014,-0.005,1.003,-0.183,200526
0.013,-0.005,1.001,-0.183,200554
0.014,-0.006,1.001,-0.244,200579
0.013,-0.005,1.004,-0.122,200604
0.014,-0.006,1.001,-0.244,200630
0.015,-0.005,1.002,-0.244,200655
0.014,-0.006,1.002,-0.183,200681
0.015,-0.005,1.002,-0.183,200706
0.013,-0.007,1.002,-0.183,200731
0.014,-0.006,1.002,-0.305,200756
0.016,-0.006,1.003,-0.183,200781
0.016,-0.007,1.003,-0.244,200808
0.013,-0.005,1.004,-0.122,200836
0.013,-0.004,1.002,-0.122,200863
0.013,-0.004,1.002,-0.244,200890
0.015,-0.006,1.002,-0.183,200917
0.015,-0.006,1.003,-0.061,200943
0.013,-0.004,1.003,-0.061,200967
0.014,-0.006,1.002,-0.122,200993
0.015,-0.006,1.003,-0.122,201017
0.014,-0.006,1.002,-0.183,201042
0.015,-0.005,1.002,-0.244,201067
0.014,-0.005,1.005,-0.183,201093
0.014,-0.005,1.002,-0.122,201120
0.015,-0.006,1.003,-0.183,201145
0.015,-0.006,1.002,-0.183,201171
0.014,-0.005,1.002,-0.183,201196
0.014,-0.006,1.001,-0.305,201223
0.015,-0.005,1.003,-0.244,201250
0.015,-0.006,1.001,-0.183,201272
0.017,-0.007,1.002,-0.183,201299
0.015,-0.006,1.004,-0.183,201324
0.013,-0.006,1.002,-0.244,201350
0.014,-0.007,1.003,-0.183,201374
0.016,-0.005,1.0,-0.183,201399
0.015,-0.006,1.004,-0.183,201425
0.014,-0.006,1.003,-0.183,201451
0.015,-0.004,1.001,-0.061,201475
0.017,-0.005,1.003,-0.244,201502
0.014,-0.005,1.002,-0.305,201528
0.014,-0.006,1.0,-0.183,201553
0.015,-0.005,1.002,-0.183,201577
0.015,-0.006,1.004,-0.244,201600
0.013,-0.006,1.003,-0.244,201625
0.015,-0.006,1.001,-0.366,201651
0.015,-0.006,1.001,-0.244,201677
0.015,-0.005,1.004,-0.305,201704
0.015,-0.004,1.001,-0.244,201730
0.016,-0.005,1.003,-0.122,201754
0.014,-0.005,1.003,-0.183,201779
0.015,-0.005,1.002,-0.122,201805
0.015,-0.006,1.003,-0.183,201830
0.013,-0.007,1.0,-0.183,201854
0.014,-0.004,1.001,-0.305,201880
0.015,-0.005,1.005,-0.122,201905
0.015,-0.005,1.003,-0.366,201931
0.016,-0.006,1.003,-0.244,201956
0.014,-0.005,1.002,-0.183,201981
0.015,-0.005,1.004,-0.122,202007
0.013,-0.006,1.002,-0.183,202031
0.013,-0.005,1.002,-0.244,202056
0.014,-0.005,1.002,-0.183,202083
0.015,-0.005,1.003,-0.183,202110
0.014,-0.004,1.0,-0.244,202134
0.014,-0.006,1.0,-0.183,202159
0.015,-0.005,1.002,-0.122,202184
0.015,-0.005,1.002,-0.122,202211
0.015,-0.006,1.001,-0.244,202237
0.015,-0.005,1.001,-0.183,202263
0.013,-0.004,1.003,-0.122,202288
0.015,-0.006,1.001,-0.183,202313
0.013,-0.004,1.005,-0.183,202340
0.015,-0.005,1.004,-0.183,202366
0.015,-0.004,1.002,-0.244,202395
0.014,-0.006,1.001,-0.244,202421
0.014,-0.007,1.001,-0.122,202446
0.014,-0.004,1.003,-0.244,202472
0.014,-0.007,1.003,-0.244,202499
0.016,-0.007,1.0,-0.427,202525
0.015,-0.006,1.003,-0.366,202550
0.013,-0.006,1.001,-0.183,202575
0.015,-0.005,1.002,-0.122,202601
0.014,-0.003,1.003,-0.244,202626
0.013,-0.006,1.002,-0.061,202650
0.015,-0.006,1.003,-0.183,202675
0.015,-0.004,1.001,-0.244,202700
0.014,-0.006,1.003,-0.183,202725
0.015,-0.005,1.002,-0.183,202749
0.013,-0.006,1.003,-0.244,202775
0.014,-0.004,1.0,-0.122,202799
0.013,-0.005,1.004,-0.183,202824
0.014,-0.008,1.002,-0.183,202851
0.017,-0.006,1.0,-0.183,202878
0.014,-0.007,1.002,-0.061,202903
0.016,-0.005,1.003,-0.305,202926
0.014,-0.005,1.002,-0.244,202952
0.015,-0.005,1.002,-0.244,202975
0.014,-0.004,1.002,-0.122,203000
0.015,-0.006,1.002,-0.183,203024
0.014,-0.006,1.002,-0.122,203048
0.014,-0.005,1.003,-0.305,203073
0.013,-0.005,1.0,-0.244,203097
0.014,-0.004,1.002,-0.183,203123
0.014,-0.006,1.001,-0.305,203151
0.014,-0.005,1.003,-0.244,203175
0.014,-0.005,1.003,-0.122,203201
0.015,-0.006,1.001,-0.061,203225
0.014,-0.005,1.004,-0.244,203251
0.016,-0.006,1.001,-0.183,203275
0.015,-0.005,1.003,-0.122,203303
0.015,-0.005,1.001,-0.244,203329
0.014,-0.004,1.002,-0.244,203357
0.014,-0.005,1.001,-0.183,203382
0.015,-0.006,1.001,-0.244,203407
0.017,-0.006,1.001,-0.244,203433
0.015,-0.005,1.001,-0.122,203461
0.015,-0.006,1.004,-0.305,203488
0.014,-0.004,1.0,-0.183,203512
0.015,-0.006,1.003,-0.366,203538
0.015,-0.006,1.003,-0.183,203566
0.015,-0.005,1.002,-0.244,203590
0.015,-0.005,1.002,-0.244,203616
0.015,-0.006,1.002,-0.244,203640
0.015,-0.005,1.003,-0.244,203669
0.014,-0.005,1.003,-0.183,203694
0.015,-0.005,1.001,-0.305,203719
0.015,-0.005,1.002,-0.122,203743
0.013,-0.005,1.002,-0.183,203770
0.015,-0.004,1.003,-0.183,203796
0.015,-0.006,1.002,-0.122,203822
0.015,-0.006,1.002,-0.244,203850
0.015,-0.006,1.002,-0.061,203875
0.014,-0.005,1.003,-0.244,203901
0.013,-0.004,1.003,-0.183,203926
0.013,-0.005,1.004,-0.244,203950
0.015,-0.005,1.002,-0.244,203977
0.013,-0.005,1.003,-0.122,204004
0.013,-0.005,1.002,-0.061,204031
0.015,-0.005,1.002,-0.244,204054
0.014,-0.006,1.0,-0.183,204079
0.014,-0.004,1.001,-0.244,204103
0.015,-0.005,1.002,-0.244,204128
0.015,-0.004,1.004,-0.244,204152
0.014,-0.007,1.001,-0.061,204178
0.015,-0.006,1.001,-0.244,204202
0.016,-0.006,1.001,-0.183,204226
0.015,-0.006,1.002,-0.305,204253
0.013,-0.005,1.003,-0.183,204280
0.014,-0.005,1.003,-0.244,204307
0.015,-0.005,1.003,-0.305,204332
0.014,-0.006,1.004,-0.122,204358
0.016,-0.006,1.001,-0.122,204383
0.015,-0.005,1.001,-0.183,204408
0.014,-0.007,1.003,-0.244,204432
0.014,-0.005,1.002,-0.183,204459
0.014,-0.006,1.003,-0.122,204485
0.014,-0.006,1.003,-0.366,204509
0.014,-0.004,1.003,-0.183,204534
0.014,-0.005,1.003,-0.122,204557
0.014,-0.004,1.002,-0.183,204582
0.015,-0.006,1.002,-0.244,204608
0.015,-0.005,1.002,-0.183,204632
0.014,-0.005,1.003,-0.183,204657
0.014,-0.005,1.002,-0.244,204684
0.015,-0.005,1.002,-0.305,204709
0.016,-0.007,1.003,-0.244,204734
0.015,-0.005,1.001,-0.122,204760
0.015,-0.006,1.003,-0.244,204785
0.013,-0.006,1.002,-0.366,204809
0.015,-0.006,1.003,-0.244,204837
0.015,-0.005,1.002,-0.061,204862
0.012,-0.005,1.002,-0.122,204892
0.013,-0.005,1.003,-0.244,204916
0.015,-0.005,1.002,-0.183,204940
0.015,-0.004,1.002,-0.244,204963
0.014,-0.006,1.004,-0.061,204989
0.014,-0.005,1.001,-0.122,205019
0.015,-0.005,1.001,-0.183,205047
0.014,-0.005,1.002,0.0,205075
0.015,-0.004,1.003,-0.244,205102
0.014,-0.005,1.002,-0.122,205128
0.014,-0.006,1.002,-0.244,205153
0.012,-0.005,1.002,-0.244,205180
0.015,-0.007,1.004,-0.183,205205
0.015,-0.005,1.004,-0.183,205229
0.014,-0.006,1.001,-0.122,205252
0.014,-0.005,1.003,-0.366,205277
0.015,-0.005,1.003,-0.122,205300
0.014,-0.006,1.0,-0.305,205324
0.014,-0.004,1.003,-0.122,205350
0.015,-0.006,1.002,-0.122,205376
0.015,-0.006,1.002,-0.183,205405
0.014,-0.004,1.002,-0.183,205429
0.012,-0.005,1.001,-0.244,205455
0.014,-0.006,1.002,-0.183,205480
0.013,-0.006,1.003,-0.244,205504
0.015,-0.005,1.003,-0.305,205532
0.015,-0.005,1.002,-0.122,205555
0.013,-0.005,1.002,-0.244,205579
0.015,-0.005,1.002,-0.183,205607
0.014,-0.007,1.003,-0.366,205631
0.014,-0.005,1.002,-0.183,205658
0.013,-0.005,1.003,-0.183,205684
0.015,-0.006,1.003,-0.061,205711
0.013,-0.005,1.002,-0.244,205736
0.014,-0.006,1.004,-0.305,205762
0.013,-0.005,1.002,-0.244,205787
0.016,-0.006,1.003,-0.305,205814
0.014,-0.007,1.004,-0.061,205840
0.014,-0.005,1.003,0.0,205867
0.015,-0.005,1.002,-0.305,205893
0.016,-0.004,1.002,-0.183,205919
0.014,-0.006,1.002,-0.244,205945
0.013,-0.007,1.002,-0.122,205971
0.015,-0.006,1.003,-0.122,205995
0.014,-0.005,1.001,-0.122,206021
0.013,-0.004,1.003,-0.244,206048
0.014,-0.005,1.002,-0.122,206073
0.015,-0.004,1.003,-0.305,206099
0.014,-0.006,1.002,-0.183,206123
0.013,-0.005,1.003,-0.305,206150
0.015,-0.005,1.004,-0.183,206176
0.016,-0.005,1.002,-0.122,206202
0.014,-0.006,1.003,-0.061,206227
0.015,-0.005,1.002,-0.183,206253
0.015,-0.004,1.001,-0.305,206280
0.014,-0.004,1.002,-0.183,206305
0.015,-0.005,1.003,-0.183,206329
0.014,-0.006,1.003,-0.122,206353
0.013,-0.005,1.002,-0.183,206378
0.014,-0.004,1.003,-0.122,206403
0.015,-0.005,1.001,-0.122,206426
0.012,-0.005,1.002,-0.183,206450
0.014,-0.005,1.004,-0.183,206476
0.014,-0.005,1.001,-0.183,206504
0.014,-0.005,1.002,-0.183,206531
0.014,-0.006,1.003,-0.183,206556
0.015,-0.004,1.002,-0.122,206582
0.013,-0.005,1.003,-0.244,206609
0.013,-0.005,1.001,-0.183,206636
0.015,-0.006,1.002,-0.244,206662
0.014,-0.005,1.003,-0.183,206690
0.016,-0.006,1.001,-0.061,206717
0.015,-0.005,1.001,0.0,206741
0.014,-0.004,1.004,-0.183,206767
0.013,-0.005,1.002,-0.061,206794
0.015,-0.006,1.002,-0.183,206817
0.016,-0.005,1.002,-0.244,206844
0.014,-0.006,1.003,-0.366,206869
0.015,-0.004,1.001,-0.183,206893
0.014,-0.005,1.005,-0.061,206919
0.014,-0.006,1.002,-0.183,206946
0.013,-0.006,1.001,-0.183,206973
0.013,-0.005,1.002,-0.061,206998
0.013,-0.006,1.004,-0.305,207024
0.015,-0.006,1.001,-0.183,207047
0.015,-0.006,1.002,-0.183,207072
0.013,-0.006,1.004,-0.183,207096
0.015,-0.005,1.004,-0.366,207122
0.014,-0.005,1.002,-0.305,207147
0.013,-0.006,1.002,-0.122,207172
0.014,-0.004,1.002,-0.183,207197
0.013,-0.006,1.003,-0.122,207223
0.014,-0.004,1.002,-0.244,207250
0.013,-0.004,1.003,-0.305,207278
0.014,-0.005,1.004,-0.244,207304
0.014,-0.006,1.004,-0.183,207328
0.014,-0.005,1.002,-0.183,207352
0.014,-0.005,1.002,-0.061,207378
0.016,-0.006,1.002,-0.244,207405
0.014,-0.004,1.003,-0.183,207434
0.012,-0.005,1.002,-0.305,207457
0.014,-0.006,1.002,-0.244,207483
0.013,-0.004,1.001,-0.244,207508
0.014,-0.006,1.002,-0.305,207533
0.014,-0.005,1.003,-0.244,207557
0.015,-0.004,1.004,-0.183,207582
0.013,-0.005,1.002,-0.244,207606
0.013,-0.006,1.003,-0.061,207630
0.015,-0.005,1.002,-0.122,207655
0.014,-0.006,1.001,-0.183,207683
0.013,-0.005,1.003,-0.366,207712
0.015,-0.006,1.003,-0.244,207739
0.015,-0.003,1.001,-0.244,207764
0.015,-0.004,1.002,-0.122,207789
0.014,-0.005,1.002,-0.122,207814
0.015,-0.006,1.003,-0.183,207841
0.014,-0.006,1.001,-0.244,207866
0.014,-0.005,1.004,-0.366,207891
0.013,-0.005,1.001,-0.061,207917
0.016,-0.005,1.003,-0.183,207944
0.015,-0.005,1.003,-0.244,207971
0.015,-0.007,1.001,-0.244,207998
0.014,-0.006,1.004,-0.183,208023
0.017,-0.007,1.002,-0.244,208048
0.013,-0.006,1.003,-0.183,208073
0.014,-0.006,1.002,-0.122,208097
0.015,-0.004,1.001,-0.244,208124
0.014,-0.006,1.002,-0.305,208150
0.013,-0.005,1.002,-0.061,208173
0.014,-0.006,1.002,-0.183,208200
0.015,-0.004,1.001,-0.122,208226
0.014,-0.005,1.002,-0.183,208251
0.012,-0.005,1.001,-0.122,208279
0.014,-0.006,1.003,-0.305,208303
0.014,-0.006,1.004,-0.183,208331
0.014,-0.005,1.003,-0.244,208356
0.016,-0.006,1.0,-0.183,208383
0.016,-0.005,1.003,-0.305,208409
0.014,-0.005,1.001,-0.183,208436
0.013,-0.003,1.004,-0.244,208463
0.015,-0.005,1.003,-0.305,208487
0.015,-0.004,1.001,-0.183,208511
0.015,-0.005,1.001,-0.244,208535
0.015,-0.006,1.001,-0.122,208560
0.014,-0.006,1.002,-0.183,208584
0.015,-0.006,1.001,-0.061,208608
0.015,-0.005,1.002,-0.183,208636
0.014,-0.005,1.002,-0.183,208660
0.014,-0.006,1.002,-0.183,208685
0.014,-0.005,1.002,-0.122,208711
0.015,-0.005,1.002,-0.183,208734
0.013,-0.005,1.002,-0.122,208759
0.013,-0.006,1.0,-0.122,208784
0.015,-0.005,1.003,-0.183,208809
0.012,-0.005,1.002,-0.244,208835
0.016,-0.007,1.003,-0.122,208861
0.013,-0.005,1.002,-0.122,208885
0.015,-0.006,1.003,-0.244,208909
0.014,-0.005,1.001,-0.183,208934
0.014,-0.005,1.002,-0.244,208958
0.014,-0.007,1.001,-0.122,208983
0.012,-0.004,1.002,-0.244,209008
0.015,-0.004,1.002,-0.305,209034
0.014,-0.005,1.001,-0.061,209060
0.013,-0.005,1.003,-0.244,209086
0.012,-0.006,1.001,-0.122,209113
0.014,-0.005,1.003,-0.244,209138
0.013,-0.005,1.003,-0.366,209164
0.013,-0.005,1.002,-0.244,209191
0.016,-0.005,1.003,-0.183,209216
0.015,-0.006,1.003,-0.061,209242
0.014,-0.005,1.001,-0.244,209266
0.013,-0.006,1.003,-0.183,209291
0.013,-0.005,1.001,-0.122,209315
0.015,-0.006,1.002,-0.122,209341
0.013,-0.005,1.002,-0.122,209366
0.014,-0.006,1.003,-0.305,209393
0.013,-0.005,1.004,-0.122,209419
0.013,-0.004,1.002,-0.244,209446
0.014,-0.005,1.004,-0.244,209471
0.014,-0.006,1.003,-0.244,209495
0.014,-0.005,1.002,-0.244,209520
0.014,-0.006,1.003,-0.244,209544
0.014,-0.006,1.002,-0.183,209569
0.014,-0.005,1.003,-0.183,209593
0.014,-0.003,1.003,-0.244,209617
0.013,-0.006,1.003,-0.183,209643
0.015,-0.007,1.002,-0.244,209668
0.015,-0.005,1.003,-0.183,209695
0.014,-0.006,1.002,-0.305,209721
0.014,-0.006,1.003,-0.122,209747
0.016,-0.004,1.002,-0.244,209771
0.014,-0.004,1.004,-0.122,209796
0.013,-0.006,1.002,-0.183,209823
0.015,-0.005,1.002,-0.305,209846
0.013,-0.004,1.001,-0.122,209872
0.013,-0.005,1.003,-0.305,209899
0.014,-0.005,1.001,-0.366,209925
0.016,-0.007,1.001,-0.244,209952
0.013,-0.006,1.005,-0.183,209977
0.014,-0.005,1.002,-0.183,210006
0.012,-0.006,1.003,-0.183,210030
0.013,-0.005,1.002,-0.122,210054
0.015,-0.005,1.002,-0.183,210080
0.015,-0.005,1.004,-0.305,210104
0.014,-0.005,1.003,-0.244,210129
0.014,-0.004,1.001,-0.244,210153
0.014,-0.005,1.003,0.0,210177
0.015,-0.006,1.003,-0.244,210202
0.015,-0.004,1.003,-0.183,210227
0.013,-0.006,1.002,-0.122,210252
0.014,-0.006,1.0,-0.244,210276
0.014,-0.005,1.002,0.0,210301
0.013,-0.005,1.003,-0.244,210327
0.015,-0.006,1.002,-0.366,210351
0.015,-0.005,1.001,-0.366,210378
0.014,-0.004,1.002,-0.244,210405
0.014,-0.005,1.003,-0.244,210429
0.014,-0.004,1.0,-0.183,210454
0.015,-0.005,1.004,-0.183,210477
0.014,-0.005,1.002,-0.183,210501
0.014,-0.005,1.001,-0.244,210528
0.014,-0.007,1.002,0.061,210556
0.014,-0.006,1.001,-0.244,210580
0.015,-0.005,1.002,-0.305,210605
0.015,-0.007,1.001,-0.305,210633
0.015,-0.006,1.004,-0.305,210659
0.014,-0.006,1.003,-0.244,210686
0.014,-0.006,1.002,-0.244,210713
0.014,-0.005,1.003,-0.183,210738
0.014,-0.005,1.002,-0.183,210764
0.013,-0.006,1.002,-0.183,210790
0.014,-0.004,1.0,-0.183,210814
0.013,-0.006,1.001,-0.305,210837
0.013,-0.005,1.003,-0.122,210860
0.015,-0.005,1.002,-0.183,210884
0.014,-0.006,1.003,-0.183,210909
0.015,-0.005,1.002,-0.183,210936
0.016,-0.005,1.003,-0.305,210962
0.015,-0.006,1.001,-0.122,210988
0.015,-0.005,1.003,-0.183,211016
0.015,-0.005,1.001,-0.122,211041
0.014,-0.008,1.002,-0.183,211069
0.014,-0.006,1.003,-0.122,211098
0.015,-0.007,1.003,-0.244,211126
0.014,-0.005,1.004,-0.305,211152
0.013,-0.004,1.003,-0.244,211178
0.016,-0.005,1.002,-0.244,211205
0.014,-0.007,1.003,-0.061,211230
0.015,-0.005,1.003,-0.183,211255
0.014,-0.004,1.002,-0.244,211279
0.013,-0.006,1.001,-0.183,211305
0.015,-0.007,1.003,-0.244,211330
0.014,-0.006,1.003,-0.183,211353
0.013,-0.005,1.003,-0.061,211380
0.015,-0.005,1.001,-0.244,211406
0.015,-0.005,1.002,-0.183,211432
0.014,-0.005,1.002,-0.244,211457
0.013,-0.004,1.002,-0.183,211483
0.015,-0.005,1.005,-0.122,211507
0.015,-0.004,1.002,-0.061,211532
0.014,-0.005,1.002,-0.305,211557
0.015,-0.005,1.0,-0.061,211584
0.014,-0.005,1.002,-0.244,211610
0.015,-0.004,1.003,-0.244,211636
0.015,-0.005,1.002,-0.061,211661
0.015,-0.006,1.004,-0.183,211687
0.013,-0.006,1.002,-0.305,211713
0.015,-0.005,1.001,-0.183,211743
0.014,-0.005,1.003,-0.305,211769
0.013,-0.007,1.004,-0.305,211796
0.015,-0.006,1.003,0.0,211823
0.015,-0.006,1.002,-0.122,211848
0.014,-0.005,1.002,-0.305,211872
0.014,-0.005,1.001,-0.244,211898
0.016,-0.007,1.002,-0.122,211924
0.015,-0.005,1.001,-0.427,211951
0.015,-0.006,1.001,-0.305,211977
0.013,-0.005,1.002,-0.183,212002
0.014,-0.006,1.001,-0.122,212028
0.015,-0.006,1.001,-0.366,212051
0.015,-0.006,1.003,-0.244,212074
0.015,-0.005,1.003,-0.183,212098
0.014,-0.005,1.003,-0.183,212122
0.013,-0.005,1.003,-0.244,212147
0.014,-0.006,1.003,-0.244,212173
0.014,-0.005,1.003,-0.244,212201
0.014,-0.004,1.001,-0.122,212229
0.015,-0.005,1.001,-0.183,212255
0.014,-0.005,1.004,-0.183,212279
0.014,-0.006,1.002,-0.183,212304
0.015,-0.006,1.002,-0.244,212333
0.013,-0.005,1.004,-0.183,212358
0.014,-0.006,1.002,-0.183,212383
0.015,-0.005,1.003,-0.122,212407
0.013,-0.006,1.001,-0.183,212431
0.014,-0.007,1.003,-0.183,212456
0.015,-0.004,1.003,-0.122,212482
0.014,-0.005,1.002,-0.122,212507
0.015,-0.006,1.003,-0.244,212531
0.014,-0.005,1.001,-0.305,212557
0.013,-0.005,1.004,-0.244,212582
0.013,-0.006,1.001,-0.183,212608
0.015,-0.004,1.001,-0.244,212633
0.015,-0.004,1.003,-0.122,212661
0.014,-0.007,1.003,-0.244,212686
0.014,-0.006,1.001,-0.244,212711
0.013,-0.004,1.002,-0.122,212737
0.014,-0.004,1.004,-0.183,212763
0.015,-0.005,1.003,-0.183,212787
0.016,-0.006,1.002,-0.244,212814
0.013,-0.005,1.004,-0.244,212839
0.015,-0.005,1.002,-0.183,212867
0.015,-0.006,1.002,-0.183,212894
0.013,-0.005,1.001,-0.061,212918
0.015,-0.006,1.001,0.0,212943
0.015,-0.005,1.002,-0.244,212967
0.015,-0.005,1.003,-0.244,212991
0.014,-0.005,1.002,-0.305,213016
0.014,-0.006,1.002,-0.305,213040
0.015,-0.005,1.002,-0.244,213067
0.014,-0.005,1.003,-0.305,213092
0.015,-0.004,1.003,-0.122,213117
0.013,-0.005,1.004,-0.244,213143
0.012,-0.004,1.001,-0.183,213168
0.014,-0.005,1.002,-0.305,213194
0.015,-0.006,1.004,-0.244,213220
0.014,-0.005,1.001,-0.183,213247
0.015,-0.005,1.002,-0.183,213271
0.015,-0.006,1.002,-0.244,213295
0.014,-0.005,1.002,-0.244,213319
0.013,-0.005,1.002,-0.305,213346
0.014,-0.006,1.003,-0.183,213370
0.015,-0.005,1.002,-0.183,213395
0.014,-0.005,1.004,-0.122,213422
0.014,-0.006,1.002,-0.183,213449
0.015,-0.005,1.0,-0.183,213474
0.014,-0.004,1.003,-0.244,213500
0.014,-0.007,1.003,0.0,213524
0.014,-0.006,1.001,-0.122,213547
0.015,-0.006,1.004,-0.183,213572
0.015,-0.006,1.005,-0.183,213598
0.015,-0.006,1.001,-0.183,213624
0.013,-0.005,1.003,-0.244,213648
0.015,-0.006,1.003,-0.183,213672
0.015,-0.005,1.001,-0.183,213697
0.015,-0.006,1.003,-0.122,213721
0.013,-0.006,1.002,-0.122,213746
0.014,-0.006,1.004,-0.244,213771
0.013,-0.006,1.003,-0.244,213796
0.014,-0.004,1.002,-0.244,213823
0.015,-0.005,1.002,-0.122,213850
0.014,-0.006,1.003,-0.183,213876
0.014,-0.005,1.004,-0.183,213903
0.015,-0.005,1.001,-0.366,213926
0.014,-0.006,1.002,-0.305,213953
0.015,-0.005,1.003,-0.061,213978
0.014,-0.005,1.001,-0.122,214004
0.013,-0.005,1.001,-0.244,214029
0.016,-0.006,1.002,-0.183,214054
0.014,-0.005,1.004,-0.305,214082
0.014,-0.006,1.002,-0.244,214108
0.014,-0.003,1.002,0.061,214132
0.013,-0.006,1.004,-0.122,214156
0.015,-0.005,1.001,-0.122,214182
0.015,-0.006,1.003,-0.366,214207
0.013,-0.006,1.003,-0.122,214234
0.013,-0.006,1.001,-0.061,214259
0.013,-0.007,1.002,-0.183,214284
0.015,-0.005,1.002,-0.183,214308
0.013,-0.006,1.002,-0.183,214335
0.015,-0.004,1.003,-0.244,214359
0.014,-0.006,1.001,-0.305,214384
0.014,-0.006,1.003,-0.244,214410
0.014,-0.006,1.002,-0.244,214435
0.016,-0.004,1.001,-0.244,214459
0.014,-0.007,1.002,-0.244,214485
0.013,-0.004,1.002,-0.122,214510
0.014,-0.004,1.003,-0.305,214535
0.012,-0.005,1.001,-0.366,214561
0.014,-0.005,1.001,-0.244,214589
0.015,-0.007,1.002,-0.183,214613
0.015,-0.006,1.003,-0.122,214637
0.014,-0.005,1.001,-0.305,214662
0.015,-0.005,1.001,-0.305,214689
0.014,-0.006,1.002,-0.244,214717
0.015,-0.005,1.002,-0.061,214741
0.015,-0.004,1.002,-0.305,214764
0.015,-0.005,1.003,-0.244,214788
0.012,-0.006,1.003,-0.244,214812
0.014,-0.005,1.004,-0.061,214837
0.016,-0.006,1.003,-0.244,214863
0.016,-0.006,1.002,-0.183,214888
0.015,-0.006,1.002,-0.183,214915
0.015,-0.004,1.003,-0.122,214942
0.013,-0.006,1.003,-0.183,214967
0.015,-0.005,1.003,-0.244,214993
0.013,-0.006,1.002,-0.244,215019
0.014,-0.006,1.002,-0.244,215042
0.013,-0.004,1.002,-0.183,215067
0.014,-0.006,1.001,-0.366,215094
0.014,-0.005,1.0,-0.122,215122
0.016,-0.007,1.003,-0.244,215149
0.013,-0.007,1.003,-0.244,215177
0.015,-0.004,1.003,-0.183,215202
0.013,-0.005,1.001,-0.122,215226
0.014,-0.005,1.002,-0.061,215251
0.015,-0.006,1.003,-0.305,215276
0.014,-0.005,1.003,-0.244,215301
0.013,-0.006,1.002,-0.366,215327
0.015,-0.007,1.002,-0.305,215351
0.015,-0.005,1.003,-0.244,215376
0.015,-0.005,1.003,-0.183,215402
0.015,-0.004,1.002,-0.061,215427
0.015,-0.004,1.003,-0.244,215452
0.014,-0.005,1.001,-0.183,215477
0.015,-0.006,1.002,-0.305,215503
0.015,-0.005,1.002,-0.122,215527
0.015,-0.005,1.003,-0.305,215552
0.013,-0.005,1.002,-0.183,215577
0.015,-0.005,1.002,-0.183,215604
0.015,-0.004,1.003,-0.183,215629
0.014,-0.005,1.003,-0.183,215653
0.013,-0.006,1.001,-0.244,215678
0.013,-0.005,1.002,-0.183,215703
0.014,-0.007,1.003,-0.244,215728
0.015,-0.006,1.001,-0.244,215754
0.012,-0.006,1.0,-0.183,215781
0.013,-0.006,1.003,-0.183,215807
0.014,-0.005,1.002,-0.244,215833
0.014,-0.004,1.004,-0.244,215859
0.015,-0.007,1.002,-0.183,215884
0.014,-0.006,1.002,-0.244,215908
0.013,-0.005,1.003,-0.183,215933
0.013,-0.006,1.005,-0.244,215957
0.016,-0.006,1.003,-0.244,215984
0.015,-0.005,1.003,-0.244,216011
0.015,-0.005,1.004,-0.122,216036
0.014,-0.006,1.001,-0.122,216061
0.016,-0.006,1.002,-0.244,216086
0.013,-0.006,1.002,-0.244,216111
0.015,-0.005,1.003,-0.183,216135
0.015,-0.007,1.004,-0.244,216161
0.014,-0.005,1.003,-0.183,216186
0.013,-0.005,1.003,-0.244,216213
0.014,-0.006,1.002,-0.183,216238
0.013,-0.004,1.003,-0.244,216263
0.015,-0.007,1.003,-0.122,216289
0.015,-0.004,1.002,-0.305,216316
0.013,-0.004,1.001,-0.122,216340
0.013,-0.005,1.0,-0.244,216365
0.014,-0.006,1.005,-0.244,216391
0.013,-0.004,1.002,-0.061,216415
0.014,-0.006,1.002,-0.366,216439
0.013,-0.006,1.003,-0.122,216464
0.014,-0.006,1.003,-0.305,216490
0.015,-0.005,1.004,-0.244,216516
0.013,-0.004,1.0,-0.244,216542
0.014,-0.005,1.003,-0.305,216569
0.013,-0.005,1.002,-0.122,216592
0.014,-0.006,1.004,-0.122,216616
0.014,-0.005,1.002,-0.305,216641
0.013,-0.006,1.004,-0.183,216667
0.013,-0.003,1.003,-0.183,216690
0.015,-0.005,1.004,-0.183,216716
0.015,-0.005,1.003,-0.122,216742
0.014,-0.005,1.004,-0.305,216768
0.015,-0.005,1.004,-0.183,216796
0.015,-0.006,1.002,-0.122,216821
0.014,-0.006,1.005,-0.122,216849
0.013,-0.005,1.001,0.061,216875
0.014,-0.005,1.002,-0.366,216902
0.015,-0.005,1.002,-0.122,216926
0.014,-0.006,1.002,-0.244,216951
0.014,-0.005,1.003,-0.183,216979
0.015,-0.005,1.002,-0.183,217006
0.014,-0.005,1.002,-0.244,217031
0.016,-0.005,1.001,-0.305,217054
0.014,-0.006,1.003,-0.244,217080
0.014,-0.006,1.003,-0.122,217104
0.015,-0.004,1.001,-0.122,217129
0.013,-0.005,1.004,-0.244,217158
0.013,-0.006,1.003,-0.244,217184
0.015,-0.005,1.002,-0.244,217210
0.013,-0.007,1.003,-0.183,217236
0.016,-0.006,1.002,-0.244,217265
0.015,-0.006,1.003,-0.183,217294
0.012,-0.004,1.003,-0.183,217319
0.014,-0.007,1.003,-0.122,217345
0.013,-0.007,1.001,-0.305,217373
0.013,-0.005,1.003,-0.122,217399
0.013,-0.006,1.003,-0.244,217425
0.015,-0.004,1.004,-0.244,217451
0.013,-0.005,1.003,-0.183,217475
0.014,-0.005,1.003,-0.244,217500
0.015,-0.005,1.003,-0.366,217526
0.015,-0.005,1.002,-0.244,217553
0.014,-0.006,1.003,-0.244,217578
0.014,-0.004,1.002,-0.305,217601
0.015,-0.005,1.003,-0.244,217627
0.014,-0.007,1.003,-0.183,217653
0.014,-0.006,1.005,-0.305,217679
0.015,-0.007,1.002,-0.244,217703
0.014,-0.006,1.001,-0.244,217726
0.015,-0.005,1.003,-0.244,217751
0.015,-0.004,1.001,-0.122,217777
0.015,-0.005,1.003,-0.244,217801
0.015,-0.006,1.002,-0.122,217829
0.014,-0.006,1.003,-0.183,217854
0.015,-0.006,1.002,-0.244,217880
0.014,-0.005,1.002,-0.183,217904
0.014,-0.006,1.002,-0.183,217929
0.014,-0.005,1.001,-0.122,217954
0.013,-0.005,1.003,-0.244,217979
0.014,-0.006,1.002,-0.183,218004
0.015,-0.005,1.003,-0.183,218029
0.014,-0.005,1.003,-0.244,218056
0.012,-0.004,1.004,-0.183,218082
0.014,-0.004,1.003,-0.183,218109
0.014,-0.007,1.003,-0.244,218134
0.015,-0.006,1.001,-0.244,218162
0.014,-0.005,1.003,-0.366,218187
0.014,-0.005,1.005,-0.122,218212
0.014,-0.005,1.002,-0.183,218240
0.016,-0.005,1.002,-0.183,218270
0.015,-0.007,1.002,-0.244,218294
0.015,-0.005,1.004,-0.244,218319
0.014,-0.005,1.002,-0.244,218346
0.014,-0.005,1.004,-0.183,218372
0.014,-0.004,1.002,-0.183,218399
0.014,-0.005,1.004,-0.244,218424
0.015,-0.006,1.003,-0.244,218449
0.014,-0.006,1.001,-0.244,218476
0.016,-0.004,1.002,-0.244,218502
0.015,-0.005,1.003,-0.122,218528
0.014,-0.005,1.001,-0.305,218553
0.014,-0.005,1.005,-0.183,218581
0.015,-0.005,1.004,-0.183,218604
0.013,-0.006,1.002,-0.366,218628
0.015,-0.005,1.004,-0.183,218652
0.014,-0.005,1.0,-0.244,218680
0.013,-0.005,1.003,-0.305,218707
0.015,-0.007,1.004,-0.244,218730
0.014,-0.005,1.004,-0.244,218753
0.013,-0.005,1.002,-0.061,218779
0.015,-0.006,1.004,-0.366,218805
0.014,-0.005,1.0,-0.061,218831
0.014,-0.005,1.001,-0.244,218857
0.015,-0.005,1.005,-0.061,218881
0.014,-0.005,1.002,-0.183,218907
0.015,-0.006,1.003,-0.305,218932
0.015,-0.006,1.001,-0.122,218957
0.014,-0.004,1.0,-0.244,218982
0.015,-0.005,1.002,-0.244,219008
0.014,-0.004,1.002,-0.244,219032
0.014,-0.006,1.001,0.0,219058
0.015,-0.005,1.001,-0.244,219082
0.014,-0.005,1.003,-0.122,219106
0.014,-0.005,1.0,-0.244,219129
0.015,-0.005,1.001,-0.244,219153
0.014,-0.004,1.003,-0.122,219178
0.013,-0.006,1.003,-0.244,219203
0.014,-0.006,1.002,-0.366,219229
0.015,-0.003,1.003,-0.244,219255
0.015,-0.005,1.002,-0.305,219279
0.013,-0.006,1.003,-0.183,219304
0.012,-0.006,1.002,-0.244,219328
0.014,-0.005,1.002,-0.183,219351
0.014,-0.004,1.003,-0.183,219376
0.016,-0.005,1.002,-0.366,219401
0.015,-0.007,1.003,-0.244,219428
0.015,-0.006,1.0,-0.305,219454
0.014,-0.006,1.005,-0.183,219480
0.014,-0.005,1.001,-0.305,219506
0.015,-0.007,1.0,-0.122,219532
0.014,-0.006,1.003,-0.122,219558
0.014,-0.005,1.003,-0.061,219583
0.013,-0.006,1.001,-0.305,219608
0.014,-0.006,1.003,-0.183,219634
0.014,-0.005,1.001,-0.122,219659
0.013,-0.005,1.003,-0.244,219684
0.014,-0.005,1.002,-0.244,219709
0.015,-0.006,1.002,-0.183,219733
0.014,-0.004,1.004,-0.061,219757
0.014,-0.004,1.0,-0.122,219782
0.015,-0.007,1.003,-0.244,219806
0.014,-0.006,1.0,-0.061,219832
0.016,-0.006,1.003,-0.427,219857
0.014,-0.006,1.003,-0.061,219881
0.015,-0.006,1.002,-0.427,219906
0.015,-0.005,1.001,-0.122,219932
0.014,-0.004,1.002,-0.244,219958
0.015,-0.005,1.003,-0.244,219984
0.013,-0.005,1.004,-0.122,220008
0.015,-0.005,1.002,-0.122,220034
0.012,-0.007,1.002,-0.244,220058
0.014,-0.005,1.001,-0.244,220084
0.015,-0.005,1.002,-0.305,220109
0.014,-0.005,1.001,-0.305,220133
0.016,-0.005,1.004,-0.488,220160
0.014,-0.005,1.004,-0.061,220184
0.014,-0.004,1.001,-0.305,220211
0.015,-0.007,1.005,-0.183,220237
0.015,-0.005,1.003,-0.183,220262
0.013,-0.005,1.001,-0.244,220287
0.015,-0.005,1.003,-0.244,220314
0.016,-0.006,1.002,-0.122,220340
0.014,-0.006,1.003,-0.305,220367
0.015,-0.006,1.002,-0.305,220395
0.015,-0.005,1.002,-0.183,220421
0.016,-0.005,1.003,-0.244,220450
0.015,-0.005,1.003,-0.122,220474
0.013,-0.007,1.004,-0.244,220501
0.015,-0.005,1.003,-0.122,220526
0.014,-0.004,1.004,-0.183,220550
0.013,-0.004,1.001,-0.244,220576
0.014,-0.005,1.002,-0.244,220599
0.013,-0.005,1.003,-0.244,220625
0.014,-0.005,1.004,-0.122,220653
0.016,-0.006,1.003,-0.183,220679
0.013,-0.004,1.002,-0.183,220706
0.013,-0.005,1.004,-0.122,220731
0.015,-0.006,1.003,-0.061,220760
0.014,-0.006,1.003,-0.183,220786
0.015,-0.006,1.003,-0.061,220811
0.015,-0.005,1.001,-0.183,220839
0.014,-0.005,1.001,-0.244,220867
0.015,-0.006,1.002,-0.244,220893
0.014,-0.005,1.003,-0.366,220921
0.013,-0.006,1.003,-0.183,220949
0.015,-0.005,1.003,-0.183,220972
0.013,-0.005,1.003,-0.122,220999
0.014,-0.007,1.003,-0.183,221028
0.015,-0.006,1.0,-0.122,221051
0.014,-0.005,1.003,-0.244,221079
0.015,-0.006,1.003,-0.183,221105
0.013,-0.005,1.002,-0.183,221132
0.013,-0.005,1.003,-0.122,221160
0.013,-0.006,1.003,-0.244,221185
0.015,-0.005,1.004,-0.244,221211
0.015,-0.005,1.001,-0.183,221237
0.014,-0.004,1.002,-0.122,221264
0.015,-0.005,1.002,-0.244,221289
0.012,-0.005,1.002,-0.122,221317
0.013,-0.005,1.003,-0.244,221341
0.016,-0.006,1.002,-0.183,221372
0.013,-0.004,1.002,-0.244,221396
0.015,-0.006,1.002,-0.122,221422
0.015,-0.006,1.001,-0.244,221447
0.014,-0.005,1.001,-0.244,221472
0.013,-0.005,1.003,-0.183,221496
0.015,-0.006,1.003,-0.305,221522
0.014,-0.005,1.003,-0.244,221548
0.014,-0.006,1.003,-0.183,221573
0.013,-0.005,1.003,-0.183,221599
0.013,-0.006,1.003,-0.244,221624
0.013,-0.007,1.001,-0.244,221649
0.013,-0.004,1.004,-0.183,221677
0.015,-0.006,1.005,-0.122,221703
0.013,-0.005,1.002,-0.122,221729
0.014,-0.005,1.003,-0.244,221756
0.015,-0.005,1.003,-0.183,221784
0.016,-0.006,1.004,-0.366,221810
0.013,-0.005,1.002,-0.183,221837
0.015,-0.004,1.0,-0.122,221863
0.013,-0.004,1.003,-0.122,221887
0.015,-0.003,1.002,-0.122,221912
0.015,-0.007,1.002,-0.183,221937
0.015,-0.006,1.004,-0.244,221961
0.014,-0.004,1.003,-0.183,221984
0.014,-0.005,1.002,-0.122,222010
0.015,-0.006,1.003,-0.183,222036
0.014,-0.005,1.003,-0.244,222062
0.015,-0.006,1.001,-0.244,222087
0.013,-0.003,1.001,-0.183,222112
0.014,-0.005,1.002,-0.244,222138
0.014,-0.006,1.0,-0.366,222166
0.014,-0.007,1.001,-0.122,222193
0.014,-0.005,1.004,-0.244,222219
0.013,-0.006,1.003,-0.244,222244
0.014,-0.005,1.004,-0.305,222273
0.014,-0.005,1.002,-0.305,222299
0.014,-0.006,1.002,-0.122,222324
0.014,-0.005,1.003,-0.305,222349
0.014,-0.006,1.004,-0.122,222375
0.014,-0.004,1.002,-0.183,222400
0.014,-0.004,1.002,-0.183,222423
0.015,-0.007,1.004,-0.122,222447
0.014,-0.004,1.002,-0.183,222471
0.015,-0.005,1.002,-0.122,222497
0.013,-0.005,1.0,-0.061,222524
0.013,-0.004,1.003,-0.244,222549
0.014,-0.005,1.002,-0.244,222574
0.013,-0.005,1.002,-0.244,222599
0.016,-0.003,1.003,-0.244,222624
0.015,-0.006,1.002,-0.244,222648
0.013,-0.006,1.002,-0.305,222672
0.014,-0.004,1.003,-0.183,222699
0.015,-0.005,1.001,-0.244,222725
0.013,-0.005,1.003,-0.244,222749
0.014,-0.005,1.003,-0.244,222775
0.013,-0.006,1.004,-0.122,222800
0.014,-0.005,1.002,-0.244,222825
0.013,-0.005,1.004,-0.244,222851
0.015,-0.006,1.003,-0.244,222874
0.014,-0.004,1.001,-0.305,222899
0.015,-0.005,1.002,-0.366,222924
0.013,-0.004,1.002,-0.305,222949
0.014,-0.005,1.002,-0.061,222974
0.015,-0.004,1.004,-0.061,222998
0.014,-0.004,1.003,-0.122,223023
0.015,-0.005,1.002,-0.183,223047
0.015,-0.006,1.002,-0.122,223072
0.013,-0.005,1.002,-0.305,223098
0.015,-0.006,1.002,-0.244,223122
0.013,-0.005,1.002,-0.122,223147
0.016,-0.005,1.003,-0.122,223173
0.015,-0.006,1.003,-0.183,223197
0.013,-0.006,1.004,-0.244,223224
0.014,-0.006,1.004,-0.305,223248
0.015,-0.004,1.002,-0.183,223273
0.015,-0.005,1.005,-0.122,223299
0.015,-0.006,1.002,-0.305,223324
0.014,-0.005,1.001,-0.305,223352
0.013,-0.006,1.002,-0.244,223376
0.014,-0.005,1.003,0.0,223405
0.014,-0.004,1.002,-0.244,223432
0.015,-0.005,1.003,-0.183,223457
0.014,-0.005,1.002,-0.305,223482
0.015,-0.005,1.001,-0.366,223506
0.015,-0.006,1.002,-0.061,223531
0.015,-0.004,1.003,-0.244,223559
0.014,-0.006,1.003,-0.183,223586
0.013,-0.006,1.002,-0.183,223612
0.013,-0.006,1.001,-0.122,223637
0.013,-0.005,1.001,-0.305,223663
0.013,-0.006,1.001,-0.244,223688
0.014,-0.006,1.002,-0.183,223715
0.013,-0.004,1.005,-0.244,223738
0.016,-0.006,1.003,-0.244,223763
0.014,-0.005,1.002,-0.305,223789
0.014,-0.006,1.003,-0.305,223815
0.014,-0.006,1.002,-0.183,223842
0.014,-0.005,1.004,-0.122,223869
0.013,-0.006,1.004,-0.183,223893
0.014,-0.004,1.001,-0.122,223918
0.015,-0.006,1.002,-0.122,223943
0.015,-0.004,1.002,-0.183,223968
0.013,-0.004,1.002,-0.183,223993
0.015,-0.005,1.002,-0.183,224019
0.016,-0.004,1.002,-0.183,224047
0.013,-0.006,1.003,-0.183,224071
0.013,-0.008,1.002,-0.183,224096
0.013,-0.005,1.003,-0.183,224122
0.013,-0.007,1.002,-0.061,224150
0.013,-0.006,1.002,-0.244,224177
0.013,-0.005,1.002,-0.122,224204
0.014,-0.005,1.003,-0.305,224231
0.014,-0.005,1.002,-0.183,224257
0.013,-0.006,1.004,-0.305,224281
0.014,-0.005,1.001,-0.183,224307
0.014,-0.004,1.002,-0.244,224332
0.013,-0.005,1.002,-0.244,224358
0.014,-0.005,1.002,-0.244,224383
0.014,-0.007,1.002,-0.366,224406
0.014,-0.005,1.004,-0.122,224432
0.014,-0.006,1.003,-0.244,224456
0.014,-0.005,1.003,-0.244,224482
0.015,-0.005,1.001,-0.122,224508
0.013,-0.004,1.003,-0.183,224533
0.015,-0.005,1.003,-0.244,224556
0.015,-0.006,1.002,-0.183,224580
0.014,-0.006,1.004,-0.305,224605
0.014,-0.004,1.002,-0.183,224630
0.015,-0.005,1.002,-0.244,224657
0.014,-0.006,1.003,-0.366,224682
0.015,-0.004,1.003,-0.061,224708
0.014,-0.004,1.003,-0.244,224734
0.015,-0.005,1.004,-0.305,224762
0.016,-0.008,1.004,-0.183,224787
0.014,-0.004,1.003,-0.366,224813
0.013,-0.004,1.002,-0.183,224837
0.015,-0.005,1.004,-0.122,224863
0.014,-0.006,1.001,-0.183,224888
0.014,-0.005,1.002,-0.183,224913
0.015,-0.006,1.001,-0.183,224936
0.016,-0.006,1.003,-0.244,224962
0.014,-0.005,1.003,-0.122,224987
0.015,-0.005,1.003,-0.122,225012
0.015,-0.005,1.003,-0.244,225038
0.015,-0.006,1.003,-0.305,225062
0.013,-0.006,1.001,-0.122,225087
0.015,-0.005,1.002,-0.183,225112
0.014,-0.004,1.002,-0.244,225136
0.014,-0.005,1.003,-0.244,225162
0.015,-0.005,1.001,-0.183,225186
0.014,-0.007,1.001,-0.183,225212
0.011,-0.006,1.003,-0.305,225236
0.015,-0.005,1.003,-0.305,225263
0.014,-0.007,1.003,-0.183,225288
0.014,-0.005,1.003,-0.183,225314
0.013,-0.005,1.001,-0.244,225337
0.015,-0.005,1.004,-0.183,225362
0.015,-0.006,1.003,-0.244,225388
0.014,-0.005,1.001,-0.183,225412
0.015,-0.006,1.002,-0.183,225437
0.013,-0.006,1.003,-0.305,225462
0.017,-0.004,1.003,-0.122,225488
0.013,-0.005,1.001,-0.305,225511
0.013,-0.006,1.002,-0.122,225536
0.015,-0.005,1.001,-0.183,225561
0.015,-0.005,1.003,-0.244,225586
0.014,-0.004,1.0,-0.183,225609
0.014,-0.003,1.004,-0.183,225632
0.013,-0.005,1.002,-0.244,225660
0.014,-0.006,1.002,-0.305,225684
0.014,-0.005,1.002,-0.244,225710
0.015,-0.006,1.002,-0.122,225735
0.014,-0.005,1.003,-0.244,225759
0.013,-0.007,1.002,-0.183,225783
0.015,-0.007,1.002,-0.305,225808
0.014,-0.005,1.003,-0.122,225834
0.014,-0.005,1.003,-0.183,225862
0.015,-0.005,1.003,-0.305,225887
0.015,-0.004,1.0,-0.122,225913
0.016,-0.006,1.0,-0.244,225940
0.014,-0.004,1.003,-0.183,225965
0.013,-0.006,1.002,-0.305,225989
0.013,-0.005,1.002,-0.305,226013
0.015,-0.005,1.002,-0.122,226038
0.015,-0.005,1.002,-0.183,226064
0.014,-0.005,1.003,-0.183,226093
0.013,-0.005,1.001,-0.244,226118
0.015,-0.005,1.003,-0.305,226143
0.015,-0.005,1.004,-0.244,226169
0.014,-0.006,1.002,-0.061,226195
0.015,-0.006,1.002,-0.244,226248
0.014,-0.006,1.002,-0.183,226276
0.015,-0.004,1.002,-0.183,226302
0.014,-0.006,1.004,-0.244,226327
0.014,-0.006,1.003,-0.122,226352
0.014,-0.005,1.003,-0.183,226380
0.013,-0.005,1.002,-0.183,226404
0.014,-0.004,1.005,-0.122,226431
0.015,-0.005,1.0,-0.244,226455
0.015,-0.005,1.001,-0.122,226479
0.014,-0.007,1.003,-0.244,226508
0.013,-0.006,1.002,-0.122,226533
0.013,-0.005,1.004,-0.427,226558
0.013,-0.007,1.004,-0.244,226584
0.015,-0.004,1.002,-0.122,226610
0.014,-0.005,1.002,0.0,226636
0.014,-0.005,1.002,-0.305,226660
0.014,-0.004,1.002,-0.244,226685
0.014,-0.006,1.002,-0.122,226711
0.013,-0.005,1.003,-0.305,226736
0.014,-0.006,1.001,-0.122,226764
0.014,-0.007,1.002,-0.183,226789
0.015,-0.006,1.003,-0.305,226814
0.015,-0.005,1.001,-0.305,226839
0.013,-0.005,1.004,-0.244,226865
0.015,-0.005,1.003,-0.183,226890
0.015,-0.006,1.002,-0.183,226916
0.015,-0.005,1.002,-0.122,226940
0.014,-0.006,1.002,-0.183,226968
0.014,-0.006,1.004,-0.061,226993
0.015,-0.004,1.001,-0.244,227023
0.014,-0.006,1.003,-0.183,227048
0.014,-0.005,1.003,-0.244,227071
0.014,-0.006,1.002,-0.122,227097
0.014,-0.006,1.002,-0.183,227121
0.014,-0.004,1.003,-0.061,227145
0.015,-0.005,1.001,-0.183,227171
0.013,-0.006,1.003,-0.244,227198
0.015,-0.006,1.002,-0.244,227222
0.014,-0.007,1.002,-0.305,227248
0.012,-0.005,1.003,-0.183,227273
0.013,-0.005,1.004,-0.061,227298
0.013,-0.006,1.002,-0.244,227321
0.015,-0.006,1.001,-0.305,227346
0.016,-0.005,1.001,-0.122,227370
0.015,-0.005,1.003,-0.183,227395
0.014,-0.006,1.003,-0.183,227421
0.015,-0.005,1.002,-0.183,227446
0.014,-0.006,1.001,-0.183,227472
0.014,-0.006,1.002,-0.244,227498
0.013,-0.006,1.003,-0.244,227524
0.015,-0.005,1.0,-0.244,227551
0.014,-0.006,1.002,-0.122,227576
0.016,-0.005,1.004,-0.366,227604
0.015,-0.005,1.002,-0.122,227629
0.015,-0.004,1.001,-0.183,227653
0.013,-0.007,1.005,-0.122,227678
0.014,-0.006,1.003,-0.061,227702
0.014,-0.004,1.0,-0.122,227727
0.014,-0.005,1.003,-0.061,227752
0.015,-0.005,1.002,-0.183,227776
0.015,-0.006,1.003,-0.305,227806
0.014,-0.005,1.003,-0.183,227833
0.013,-0.007,1.001,-0.122,227858
0.015,-0.006,1.003,-0.183,227884
0.014,-0.006,1.003,-0.122,227910
0.014,-0.005,1.005,-0.305,227933
0.014,-0.005,1.003,-0.183,227959
0.015,-0.006,1.002,-0.122,227984
0.012,-0.005,1.003,-0.244,228009
0.014,-0.005,1.001,-0.122,228033
0.014,-0.005,1.003,-0.183,228057
0.013,-0.006,1.001,-0.244,228082
0.015,-0.005,1.001,-0.305,228106
0.013,-0.004,1.004,-0.305,228130
0.014,-0.006,1.002,-0.244,228154
0.015,-0.005,1.004,-0.244,228178
0.013,-0.005,1.002,-0.244,228205
0.015,-0.005,1.002,-0.183,228232
0.016,-0.005,1.003,-0.244,228257
0.014,-0.006,1.002,-0.122,228283
0.014,-0.003,1.0,-0.427,228309
0.015,-0.006,1.001,-0.183,228334
0.013,-0.004,1.003,-0.244,228358
0.015,-0.006,1.004,-0.427,228384
0.015,-0.005,1.005,-0.122,228409
0.014,-0.005,1.003,-0.061,228434
0.013,-0.006,1.001,-0.244,228460
0.014,-0.005,1.003,-0.244,228487
0.013,-0.005,1.001,-0.244,228512
0.014,-0.006,1.003,-0.183,228535
0.014,-0.006,1.003,-0.183,228561
0.014,-0.006,1.002,-0.244,228588
0.013,-0.005,1.002,-0.244,228611
0.014,-0.004,1.003,-0.183,228637
0.013,-0.005,1.004,-0.305,228661
0.014,-0.006,1.001,-0.122,228684
0.014,-0.005,1.004,-0.183,228709
0.014,-0.006,1.003,-0.122,228734
0.014,-0.005,1.002,-0.244,228759
0.014,-0.007,1.004,-0.244,228784
0.014,-0.005,1.002,-0.122,228807
0.014,-0.005,1.001,-0.183,228835
0.013,-0.006,1.003,-0.305,228860
0.015,-0.004,1.001,-0.244,228886
0.015,-0.005,1.003,-0.122,228911
0.012,-0.006,1.003,-0.305,228937
0.014,-0.006,1.003,-0.122,228964
0.014,-0.005,1.002,-0.244,228989
0.014,-0.004,1.002,-0.183,229015
0.014,-0.005,1.001,-0.183,229041
0.015,-0.006,1.003,-0.244,229065
0.014,-0.006,1.002,0.0,229088
0.014,-0.005,1.002,-0.305,229115
0.014,-0.005,1.003,-0.244,229140
0.015,-0.005,1.002,-0.122,229167
0.013,-0.004,1.001,-0.122,229191
0.015,-0.004,1.003,-0.122,229218
0.014,-0.005,1.001,-0.183,229243
0.014,-0.006,1.004,-0.305,229269
0.013,-0.006,1.002,-0.183,229295
0.013,-0.004,1.004,-0.122,229320
0.014,-0.006,1.002,-0.244,229348
0.013,-0.006,1.002,-0.183,229375
0.012,-0.004,1.001,-0.183,229400
0.015,-0.006,1.003,-0.122,229424
0.013,-0.004,1.003,-0.244,229450
0.015,-0.006,1.003,-0.305,229476
0.014,-0.004,1.002,-0.061,229501
0.014,-0.006,1.004,-0.244,229526
0.015,-0.005,1.002,-0.061,229551
0.013,-0.005,1.001,-0.122,229575
0.014,-0.007,1.003,-0.244,229601
0.015,-0.005,1.002,-0.305,229627
0.014,-0.005,1.002,-0.061,229653
0.014,-0.004,1.003,-0.183,229675
0.013,-0.006,1.002,-0.305,229699
0.014,-0.004,1.002,-0.305,229723
0.014,-0.004,1.002,-0.183,229747
0.013,-0.004,1.002,-0.122,229775
0.015,-0.006,1.002,-0.244,229800
0.015,-0.003,1.002,-0.183,229824
0.014,-0.004,1.001,-0.183,229850
0.014,-0.005,1.002,-0.183,229877
0.015,-0.005,1.004,-0.183,229904
0.016,-0.005,1.003,-0.244,229928
0.014,-0.004,1.001,-0.061,229952
0.014,-0.006,1.002,-0.244,229976
0.012,-0.006,1.004,-0.183,230001
0.014,-0.004,1.001,-0.183,230027
0.013,-0.007,1.003,-0.305,230050
0.013,-0.007,1.003,-0.061,230074
0.014,-0.005,1.002,-0.183,230099
0.015,-0.005,1.002,-0.244,230125
0.015,-0.006,1.002,-0.244,230151
0.014,-0.005,1.002,-0.244,230176
0.015,-0.005,1.005,-0.183,230202
0.013,-0.005,1.002,-0.122,230228
0.014,-0.004,1.003,-0.244,230254
0.015,-0.005,1.002,-0.183,230283
0.014,-0.007,1.001,-0.305,230308
0.013,-0.007,1.002,-0.244,230332
0.013,-0.005,1.003,-0.183,230358
0.014,-0.007,1.002,-0.183,230384
0.014,-0.005,1.002,-0.122,230409
0.014,-0.004,1.002,-0.183,230436
0.016,-0.005,1.002,-0.122,230460
0.015,-0.006,1.002,-0.122,230487
0.013,-0.004,1.003,-0.244,230512
0.015,-0.005,1.003,-0.183,230537
0.015,-0.006,1.002,-0.061,230564
0.014,-0.007,1.002,-0.244,230590
0.013,-0.005,1.001,-0.183,230616
0.014,-0.005,1.003,-0.122,230639
0.015,-0.005,1.001,-0.244,230662
0.014,-0.005,1.001,-0.305,230686
0.014,-0.006,1.002,-0.122,230712
0.015,-0.004,1.002,-0.183,230739
0.013,-0.007,1.003,-0.366,230764
0.014,-0.004,1.002,-0.183,230788
0.014,-0.005,1.004,-0.183,230813
0.013,-0.005,1.002,0.0,230837
0.015,-0.005,1.002,-0.183,230862
0.014,-0.005,1.002,-0.244,230885
0.016,-0.006,1.001,-0.183,230911
0.014,-0.006,1.002,-0.122,230937
0.013,-0.006,1.003,-0.244,230964
0.013,-0.004,1.001,-0.122,230988
0.016,-0.006,1.001,-0.183,231012
0.014,-0.005,1.004,-0.122,231037
0.015,-0.004,1.002,-0.244,231060
0.016,-0.004,1.001,-0.061,231086
0.013,-0.005,1.003,-0.244,231114
0.014,-0.005,1.004,-0.183,231141
0.013,-0.005,1.003,-0.183,231167
0.014,-0.004,1.003,-0.061,231190
0.014,-0.006,1.0,-0.244,231215
0.014,-0.006,1.004,-0.366,231240
0.013,-0.005,1.002,-0.366,231265
0.014,-0.005,1.003,-0.061,231291
0.014,-0.005,1.003,-0.244,231318
0.014,-0.006,1.002,-0.244,231343
0.014,-0.005,1.002,-0.244,231370
0.014,-0.006,1.002,-0.122,231395
0.014,-0.005,1.003,-0.183,231423
0.015,-0.005,1.003,-0.183,231446
0.015,-0.004,1.001,-0.244,231474
0.014,-0.006,1.003,-0.305,231498
0.014,-0.006,1.002,-0.183,231525
0.013,-0.004,1.003,-0.122,231548
0.014,-0.005,1.0,-0.122,231574
0.014,-0.006,1.001,-0.244,231603
0.014,-0.007,1.003,-0.305,231629
0.015,-0.005,1.001,-0.061,231654
0.015,-0.005,1.002,-0.244,231679
0.015,-0.004,1.003,-0.061,231703
0.015,-0.006,1.003,-0.122,231729
0.013,-0.005,1.003,-0.122,231756
0.014,-0.005,1.001,-0.427,231783
0.015,-0.006,1.003,-0.305,231808
0.013,-0.006,1.003,-0.183,231833
0.013,-0.005,1.004,-0.122,231857
0.013,-0.005,1.0,-0.305,231881
0.015,-0.005,1.004,-0.305,231904
0.013,-0.004,1.002,-0.244,231928
0.016,-0.005,1.001,-0.061,231953
0.015,-0.005,1.003,-0.244,231979
0.016,-0.006,1.003,-0.244,232005
0.014,-0.005,1.002,-0.122,232031
0.014,-0.004,1.002,-0.061,232055
0.014,-0.006,1.003,-0.244,232081
0.013,-0.004,1.002,-0.244,232108
0.013,-0.004,1.004,-0.122,232132
0.015,-0.006,1.002,-0.183,232157
0.013,-0.007,1.003,-0.244,232181
0.013,-0.005,1.003,-0.244,232205
0.014,-0.007,1.001,-0.244,232229
0.014,-0.004,1.002,-0.061,232253
0.014,-0.005,1.002,-0.122,232279
0.014,-0.005,1.002,-0.183,232303
0.014,-0.004,1.002,-0.244,232331
0.015,-0.005,1.003,-0.183,232358
0.015,-0.005,1.002,-0.183,232385
0.013,-0.005,1.001,-0.061,232409
0.013,-0.005,1.003,-0.183,232433
0.014,-0.007,1.004,-0.183,232460
0.016,-0.006,1.003,-0.122,232485
0.013,-0.005,1.002,-0.122,232511
0.015,-0.006,1.002,-0.183,232535
0.014,-0.004,1.004,-0.122,232559
0.016,-0.005,1.002,-0.427,232586
0.013,-0.006,1.002,-0.183,232610
0.014,-0.006,1.004,-0.305,232638
0.014,-0.007,1.002,-0.244,232665
0.014,-0.005,1.002,-0.122,232689
0.013,-0.005,1.002,-0.244,232716
0.014,-0.006,1.002,-0.183,232743
0.015,-0.004,1.001,-0.183,232769
0.013,-0.004,1.004,-0.122,232793
0.015,-0.006,1.002,-0.183,232818
0.015,-0.007,1.0,-0.366,232846
0.014,-0.006,1.004,-0.122,232870
0.014,-0.006,1.001,-0.183,232896
0.014,-0.007,1.002,-0.183,232921
0.016,-0.006,1.001,-0.244,232945
0.012,-0.007,1.002,-0.244,232969
0.013,-0.005,1.003,-0.183,232994
0.014,-0.004,1.004,-0.366,233021
0.015,-0.005,1.002,-0.427,233046
0.013,-0.006,1.002,-0.122,233071
0.014,-0.005,1.002,-0.183,233096
0.015,-0.006,1.001,-0.244,233121
0.014,-0.006,1.003,-0.305,233146
0.013,-0.005,1.003,-0.183,233172
0.013,-0.005,1.003,-0.061,233197
0.014,-0.006,1.001,-0.183,233223
0.015,-0.005,1.002,-0.183,233247
0.014,-0.005,1.004,-0.183,233271
0.012,-0.005,1.002,-0.122,233297
0.015,-0.005,1.003,-0.305,233325
0.014,-0.006,1.003,-0.305,233352
0.014,-0.005,1.002,-0.244,233378
0.014,-0.004,1.003,-0.305,233402
0.014,-0.005,1.002,-0.122,233426
0.015,-0.006,1.003,-0.122,233451
0.015,-0.004,1.002,-0.061,233475
0.014,-0.006,1.003,-0.305,233503
0.014,-0.005,1.003,-0.244,233527
0.012,-0.006,1.002,-0.244,233552
0.015,-0.005,1.002,-0.366,233579
0.013,-0.004,1.002,-0.183,233604
0.013,-0.005,1.003,-0.244,233631
0.015,-0.006,1.003,-0.366,233659
0.013,-0.006,1.003,-0.183,233684
0.016,-0.006,1.001,-0.122,233708
0.014,-0.005,1.001,-0.366,233734
0.013,-0.006,1.003,-0.305,233760
0.014,-0.005,1.002,-0.366,233784
0.015,-0.004,1.002,-0.122,233809
0.014,-0.005,1.001,-0.183,233835
0.014,-0.004,1.002,-0.183,233860
0.013,-0.005,1.0,-0.305,233885
0.014,-0.006,1.003,-0.244,233910
0.014,-0.005,1.002,-0.183,233936
0.015,-0.007,1.001,-0.183,233962
0.013,-0.004,1.001,-0.244,233988
0.015,-0.004,1.002,-0.244,234016
0.013,-0.004,1.003,-0.183,234041
0.012,-0.006,1.002,-0.183,234067
0.014,-0.006,1.003,-0.244,234089
0.014,-0.005,1.003,-0.122,234113
0.013,-0.005,1.002,-0.244,234138
0.015,-0.006,1.004,-0.183,234163
0.014,-0.006,1.001,-0.183,234187
0.013,-0.004,1.005,-0.122,234211
0.014,-0.006,1.003,-0.183,234236
0.013,-0.006,1.003,-0.244,234262
0.015,-0.005,1.0,-0.244,234287
0.012,-0.006,1.003,-0.183,234314
0.014,-0.005,1.003,-0.183,234339
0.013,-0.005,1.003,-0.183,234365
0.013,-0.006,1.003,-0.183,234390
0.015,-0.006,1.002,-0.122,234416
0.013,-0.006,1.001,-0.183,234440
0.014,-0.007,1.003,-0.305,234465
0.013,-0.006,1.002,-0.244,234492
0.014,-0.006,1.003,-0.122,234520
0.014,-0.005,1.002,-0.244,234544
0.014,-0.005,1.003,-0.061,234572
0.014,-0.006,1.003,-0.183,234598
0.013,-0.005,1.003,-0.061,234625
0.014,-0.004,1.002,-0.122,234649
0.013,-0.005,1.0,-0.122,234673
0.014,-0.006,1.004,-0.305,234698
0.016,-0.006,1.003,-0.183,234723
0.013,-0.006,1.002,-0.244,234747
0.015,-0.004,1.004,-0.244,234772
0.014,-0.005,1.003,-0.244,234798
0.014,-0.005,1.004,-0.305,234824
0.014,-0.006,1.002,-0.183,234848
0.013,-0.007,1.001,-0.244,234874
0.014,-0.006,1.003,-0.244,234898
0.014,-0.005,1.003,-0.122,234922
0.014,-0.006,1.004,-0.061,234945
0.013,-0.005,1.001,-0.244,234969
0.014,-0.006,1.003,-0.122,234994
0.014,-0.005,1.002,-0.122,235020
0.015,-0.006,1.002,-0.305,235045
0.015,-0.004,1.002,-0.244,235072
0.013,-0.006,1.003,-0.244,235096
0.014,-0.006,1.003,-0.305,235121
0.013,-0.005,1.003,-0.122,235147
0.014,-0.006,1.002,-0.183,235172
0.014,-0.004,1.002,-0.183,235199
0.013,-0.004,1.004,-0.305,235224
0.013,-0.005,1.002,-0.305,235249
0.014,-0.005,1.004,-0.183,235275
0.014,-0.006,1.001,-0.183,235301
0.015,-0.005,1.003,-0.244,235326
0.013,-0.006,1.001,-0.061,235350
0.014,-0.004,1.003,-0.244,235375
0.014,-0.005,1.004,-0.366,235401
0.014,-0.005,1.002,-0.122,235429
0.015,-0.004,1.003,-0.244,235455
0.014,-0.005,1.003,-0.183,235482
0.013,-0.006,1.002,-0.244,235505
0.014,-0.005,1.002,-0.244,235530
0.014,-0.005,1.002,-0.244,235557
0.014,-0.006,1.001,-0.244,235582
0.014,-0.007,1.001,-0.244,235611
0.013,-0.006,1.003,-0.305,235637
0.014,-0.005,1.002,-0.183,235663
0.015,-0.006,1.003,-0.122,235688
0.015,-0.005,1.003,-0.122,235713
0.015,-0.005,1.002,-0.183,235737
0.015,-0.005,1.003,-0.122,235761
0.013,-0.004,1.002,-0.244,235787
0.015,-0.006,1.001,-0.183,235813
0.015,-0.006,1.004,-0.244,235838
0.014,-0.005,1.001,-0.183,235862
0.013,-0.005,1.001,-0.183,235888
0.014,-0.005,1.002,-0.183,235916
0.012,-0.005,1.001,-0.366,235941
0.015,-0.005,1.004,-0.183,235964
0.012,-0.005,1.001,-0.305,235991
0.014,-0.006,1.004,-0.183,236018
0.015,-0.006,1.004,-0.183,236043
0.015,-0.006,1.002,-0.183,236068
0.015,-0.004,1.003,0.0,236092
0.014,-0.005,1.001,-0.183,236117
0.014,-0.005,1.002,-0.183,236144
0.014,-0.006,1.003,-0.122,236169
0.013,-0.005,1.001,-0.122,236194
0.014,-0.005,1.003,-0.305,236219
0.015,-0.007,1.002,-0.183,236243
0.015,-0.005,1.002,-0.183,236270
0.014,-0.005,1.003,-0.122,236294
0.014,-0.005,1.004,-0.183,236319
0.014,-0.004,1.003,-0.305,236345
0.014,-0.005,1.0,-0.305,236369
0.013,-0.006,1.002,-0.061,236393
0.014,-0.005,1.002,-0.244,236420
0.015,-0.004,1.002,-0.244,236448
0.014,-0.004,1.003,-0.244,236475
0.015,-0.006,1.002,-0.244,236501
0.014,-0.006,1.002,-0.061,236527
0.014,-0.005,1.003,-0.244,236552
0.014,-0.007,1.003,-0.183,236578
0.015,-0.006,1.001,-0.305,236603
0.014,-0.004,1.003,-0.122,236629
0.015,-0.005,1.002,-0.305,236654
0.013,-0.006,1.002,-0.183,236679
0.015,-0.006,1.003,-0.366,236705
0.013,-0.006,1.004,-0.122,236729
0.013,-0.003,1.002,-0.122,236756
0.014,-0.004,1.002,-0.244,236780
0.016,-0.005,1.003,-0.366,236805
0.014,-0.003,1.001,-0.244,236829
0.012,-0.004,1.002,-0.061,236853
0.013,-0.005,1.003,-0.183,236879
0.014,-0.005,1.003,-0.305,236904
0.014,-0.005,1.002,-0.122,236931
0.015,-0.004,1.0,-0.122,236956
0.015,-0.005,1.001,-0.366,236981
0.015,-0.006,1.005,-0.244,237005
0.014,-0.007,1.003,-0.122,237031
0.013,-0.005,1.003,-0.183,237055
0.015,-0.007,1.002,-0.061,237079
0.013,-0.005,1.002,-0.244,237106
0.015,-0.006,1.003,-0.244,237133
0.012,-0.006,1.002,-0.183,237160
0.013,-0.006,1.004,-0.122,237185
0.014,-0.005,1.002,-0.183,237210
0.014,-0.006,1.002,-0.183,237236
0.014,-0.007,1.002,-0.122,237263
0.013,-0.003,1.003,-0.183,237287
0.014,-0.006,1.003,-0.183,237313
0.013,-0.005,1.003,-0.244,237338
0.015,-0.004,1.002,-0.244,237362
0.013,-0.007,1.003,-0.244,237387
0.015,-0.006,1.002,-0.122,237414
0.015,-0.005,1.002,-0.244,237440
0.015,-0.005,1.004,-0.183,237467
0.014,-0.006,1.003,-0.183,237492
0.014,-0.006,1.003,-0.244,237517
0.016,-0.004,1.001,-0.122,237543
0.015,-0.005,1.002,-0.366,237566
0.014,-0.004,1.002,-0.305,237592
0.015,-0.006,1.004,-0.061,237617
0.014,-0.005,1.003,-0.183,237643
0.015,-0.007,1.002,-0.183,237669
0.014,-0.004,1.002,-0.122,237694
0.014,-0.006,1.002,-0.366,237721
0.014,-0.004,1.005,-0.244,237747
0.013,-0.004,1.001,-0.305,237770
0.014,-0.005,1.003,-0.366,237796
0.015,-0.004,1.002,-0.183,237822
0.013,-0.006,1.002,-0.366,237846
0.014,-0.005,1.001,-0.244,237871
0.013,-0.004,1.003,-0.122,237897
0.013,-0.006,1.004,-0.244,237923
0.015,-0.007,1.004,-0.244,237947
0.014,-0.006,1.003,-0.122,237973
0.012,-0.004,1.001,-0.183,237997
0.014,-0.006,1.001,-0.061,238021
0.013,-0.005,1.002,-0.183,238046
0.014,-0.006,1.004,-0.183,238071
0.013,-0.003,1.003,-0.244,238094
0.013,-0.005,1.004,-0.244,238122
0.014,-0.006,1.005,-0.183,238146
0.013,-0.005,1.002,-0.244,238175
0.015,-0.004,1.002,-0.122,238200
0.014,-0.005,1.003,-0.305,238229
0.014,-0.005,1.002,-0.122,238254
0.014,-0.005,1.004,-0.244,238278
0.014,-0.006,1.004,-0.244,238302
0.015,-0.006,1.003,-0.244,238326
0.013,-0.004,1.001,-0.183,238352
0.015,-0.006,1.001,-0.183,238380
0.013,-0.006,1.002,-0.244,238408
0.013,-0.005,1.002,-0.183,238434
0.013,-0.006,1.004,-0.244,238461
0.013,-0.005,1.002,-0.305,238485
0.012,-0.004,1.002,-0.122,238511
0.013,-0.005,1.003,-0.122,238536
0.014,-0.007,1.003,-0.122,238560
0.014,-0.005,1.004,-0.183,238584
0.013,-0.006,1.004,-0.122,238609
0.015,-0.006,1.002,-0.122,238633
0.014,-0.006,1.002,-0.366,238658
0.014,-0.005,1.003,-0.244,238685
0.015,-0.005,1.003,-0.244,238712
0.015,-0.004,1.003,-0.183,238737
0.015,-0.006,1.003,-0.244,238761
0.017,-0.006,1.004,-0.244,238786
0.014,-0.006,1.004,-0.122,238813
0.014,-0.006,1.001,-0.244,238837
0.012,-0.005,1.003,-0.122,238863
0.012,-0.004,1.002,-0.183,238889
0.014,-0.005,1.001,-0.305,238914
0.014,-0.005,1.003,-0.122,238939
0.015,-0.003,1.003,-0.122,238964
0.014,-0.006,1.002,0.0,238990
0.016,-0.004,1.003,-0.183,239015
0.014,-0.007,1.003,-0.183,239039
0.015,-0.005,1.004,-0.305,239063
0.014,-0.008,1.003,-0.305,239088
0.014,-0.006,1.003,-0.183,239114
0.013,-0.005,1.001,-0.366,239139
0.015,-0.005,1.002,-0.183,239165
0.014,-0.005,1.002,-0.183,239192
0.013,-0.006,1.004,-0.183,239217
0.014,-0.005,1.003,-0.244,239242
0.014,-0.004,1.002,-0.305,239269
0.015,-0.006,1.003,-0.183,239294
0.014,-0.004,1.002,-0.122,239318
0.013,-0.005,1.002,-0.122,239344
0.015,-0.005,1.004,-0.305,239369
0.015,-0.004,1.001,-0.122,239395
0.016,-0.005,1.003,-0.305,239422
0.015,-0.005,1.003,-0.122,239451
0.013,-0.005,1.003,-0.244,239478
0.012,-0.006,1.002,-0.244,239504
0.013,-0.004,1.002,-0.244,239529
0.013,-0.003,1.002,-0.122,239554
0.015,-0.006,1.002,-0.183,239580
0.014,-0.006,1.002,-0.244,239604
0.013,-0.004,1.0,-0.183,239629
0.013,-0.007,1.002,-0.244,239654
0.014,-0.005,1.002,-0.305,239679
0.013,-0.006,1.002,-0.427,239704
0.014,-0.006,1.001,-0.183,239732
0.014,-0.006,1.001,-0.183,239757
0.015,-0.005,1.002,-0.122,239780
0.014,-0.006,1.003,-0.061,239807
0.014,-0.005,1.002,-0.183,239830
0.015,-0.006,1.001,-0.305,239856
0.015,-0.004,1.001,-0.244,239881
0.014,-0.004,1.002,-0.183,239909
0.013,-0.006,1.003,-0.244,239933
0.015,-0.006,1.004,-0.183,239960
0.016,-0.005,1.003,-0.244,239984
0.014,-0.004,1.003,-0.122,240010
0.014,-0.005,1.003,-0.183,240035
0.015,-0.005,1.002,-0.305,240059
0.015,-0.004,1.0,-0.244,240087
0.014,-0.005,1.003,-0.122,240112
0.014,-0.007,0.998,-0.183,240139
0.015,-0.005,0.994,-0.671,240165
0.014,-0.007,1.011,-0.244,240190
0.014,-0.005,1.006,-0.122,240218
0.015,-0.006,1.009,-0.305,240243
0.014,-0.005,0.997,-0.183,240269
0.016,-0.005,1.005,-0.244,240294
0.012,-0.003,1.001,0.122,240319
0.014,-0.004,1.003,0.122,240345
0.014,-0.003,1.003,-0.183,240371
0.014,-0.007,1.003,-0.305,240396
0.014,-0.005,1.004,-0.061,240419
0.014,-0.006,1.002,-0.366,240443
0.015,-0.005,1.001,-0.427,240471
0.013,-0.008,1.004,-0.305,240496
0.014,-0.005,1.002,-0.183,240522
0.014,-0.007,1.001,-0.305,240547
0.014,-0.005,1.004,-0.183,240571
0.014,-0.004,1.002,-0.183,240595
0.014,-0.007,1.006,-0.183,240620
0.015,-0.004,1.0,-0.244,240646
0.014,-0.004,1.002,-0.183,240672
0.015,-0.005,1.003,-0.183,240697
0.013,-0.005,1.003,-0.122,240725
0.013,-0.006,1.001,0.0,240753
0.013,-0.007,1.002,-0.244,240778
0.014,-0.006,1.003,-0.122,240803
0.013,-0.004,1.001,-0.122,240827
0.015,-0.006,0.999,-0.061,240854
0.017,-0.006,0.997,-1.099,240878
0.01,0.0,1.005,0.977,240902
0.014,-0.002,0.989,-1.404,240927
0.015,-0.006,1.01,1.099,240952
0.011,0.001,0.986,-0.977,240978
0.019,-0.011,1.016,-0.305,241003
0.009,0.0,0.994,1.099,241033
0.01,-0.004,1.0,-1.099,241058
0.013,-0.007,1.003,-0.183,241083
0.011,-0.004,1.008,-0.061,241108
0.011,-0.002,1.002,-0.244,241133
0.017,-0.008,1.005,-0.427,241159
0.017,-0.006,1.005,-0.061,241184
0.016,-0.004,1.001,-0.366,241210
0.017,-0.006,1.003,-0.183,241236
0.015,-0.004,1.002,-0.122,241262
0.012,-0.005,1.003,-0.183,241287
0.011,-0.007,1.001,-0.122,241312
0.014,-0.008,1.004,0.0,241343
0.013,-0.006,1.001,-0.305,241370
0.015,-0.008,1.001,-0.183,241395
0.016,-0.006,1.002,-0.122,241419
0.015,-0.005,1.002,-0.183,241448
0.015,-0.004,1.003,-0.244,241474
0.014,-0.005,0.995,-0.305,241500
0.012,-0.004,1.02,0.183,241524
0.014,-0.001,0.981,-0.916,241548
0.017,-0.014,1.017,-0.183,241571
0.011,0.0,0.987,0.305,241596
0.021,-0.015,1.014,-1.343,241622
0.01,0.001,0.984,1.038,241645
0.02,-0.014,1.017,-0.793,241668
0.011,0.001,0.996,0.916,241694
0.01,-0.003,1.002,-0.793,241719
0.015,-0.004,0.998,-0.061,241741
0.01,-0.003,1.007,-0.061,241765
0.012,-0.005,0.996,-0.305,241791
0.013,-0.006,1.006,-0.183,241816
0.016,-0.007,1.003,-0.183,241841
0.017,-0.008,1.001,-0.305,241866
0.019,-0.007,1.003,-0.061,241890
0.017,-0.006,1.005,-0.183,241916
0.016,-0.004,1.0,-0.305,241941
0.012,-0.003,1.002,-0.122,241966
0.013,-0.004,1.0,-0.122,241992
0.011,-0.003,1.003,-0.305,242019
0.01,-0.006,1.001,-0.122,242045
0.015,-0.008,1.001,-0.366,242068
0.016,-0.008,1.004,-0.244,242093
0.017,-0.006,1.002,-0.183,242120
0.017,-0.007,1.003,-0.122,242145
0.017,-0.005,1.002,-0.122,242170
0.012,-0.004,1.003,-0.244,242195
0.013,-0.002,1.002,-0.061,242218
0.012,-0.002,1.002,-0.244,242242
0.012,-0.003,1.001,-0.183,242267
0.012,-0.005,1.001,-0.122,242292
0.014,-0.006,1.003,-0.122,242317
0.016,-0.009,1.001,-0.305,242343
0.016,-0.009,1.0,-0.122,242370
0.016,-0.01,0.998,-0.305,242394
0.012,-0.008,0.999,0.183,242420
0.013,-0.003,1.001,-0.793,242443
0.01,0.0,0.996,0.488,242471
0.014,-0.001,0.998,-1.221,242495
0.016,0.0,1.005,0.671,242519
0.012,-0.0,0.994,0.0,242548
0.021,-0.006,1.01,-0.793,242573
0.015,-0.004,1.0,0.305,242599
0.014,-0.005,1.0,-0.488,242624
0.016,-0.008,1.006,0.0,242650
0.006,-0.006,1.002,0.244,242675
0.013,-0.009,0.998,-0.549,242700
0.01,-0.009,1.007,0.122,242724
0.011,-0.002,1.001,-0.183,242748
0.018,-0.004,1.002,-0.305,242776
0.017,-0.004,1.004,-0.122,242803
0.018,-0.003,1.0,-0.061,242826
0.02,-0.005,1.004,-0.183,242849
0.016,-0.002,1.001,-0.061,242874
0.013,-0.004,1.002,-0.305,242899
0.008,-0.006,1.003,-0.061,242923
0.012,-0.007,1.001,-0.244,242948
0.01,-0.011,1.002,-0.183,242972
0.011,-0.009,1.002,-0.183,242998
0.015,-0.007,1.002,-0.244,243023
0.016,-0.007,1.003,-0.183,243048
0.017,-0.006,1.003,-0.366,243071
0.016,-0.006,0.986,-0.305,243095
0.017,-0.007,1.022,-0.793,243125
0.014,0.004,1.008,0.244,243152
0.014,0.002,0.992,-0.671,243181
0.021,-0.003,1.02,0.244,243205
0.017,-0.002,0.993,0.0,243230
0.019,-0.009,1.002,-0.732,243253
0.014,-0.004,1.014,0.549,243280
0.002,-0.002,0.992,-0.122,243308
0.01,-0.014,0.999,-0.916,243332
0.008,-0.009,1.011,0.488,243358
0.008,-0.011,0.994,-0.977,243384
0.016,-0.011,1.001,-0.488,243410
0.013,-0.003,1.008,0.122,243434
0.019,0.001,1.001,-0.549,243459
0.019,0.001,1.001,-0.366,243485
0.017,0.001,1.005,0.122,243511
0.018,-0.003,1.001,-0.549,243536
0.014,-0.003,1.007,-0.305,243561
0.01,-0.002,1.0,-0.061,243584
0.011,-0.01,1.004,-0.244,243607
0.006,-0.006,0.998,0.305,243632
0.012,-0.013,0.999,-0.061,243658
0.015,-0.013,1.001,-0.366,243685
0.013,-0.008,1.003,0.061,243710
0.015,-0.004,1.0,-0.183,243735
0.017,-0.002,1.006,-0.366,243761
0.017,0.003,1.005,0.0,243789
0.016,-0.0,1.004,-0.305,243815
0.017,-0.001,1.006,-0.244,243842
0.014,-0.0,1.003,-0.061,243870
0.016,-0.005,1.001,-0.122,243894
0.012,-0.016,0.983,-0.854,243920
0.006,-0.006,1.035,2.563,243947
0.006,0.006,0.939,-4.822,243971
0.026,-0.032,1.03,-3.845,243997
0.019,-0.004,0.976,-1.709,244024
0.011,-0.009,1.036,1.221,244049
0.006,0.017,0.994,0.854,244074
0.022,-0.008,1.003,-1.221,244098
0.014,-0.004,1.002,0.244,244123
0.015,-0.003,1.007,-0.061,244147
0.016,-0.007,0.99,-0.61,244172
0.013,-0.014,1.006,-0.183,244199
0.013,-0.012,0.991,0.0,244223
0.013,-0.013,1.012,-0.305,244248
0.011,-0.002,0.998,0.183,244271
0.012,-0.01,0.999,-0.671,244295
0.012,-0.007,1.004,0.0,244320
0.015,-0.0,1.008,0.0,244347
0.014,-0.0,0.997,-0.61,244373
0.02,-0.006,1.01,0.122,244400
0.017,-0.005,0.999,-0.122,244424
0.019,-0.007,1.004,-0.671,244450
0.016,-0.001,1.0,0.183,244475
0.012,-0.008,1.001,-0.427,244498
0.012,-0.01,1.0,-0.244,244524
0.008,-0.006,1.005,-0.122,244548
0.01,-0.003,0.997,-0.366,244576
0.012,-0.008,1.002,-0.183,244602
0.015,-0.005,1.006,-0.061,244626
0.016,-0.005,1.004,-0.366,244651
0.018,-0.003,1.002,-0.183,244675
0.017,-0.005,1.005,-0.244,244701
0.016,-0.005,1.004,-0.244,244729
0.015,-0.002,1.004,-0.183,244754
0.016,-0.003,1.001,-0.183,244780
0.012,-0.008,1.0,-0.244,244805
0.01,-0.005,1.003,0.061,244829
0.011,-0.006,1.003,-0.366,244856
0.011,-0.009,1.0,-0.183,244884
0.013,-0.011,1.001,-0.183,244909
0.016,-0.008,1.004,-0.183,244933
0.016,-0.003,1.0,-0.183,244958
0.016,-0.004,1.005,-0.183,244981
0.015,-0.003,1.002,-0.244,245007
0.014,-0.004,1.003,-0.366,245034
0.015,-0.001,1.002,-0.061,245061
0.013,-0.002,1.004,-0.122,245087
0.014,-0.005,1.003,-0.183,245115
0.013,-0.009,1.002,-0.244,245139
0.014,-0.007,1.001,-0.061,245165
0.015,-0.01,1.002,-0.183,245190
0.012,-0.008,1.002,-0.122,245217
0.012,-0.006,1.001,-0.244,245243
0.013,-0.004,1.002,-0.122,245268
0.013,-0.004,1.002,-0.244,245292
0.015,-0.004,1.002,-0.305,245321
0.017,-0.003,1.004,-0.122,245345
0.015,-0.003,1.004,-0.122,245372
0.016,-0.005,1.002,-0.244,245397
0.017,-0.007,1.003,-0.305,245420
0.015,-0.007,1.0,-0.061,245447
0.013,-0.007,1.001,-0.244,245473
0.012,-0.008,1.003,-0.244,245496
0.01,-0.006,1.003,-0.366,245521
0.012,-0.004,1.002,-0.183,245548
0.013,-0.006,1.004,-0.122,245574
0.015,-0.005,1.002,-0.244,245599
0.015,-0.004,1.002,-0.061,245625
0.016,-0.004,1.004,-0.183,245650
0.017,-0.003,1.003,-0.244,245674
0.014,-0.004,1.0,-0.244,245699
0.013,-0.006,1.004,-0.244,245723
0.013,-0.005,1.002,-0.183,245750
0.011,-0.006,1.001,-0.244,245775
0.011,-0.007,1.002,-0.305,245800
0.012,-0.007,1.003,-0.122,245825
0.013,-0.007,1.001,-0.305,245850
0.015,-0.008,1.002,-0.305,245876
0.016,-0.005,1.003,-0.305,245902
0.016,-0.003,1.004,-0.244,245927
0.015,-0.002,1.005,-0.366,245951
0.014,-0.003,1.004,-0.183,245978
0.014,-0.004,1.003,-0.183,246003
0.013,-0.003,1.002,-0.183,246031
0.014,-0.005,1.003,-0.305,246057
0.015,-0.008,1.003,-0.183,246084
0.012,-0.008,1.001,-0.122,246109
0.015,-0.01,1.003,-0.366,246133
0.014,-0.008,1.002,-0.244,246157
0.014,-0.006,1.004,-0.305,246180
0.014,-0.006,1.001,-0.061,246205
0.014,-0.006,1.002,-0.122,246229
0.015,-0.004,1.003,-0.122,246255
0.013,-0.002,1.003,-0.244,246280
0.014,-0.004,1.003,-0.244,246306
0.018,-0.006,1.002,-0.183,246334
0.016,-0.007,1.003,-0.122,246359
0.013,-0.007,1.002,0.0,246384
0.014,-0.006,1.001,-0.305,246409
0.012,-0.007,1.002,-0.122,246433
0.014,-0.007,1.002,0.0,246459
0.014,-0.006,1.001,-0.183,246484
0.013,-0.004,1.003,-0.183,246507
0.014,-0.005,1.003,-0.183,246533
0.015,-0.003,1.003,-0.305,246557
0.016,-0.003,1.002,-0.183,246582
0.016,-0.005,1.003,-0.061,246608
0.015,-0.006,1.003,-0.122,246632
0.015,-0.006,1.003,-0.244,246657
0.012,-0.005,1.002,-0.061,246682
0.01,-0.006,1.002,-0.122,246708
0.011,-0.006,1.002,-0.305,246733
0.013,-0.004,1.0,-0.183,246757
0.012,-0.006,1.003,-0.183,246782
0.012,-0.007,1.002,-0.244,246806
0.016,-0.006,1.003,-0.183,246833
0.016,-0.005,1.003,-0.244,246858
0.016,-0.005,1.002,-0.183,246883
0.014,-0.005,1.003,-0.305,246907
0.014,-0.004,1.004,-0.122,246932
0.013,-0.006,1.0,-0.244,246958
0.012,-0.006,1.006,-0.183,246985
0.012,-0.007,1.0,-0.122,247010
0.012,-0.007,0.999,-0.488,247038
0.014,-0.008,1.004,-0.183,247065
0.013,-0.006,1.003,-0.305,247090
0.014,-0.007,0.999,-0.305,247114
0.015,-0.007,1.006,-0.305,247138
0.014,-0.002,0.999,-0.061,247163
0.014,-0.005,1.002,-0.244,247186
0.013,-0.002,1.006,-0.061,247211
0.014,-0.003,1.001,-0.244,247237
0.014,-0.005,1.001,-0.183,247262
0.013,-0.004,1.004,-0.244,247288
0.015,-0.006,1.0,-0.488,247314
0.018,-0.005,1.005,-0.183,247339
0.012,-0.005,1.0,0.122,247365
0.015,-0.008,1.005,-0.488,247391
0.011,-0.006,1.005,0.0,247417
0.009,-0.005,0.999,-0.183,247444
0.013,-0.009,1.004,-0.427,247470
0.013,-0.005,1.0,0.0,247495
0.014,-0.006,1.0,-0.366,247520
0.016,-0.007,1.003,-0.061,247544
0.018,-0.006,1.002,-0.122,247572
0.017,-0.004,1.003,-0.305,247597
0.016,-0.004,1.004,-0.122,247623
0.017,-0.003,1.002,-0.061,247648
0.013,-0.004,1.002,-0.366,247673
0.013,-0.004,1.003,-0.122,247697
0.013,-0.005,1.002,-0.183,247722
0.014,-0.007,1.001,-0.122,247746
0.013,-0.01,1.003,-0.183,247772
0.013,-0.007,1.002,-0.183,247799
0.013,-0.008,1.002,-0.061,247824
0.014,-0.005,1.0,-0.183,247847
0.013,-0.006,1.003,-0.244,247874
0.013,-0.005,1.002,-0.122,247899
0.013,-0.006,0.996,-0.183,247924
0.011,-0.005,1.014,0.122,247950
0.015,-0.002,1.003,-0.549,247976
0.014,-0.005,1.011,0.122,248001
0.017,-0.005,0.995,-0.427,248026
0.019,-0.012,1.01,-0.549,248054
0.017,-0.004,1.003,0.366,248081
0.015,-0.005,0.998,-0.488,248105
0.011,-0.007,1.009,-0.061,248131
0.01,-0.002,1.0,0.244,248157
0.013,-0.006,1.003,-0.61,248184
0.016,-0.005,1.005,-0.427,248212
0.018,-0.008,1.002,-0.122,248238
0.018,-0.004,1.003,-0.427,248262
0.018,-0.004,1.003,-0.183,248288
0.015,-0.002,1.005,-0.244,248312
0.016,-0.007,1.003,-0.427,248339
0.011,-0.005,1.003,-0.122,248363
0.01,-0.004,1.0,-0.366,248388
0.01,-0.006,1.0,-0.244,248411
0.01,-0.006,1.002,-0.061,248439
0.013,-0.009,1.002,-0.366,248463
0.014,-0.008,1.001,-0.061,248488
0.017,-0.007,1.003,-0.244,248514
0.017,-0.006,1.003,-0.183,248540
0.016,-0.001,1.004,-0.122,248565
0.016,-0.001,1.005,-0.305,248592
0.013,-0.003,1.0,-0.244,248617
0.013,-0.005,1.0,0.183,248641
0.009,-0.01,0.989,-0.244,248668
0.009,-0.011,1.016,0.061,248693
0.008,0.001,0.994,0.244,248718
0.019,-0.007,1.002,-0.977,248745
0.029,-0.01,1.008,0.122,248772
0.025,-0.006,1.0,-0.366,248798
0.021,-0.01,0.994,-0.488,248824
0.011,-0.002,1.009,0.671,248850
-0.0,0.007,1.0,-0.488,248875
0.005,0.002,0.997,-0.61,248903
0.016,-0.005,1.009,0.061,248930
0.023,-0.008,1.002,-0.427,248957
0.028,-0.015,1.003,-0.488,248983
0.025,-0.009,1.002,0.366,249008
0.017,-0.004,0.999,-0.366,249036
0.009,-0.002,1.002,-0.305,249062
0.002,0.002,1.003,0.061,249087
-0.0,-0.005,1.001,-0.305,249113
0.006,-0.006,1.0,-0.305,249137
0.011,-0.007,1.006,0.061,249164
0.021,-0.008,1.0,-0.183,249188
0.024,-0.009,1.006,0.122,249212
0.025,-0.01,1.006,-0.793,249236
0.027,-0.006,1.028,0.183,249263
0.021,0.008,0.996,-0.427,249290
0.018,-0.0,1.003,-1.099,249314
0.007,0.006,1.005,0.305,249339
0.006,0.001,1.003,-0.793,249364
0.004,-0.004,0.997,-0.122,249388
0.004,-0.005,1.004,0.061,249413
0.014,-0.02,0.996,-0.732,249438
0.013,-0.023,0.999,0.122,249464
0.015,-0.016,1.003,-0.061,249489
0.017,-0.009,1.001,-0.366,249517
0.015,-0.005,1.0,-0.366,249542
0.013,0.004,1.008,-0.244,249567
0.012,0.004,1.006,-0.793,249592
0.012,0.003,1.005,-0.061,249619
0.013,-0.001,1.013,0.366,249646
0.016,-0.006,0.998,-0.305,249669
0.016,-0.013,1.005,0.061,249694
0.016,-0.006,1.003,0.305,249721
0.017,-0.01,1.005,-0.488,249746
0.016,-0.008,0.999,0.122,249770
0.018,-0.008,0.998,-0.427,249794
0.015,-0.006,1.002,-0.244,249821
0.01,0.0,1.004,-0.183,249846
0.01,0.003,1.002,-0.427,249871
0.009,-0.0,1.008,-0.427,249898
0.009,0.004,0.993,0.183,249922
0.016,-0.001,0.999,-0.977,249946
0.02,-0.012,1.003,0.122,249972
0.015,-0.011,1.001,0.427,249998
0.015,-0.01,0.999,-0.183,250026
0.013,-0.007,1.003,-0.244,250052
0.011,-0.005,1.002,-0.122,250078
0.01,-0.001,1.0,-0.671,250105
0.009,0.002,1.005,-0.122,250129
0.014,0.002,1.0,-0.366,250155
0.017,-0.003,1.003,-0.732,250178
0.019,-0.003,1.006,0.122,250203
0.019,-0.005,1.005,-0.427,250228
0.02,-0.01,1.002,-0.305,250254
0.015,-0.007,1.002,-0.183,250279
0.013,-0.01,0.998,-0.061,250305
0.013,-0.01,0.997,-0.671,250329
0.008,-0.002,1.002,0.244,250354
0.009,-0.002,0.997,-0.671,250379
0.01,-0.003,1.008,0.0,250404
0.014,-0.003,1.0,0.061,250429
0.022,-0.009,1.008,-1.16,250455
0.018,-0.004,1.007,0.549,250482
0.016,-0.006,1.017,-1.038,250506
0.019,-0.007,1.009,0.488,250531
0.014,-0.003,0.998,-0.122,250559
0.012,-0.006,1.004,-0.244,250583
0.009,-0.003,1.011,0.671,250609
0.011,-0.009,0.991,-1.221,250632
0.012,-0.01,1.012,0.061,250661
0.01,-0.001,1.0,0.549,250688
0.019,-0.012,0.999,-0.793,250713
0.021,-0.009,1.001,-0.183,250739
0.018,-0.005,0.999,0.0,250764
0.018,-0.006,1.0,-0.977,250790
0.019,-0.005,1.008,-0.183,250816
0.013,0.003,1.001,0.0,250840
0.012,0.001,1.004,-0.427,250864
0.011,-0.002,1.007,0.0,250890
0.014,-0.006,1.002,-0.244,250917
0.018,-0.008,1.001,-0.305,250943
0.012,-0.004,1.01,0.732,250969
0.012,-0.006,0.991,-0.854,250995
0.016,-0.012,1.01,0.061,251022
0.01,0.0,0.996,0.061,251046
0.017,-0.008,1.006,-1.221,251069
0.013,-0.004,1.006,0.183,251094
0.014,0.001,0.997,-0.61,251121
0.018,-0.005,1.007,-0.427,251147
0.015,0.002,1.0,0.549,251171
0.018,-0.005,0.997,-0.916,251195
0.017,-0.005,1.007,0.366,251221
0.014,-0.007,1.0,-0.183,251245
0.017,-0.013,1.002,-0.549,251268
0.01,-0.007,1.003,0.244,251293
0.011,-0.008,0.999,-0.488,251319
0.011,-0.004,1.002,-0.488,251345
0.011,-0.002,1.006,0.0,251374
0.016,-0.002,1.002,-0.366,251398
0.02,-0.003,1.006,-0.244,251424
0.019,-0.0,1.004,0.0,251447
0.022,-0.004,1.005,-0.488,251472
0.02,-0.003,1.002,-0.122,251499
0.015,-0.006,1.001,-0.183,251524
0.012,-0.008,1.0,-0.244,251548
0.009,-0.008,1.0,-0.244,251573
0.007,-0.008,1.003,-0.305,251597
0.01,-0.007,1.001,-0.305,251621
0.011,-0.005,1.001,-0.183,251646
0.016,-0.007,1.003,-0.366,251671
0.019,-0.005,1.005,-0.183,251695
0.02,-0.004,1.003,-0.183,251719
0.021,-0.002,1.003,-0.366,251744
0.017,-0.002,1.004,-0.122,251769
0.016,-0.002,1.003,-0.061,251796
0.012,-0.002,1.0,-0.244,251821
0.01,-0.003,1.002,-0.183,251845
0.011,-0.005,1.003,-0.305,251869
0.012,-0.005,1.002,-0.244,251895
0.015,-0.011,1.0,-0.183,251920
0.017,-0.011,1.002,-0.244,251945
0.017,-0.01,1.002,-0.366,251973
0.015,-0.008,1.004,-0.244,252000
0.013,-0.003,1.005,-0.427,252026
0.012,-0.0,1.001,-0.305,252051
0.014,-0.001,1.002,-0.183,252078
0.015,-0.0,1.003,0.0,252103
0.015,-0.001,1.001,0.0,252127
0.016,0.001,1.004,-0.244,252154
0.017,-0.004,1.002,-0.183,252178
0.018,-0.01,1.003,-0.244,252205
0.017,-0.011,1.001,-0.061,252229
0.015,-0.01,1.001,-0.183,252253
0.009,-0.008,1.001,-0.183,252276
0.009,-0.003,1.001,-0.244,252305
0.009,-0.002,1.002,-0.366,252329
0.013,-0.003,1.003,-0.183,252359
0.015,-0.004,1.004,0.0,252386
0.018,-0.002,1.003,-0.244,252412
0.019,-0.002,1.004,-0.244,252437
0.021,-0.003,1.003,-0.122,252462
0.017,-0.005,1.004,-0.305,252488
0.014,-0.006,1.0,-0.305,252512
0.013,-0.007,1.002,-0.244,252539
0.01,-0.004,1.003,-0.122,252564
0.008,-0.002,1.002,-0.061,252587
0.01,-0.002,1.003,-0.183,252610
0.013,-0.005,0.999,-0.183,252635
0.017,-0.007,1.002,-0.183,252661
0.019,-0.005,1.003,-0.122,252687
0.02,-0.003,1.002,-0.183,252712
0.019,-0.001,1.004,-0.305,252736
0.016,-0.001,1.005,-0.244,252762
0.015,-0.003,1.002,-0.305,252787
0.012,-0.006,1.001,-0.122,252813
0.011,-0.005,1.003,-0.305,252838
0.01,-0.007,1.001,-0.122,252865
0.012,-0.008,1.004,-0.244,252891
0.015,-0.009,1.001,-0.061,252919
0.016,-0.009,1.001,-0.305,252943
0.017,-0.009,1.003,-0.183,252966
0.018,-0.005,1.003,-0.244,252991
0.014,-0.002,1.003,-0.183,253017
0.014,-0.001,1.004,-0.305,253044
0.013,0.001,1.005,-0.305,253068
0.012,-0.001,1.003,-0.244,253092
0.015,-0.003,1.004,-0.305,253118
0.015,-0.005,1.003,-0.122,253143
0.015,-0.009,1.002,-0.244,253168
0.015,-0.01,1.004,-0.183,253192
0.016,-0.009,1.002,-0.122,253218
0.018,-0.008,1.004,-0.244,253242
0.016,-0.003,1.003,-0.061,253267
0.013,0.0,1.002,-0.305,253293
0.011,0.002,1.005,-0.183,253319
0.014,-0.0,1.003,0.0,253346
0.014,-0.004,1.003,-0.305,253371
0.016,-0.007,1.002,-0.122,253395
0.014,-0.011,1.002,-0.061,253419
0.014,-0.012,1.0,-0.305,253444
0.015,-0.011,1.0,-0.183,253470
0.014,-0.008,1.002,-0.305,253495
0.011,-0.007,1.003,-0.122,253523
0.011,-0.006,0.992,-0.549,253548
-0.067,0.12,0.916,70.007,253574
0.035,0.066,1.066,172.546,253602
-0.071,-0.04,1.045,178.162,253626
-0.151,-0.144,1.008,112.793,253654
-0.142,0.236,1.0,-0.793,253682
-0.003,0.057,0.941,47.546,253708
0.031,-0.012,0.989,-25.33,253735
0.072,-0.031,1.017,-39.734,253760
0.006,-0.088,1.02,9.338,253784
0.008,-0.005,1.011,2.136,253811
0.043,-0.033,0.982,-4.089,253838
0.025,-0.003,0.994,-10.681,253864
0.02,0.001,1.005,10.62,253887
0.042,-0.03,1.007,5.554,253914
0.017,0.0,1.013,-1.343,253940
0.036,-0.023,1.002,-6.47,253964
-0.043,-0.067,0.974,53.955,253990
-0.039,-0.002,1.006,30.64,254015
0.094,0.06,1.002,3.418,254041
0.14,0.044,1.0,42.542,254066
0.054,-0.012,1.002,0.488,254091
-0.225,-0.133,1.041,143.616,254116
-0.027,-0.139,0.968,93.75,254140
0.027,0.018,1.029,12.634,254166
0.079,0.069,1.0,32.288,254191
0.128,0.011,0.992,51.208,254217
0.022,-0.1,0.967,88.928,254244
-0.084,-0.039,1.014,53.162,254273
0.043,-0.278,1.237,56.03,254298
0.099,0.126,0.907,61.584,254322
0.009,0.018,0.979,54.077,254349
-0.029,-0.118,1.019,40.222,254375
0.03,0.038,1.005,43.518,254400
-0.019,-0.042,1.012,34.424,254425
-0.011,0.006,0.992,31.25,254452
-0.049,-0.03,1.014,14.343,254477
0.014,-0.088,1.004,-4.028,254504
0.014,-0.048,0.992,0.854,254528
-0.032,0.08,0.995,24.658,254554
0.106,-0.04,0.979,64.453,254581
-0.014,0.03,1.052,34.79,254605
-0.088,0.027,1.008,0.793,254629
0.021,-0.03,1.0,2.319,254660
-0.032,-0.001,1.014,2.93,254684
0.0,-0.012,1.003,11.169,254707
0.003,-0.054,1.004,10.803,254732
0.051,-0.029,0.986,86.548,254759
-0.172,0.004,1.006,36.865,254783
0.035,-0.023,1.007,7.812,254808
-0.029,-0.011,1.002,5.31,254834
0.003,-0.025,1.003,-0.366,254859
0.007,-0.027,1.003,-0.549,254885
0.004,-0.024,1.0,5.981,254913
-0.041,-0.009,1.006,-0.61,254939
-0.002,-0.026,1.002,-0.183,254965
0.005,-0.041,1.004,-7.202,254991
-0.012,-0.014,1.003,28.137,255016
-0.056,-0.007,1.0,-0.916,255041
-0.021,-0.012,1.0,1.343,255066
-0.005,-0.014,1.002,-1.526,255094
-0.003,-0.021,1.002,-0.305,255120
-0.003,-0.019,1.003,-0.671,255145
-0.003,-0.019,1.004,-0.183,255170
0.011,-0.037,1.005,-2.197,255195
