Acc_X,Acc_Y,Acc_Z,Rot_Z,Millis
0.012,-0.001,1.002,-0.305,21258
0.013,-0.0,1.002,0.0,21285
0.012,0.001,1.005,-0.183,21314
0.013,-0.002,1.003,-0.183,21338
0.014,-0.0,1.001,-0.061,21365
0.013,-0.002,1.003,-0.244,21390
0.014,-0.002,1.002,-0.305,21418
0.013,-0.002,1.002,-0.305,21443
0.012,-0.002,1.001,-0.244,21469
0.014,-0.001,1.005,-0.061,21494
0.014,-0.002,1.001,-0.244,21519
0.015,-0.003,1.002,-0.183,21544
0.013,-0.001,1.004,-0.061,21569
0.013,-0.001,1.002,-0.122,21594
0.012,-0.002,1.003,-0.183,21620
0.012,-0.001,1.002,0.061,21644
0.014,-0.003,1.001,-0.061,21669
0.015,-0.002,1.003,-0.244,21695
0.014,-0.001,1.002,-0.183,21720
0.014,-0.001,1.003,-0.061,21745
0.013,-0.004,1.003,-0.183,21769
0.014,0.0,1.002,-0.244,21796
0.013,-0.002,1.002,-0.061,21823
0.015,-0.001,1.003,-0.244,21850
0.013,-0.002,1.003,-0.183,21878
0.014,-0.002,1.003,-0.122,21903
0.013,-0.003,1.004,-0.183,21929
0.014,-0.002,1.002,-0.183,21954
0.012,-0.002,1.002,-0.305,21980
0.012,-0.0,1.002,0.0,22004
0.013,-0.001,1.002,-0.183,22028
0.013,0.001,1.002,-0.244,22053
0.012,-0.001,1.003,-0.305,22078
0.013,-0.002,1.005,-0.183,22103
0.013,-0.001,1.001,-0.183,22130
0.012,-0.002,1.002,-0.305,22155
0.013,-0.002,1.002,-0.122,22181
0.013,-0.002,1.0,-0.183,22210
0.014,-0.002,1.003,-0.183,22234
0.013,-0.002,1.003,-0.183,22258
0.015,-0.003,1.004,-0.183,22283
0.014,-0.001,1.001,-0.183,22306
0.012,-0.001,1.002,0.0,22331
0.016,-0.002,1.001,-0.122,22356
0.015,-0.001,1.003,-0.244,22383
0.012,-0.002,1.003,-0.183,22410
0.013,-0.002,1.001,-0.183,22435
0.013,-0.002,1.0,-0.305,22462
0.014,-0.002,1.003,-0.183,22491
0.015,-0.002,1.003,-0.244,22517
0.014,-0.0,1.002,-0.244,22542
0.013,-0.001,1.003,-0.244,22569
0.014,-0.003,1.003,-0.244,22593
0.012,-0.002,1.004,-0.244,22618
0.013,-0.002,1.003,-0.183,22644
0.014,-0.001,1.004,-0.122,22668
0.014,-0.0,1.004,-0.244,22693
0.014,-0.001,1.004,-0.122,22719
0.014,-0.003,1.002,-0.244,22745
0.013,-0.002,1.002,-0.244,22769
0.014,-0.001,1.003,-0.305,22796
0.013,-0.001,1.0,-0.183,22821
0.013,-0.002,1.001,-0.305,22848
0.015,-0.002,1.002,-0.183,22876
0.013,-0.001,1.0,-0.183,22902
0.013,-0.001,1.002,-0.122,22929
0.015,-0.003,1.001,-0.244,22952
0.015,-0.001,1.001,-0.244,22975
0.014,-0.002,1.002,-0.244,23000
0.013,-0.001,1.003,-0.122,23025
0.014,-0.0,1.001,-0.244,23050
0.014,-0.001,1.001,-0.244,23078
0.015,-0.003,1.002,-0.183,23104
0.014,-0.001,1.001,-0.305,23132
0.016,-0.002,1.003,-0.183,23156
0.014,-0.001,1.002,-0.244,23181
0.013,-0.002,1.002,-0.183,23205
0.014,-0.002,1.003,-0.122,23231
0.014,-0.001,1.003,-0.244,23257
0.013,-0.002,1.002,-0.244,23282
0.012,-0.001,1.002,-0.061,23308
0.014,-0.001,1.004,-0.305,23334
0.011,-0.003,1.002,-0.122,23360
0.013,-0.002,1.003,-0.122,23385
0.012,-0.002,1.0,-0.305,23411
0.014,-0.002,1.003,-0.183,23437
0.013,-0.003,1.002,-0.183,23464
0.014,-0.0,1.004,-0.122,23489
0.015,-0.001,1.002,-0.305,23514
0.012,-0.002,1.003,-0.244,23539
0.014,-0.002,1.004,-0.122,23566
0.015,0.0,1.001,-0.244,23590
0.014,-0.002,1.003,-0.183,23616
0.014,-0.002,1.002,-0.244,23642
0.014,-0.001,1.002,-0.305,23668
0.016,-0.002,1.002,-0.183,23692
0.014,-0.002,1.003,-0.183,23717
0.012,-0.002,1.001,-0.183,23744
0.014,-0.001,1.002,-0.122,23767
0.013,-0.001,1.001,-0.122,23793
0.015,-0.002,1.001,-0.244,23818
0.014,-0.001,1.001,-0.244,23841
0.014,-0.002,1.002,-0.183,23866
0.013,-0.003,1.005,-0.244,23891
0.013,-0.001,1.002,-0.244,23915
0.014,-0.001,1.0,-0.183,23941
0.015,-0.001,1.003,-0.305,23966
0.013,-0.001,1.002,-0.244,23989
0.014,-0.002,1.006,-0.366,24015
0.014,0.0,1.0,-0.305,24039
0.012,-0.002,1.004,-0.183,24064
0.013,0.0,1.002,-0.183,24089
0.014,-0.002,1.0,-0.244,24114
0.014,-0.001,0.999,-0.244,24137
0.015,-0.003,1.005,-0.061,24161
0.013,-0.001,0.998,-0.244,24188
0.013,-0.002,1.005,-0.366,24212
0.014,-0.003,1.004,-0.183,24238
0.014,-0.001,1.002,-0.122,24261
0.013,-0.0,1.002,-0.061,24285
0.013,-0.002,1.001,-0.183,24314
0.012,-0.001,1.002,-0.183,24340
0.013,-0.002,1.003,-0.305,24367
0.014,-0.001,1.005,-0.183,24393
0.013,-0.002,1.0,-0.183,24418
0.016,-0.001,1.004,-0.122,24442
0.014,-0.003,1.002,-0.183,24468
0.011,-0.0,1.004,-0.183,24494
0.017,-0.001,1.005,-0.244,24519
0.013,-0.003,1.0,-0.183,24543
0.013,-0.003,1.0,-0.244,24570
0.012,-0.0,1.002,-0.244,24597
0.014,-0.002,1.008,-0.305,24620
0.014,-0.001,0.998,-0.122,24644
0.011,-0.002,1.006,-0.122,24668
0.015,-0.0,1.0,-0.122,24693
0.012,-0.002,1.002,-0.183,24718
0.015,-0.001,1.001,-0.183,24745
0.015,-0.001,1.005,-0.305,24770
0.014,-0.002,1.0,-0.122,24794
0.013,-0.0,1.003,-0.183,24817
0.013,-0.003,1.004,-0.244,24842
0.012,-0.0,1.005,-0.183,24868
0.013,-0.001,1.003,-0.122,24895
0.012,0.0,1.0,-0.244,24921
0.015,-0.001,1.003,-0.122,24946
0.013,-0.002,1.002,-0.061,24970
0.015,-0.002,1.009,-0.244,24997
0.012,0.0,1.001,-0.122,25024
0.013,-0.0,1.004,-0.244,25051
0.015,-0.001,1.001,-0.183,25078
0.012,0.0,1.003,-0.183,25103
0.015,-0.004,1.006,-0.183,25130
0.012,-0.001,0.999,-0.183,25156
0.015,-0.002,1.003,-0.366,25182
0.014,0.001,1.002,-0.122,25206
0.012,-0.001,1.001,-0.122,25234
0.013,-0.0,0.998,-0.183,25260
0.014,-0.002,1.006,-0.183,25287
0.013,-0.002,1.001,-0.122,25312
0.014,-0.002,0.998,-0.244,25339
0.014,-0.002,1.003,-0.244,25365
0.014,-0.0,1.004,-0.244,25394
0.011,-0.001,1.003,-0.183,25419
0.011,-0.002,0.999,-0.183,25446
0.014,-0.003,1.005,-0.244,25472
0.015,-0.002,1.001,-0.122,25497
0.014,-0.001,1.002,-0.305,25522
0.015,-0.002,1.003,-0.244,25550
0.013,-0.001,1.003,-0.183,25575
0.013,-0.001,1.002,-0.244,25601
0.012,-0.001,1.004,-0.244,25625
0.014,0.0,1.001,-0.183,25651
0.015,-0.001,1.003,-0.244,25674
0.014,-0.002,1.004,-0.122,25697
0.016,-0.004,1.001,-0.183,25722
0.013,-0.003,1.003,-0.061,25746
0.013,-0.001,1.003,-0.122,25772
0.012,-0.002,1.001,-0.122,25797
0.012,-0.0,1.002,-0.244,25823
0.013,-0.001,1.005,-0.061,25847
0.015,-0.001,1.003,-0.244,25873
0.015,-0.002,1.002,-0.244,25901
0.014,-0.002,1.003,-0.244,25929
0.013,-0.002,1.001,-0.183,25956
0.012,0.0,1.002,-0.244,25983
0.013,-0.001,1.002,-0.183,26011
0.013,-0.001,1.002,-0.122,26039
0.017,-0.003,1.002,-0.122,26066
0.013,-0.001,1.004,-0.183,26091
0.014,-0.002,1.001,-0.183,26117
0.014,-0.002,1.004,-0.122,26143
0.012,-0.002,1.0,-0.183,26169
0.015,-0.001,1.004,-0.244,26194
0.014,-0.001,1.0,-0.122,26219
0.013,-0.0,1.001,-0.183,26245
0.015,-0.002,1.005,-0.244,26272
0.015,-0.001,1.002,-0.122,26296
0.015,-0.002,1.003,-0.244,26319
0.011,-0.001,1.001,-0.122,26342
0.013,-0.002,1.005,-0.183,26367
0.012,-0.001,1.002,-0.183,26392
0.012,-0.002,1.002,-0.244,26417
0.013,-0.002,1.005,0.0,26444
0.013,-0.003,1.001,-0.122,26470
0.015,-0.002,1.001,-0.183,26495
0.013,-0.003,1.002,-0.183,26518
0.013,-0.001,1.003,-0.183,26542
0.012,0.0,1.001,-0.061,26569
0.012,-0.002,1.002,-0.183,26599
0.014,-0.003,1.004,-0.183,26625
0.014,-0.002,1.003,-0.061,26651
0.015,0.0,1.001,-0.305,26678
0.014,-0.002,1.003,-0.122,26705
0.013,-0.002,1.003,-0.183,26732
0.013,-0.001,1.002,-0.183,26757
0.013,-0.001,1.003,-0.305,26782
0.014,-0.002,1.0,-0.244,26806
0.015,-0.002,1.001,-0.183,26832
0.015,-0.002,1.003,-0.305,26858
0.013,-0.002,1.004,-0.305,26881
0.014,-0.002,1.003,-0.183,26904
0.011,-0.001,1.004,-0.244,26932
0.012,-0.001,1.003,-0.183,26955
0.013,-0.002,1.0,-0.061,26983
0.015,-0.001,1.0,-0.122,27011
0.015,-0.002,1.004,-0.305,27040
0.015,-0.002,1.005,-0.244,27065
0.013,-0.001,1.002,-0.183,27090
0.013,-0.002,1.001,-0.183,27113
0.014,-0.002,1.002,-0.183,27138
0.013,-0.003,1.003,-0.244,27163
0.013,-0.002,1.001,-0.122,27188
0.013,-0.002,1.002,-0.244,27214
0.013,-0.002,1.004,-0.244,27239
0.014,-0.001,1.001,-0.244,27264
0.013,-0.002,1.004,-0.305,27292
0.013,0.0,1.001,-0.305,27318
0.013,-0.001,1.003,-0.122,27343
0.016,-0.002,1.003,-0.122,27368
0.014,-0.003,1.001,-0.305,27391
0.016,-0.001,1.004,-0.427,27416
0.014,-0.001,1.004,-0.183,27447
0.012,-0.002,1.0,-0.183,27470
0.014,-0.002,1.003,-0.122,27494
0.013,-0.002,1.0,-0.305,27521
0.012,-0.002,1.005,-0.183,27545
0.013,-0.001,1.001,-0.183,27568
0.014,-0.001,1.002,-0.183,27592
0.012,-0.001,1.002,-0.122,27616
0.013,-0.001,1.002,-0.244,27641
0.013,-0.003,1.001,-0.122,27667
0.013,-0.001,1.002,-0.244,27691
0.015,-0.001,1.002,-0.183,27716
0.014,-0.002,1.0,-0.305,27741
0.014,-0.001,1.001,-0.061,27766
0.015,-0.002,1.003,-0.183,27791
0.014,-0.002,1.001,-0.244,27815
0.012,-0.004,1.001,-0.305,27842
0.011,-0.001,1.002,-0.122,27866
0.014,-0.0,1.0,-0.244,27890
0.015,-0.001,1.003,-0.183,27914
0.013,-0.001,1.001,-0.244,27942
0.014,0.0,1.001,-0.366,27967
0.015,-0.003,1.004,-0.183,27993
0.014,-0.001,1.001,-0.183,28017
0.014,-0.002,1.003,-0.183,28047
0.013,0.0,1.0,-0.183,28071
0.012,-0.0,0.999,-0.366,28097
0.014,-0.003,1.007,-0.305,28123
0.015,-0.002,1.002,-0.183,28148
0.015,-0.001,1.003,-0.305,28173
0.013,-0.001,1.003,-0.244,28197
0.015,-0.001,1.003,-0.244,28223
0.014,-0.002,1.004,-0.183,28248
0.014,-0.001,1.0,-0.244,28272
0.013,-0.003,1.003,-0.366,28295
0.013,-0.002,1.002,-0.183,28320
0.012,-0.002,1.002,-0.183,28346
0.013,-0.001,1.003,-0.183,28371
0.013,0.0,1.003,-0.244,28398
0.014,0.0,1.004,-0.122,28422
0.015,-0.001,1.001,-0.183,28448
0.014,-0.002,1.005,-0.244,28475
0.014,-0.0,1.001,-0.244,28500
0.013,-0.0,1.002,-0.183,28525
0.014,-0.002,1.002,-0.122,28553
0.013,-0.002,1.004,-0.183,28579
0.012,-0.001,1.001,0.0,28606
0.013,0.0,1.0,-0.183,28630
0.013,-0.001,1.003,-0.183,28658
0.013,-0.001,1.002,-0.122,28685
0.014,-0.001,1.005,-0.244,28709
0.015,-0.001,1.004,-0.183,28735
0.013,-0.0,1.006,-0.244,28760
0.013,-0.002,1.002,-0.183,28785
0.012,-0.002,1.003,-0.122,28810
0.014,-0.002,1.002,-0.244,28837
0.013,-0.001,1.002,-0.122,28865
0.013,-0.003,1.004,0.0,28892
0.014,-0.001,1.0,-0.244,28916
0.013,-0.001,1.003,-0.244,28940
0.013,-0.002,1.002,-0.244,28965
0.014,-0.003,1.004,-0.061,28989
0.013,-0.001,1.0,0.0,29014
0.014,-0.001,1.002,-0.183,29040
0.012,-0.002,1.002,-0.244,29062
0.014,-0.001,1.004,-0.122,29089
0.014,-0.001,1.002,-0.244,29115
0.013,-0.002,1.002,-0.183,29142
0.014,-0.002,1.003,-0.183,29166
0.014,-0.0,1.003,-0.183,29190
0.013,-0.001,1.003,-0.122,29216
0.012,-0.001,1.003,-0.122,29242
0.012,-0.002,1.002,-0.061,29267
0.014,-0.002,1.002,-0.244,29296
0.015,-0.001,1.002,-0.244,29321
0.015,-0.002,1.003,-0.305,29346
0.012,-0.002,1.003,-0.061,29372
0.014,-0.001,1.003,-0.122,29399
0.013,-0.002,1.002,0.0,29423
0.015,-0.002,1.003,-0.183,29449
0.014,-0.002,1.0,-0.244,29477
0.014,-0.002,1.003,-0.183,29503
0.015,-0.002,1.004,-0.244,29527
0.013,-0.001,1.0,-0.183,29552
0.011,-0.0,1.002,-0.305,29579
0.013,-0.001,1.004,-0.183,29606
0.013,-0.001,1.001,-0.122,29630
0.014,-0.0,1.004,-0.366,29655
0.014,-0.001,1.002,-0.183,29681
0.013,-0.0,1.001,-0.244,29704
0.014,-0.003,1.001,-0.061,29728
0.012,-0.001,1.002,-0.183,29753
0.014,-0.001,1.003,-0.244,29778
0.012,-0.0,1.003,-0.244,29803
0.012,-0.002,1.003,-0.244,29829
0.015,-0.002,1.003,-0.244,29855
0.013,-0.001,1.005,-0.366,29881
0.012,-0.002,1.001,-0.183,29907
0.013,-0.002,1.004,-0.183,29932
0.013,-0.002,1.002,-0.366,29959
0.013,-0.002,1.003,-0.183,29984
0.011,-0.002,1.003,-0.122,30010
0.014,-0.001,1.002,-0.183,30035
0.013,-0.002,1.003,-0.244,30059
0.017,-0.001,1.0,-0.244,30083
0.014,-0.003,1.004,-0.244,30111
0.013,-0.001,1.001,-0.366,30136
0.014,-0.002,1.002,-0.244,30160
0.014,-0.002,1.001,-0.183,30185
0.013,-0.001,1.003,-0.244,30213
0.015,-0.002,1.002,-0.183,30240
0.015,-0.001,1.003,-0.305,30267
0.015,-0.002,1.002,-0.244,30296
0.014,-0.001,1.001,-0.244,30319
0.012,-0.002,1.002,-0.244,30342
0.012,-0.002,1.002,-0.122,30367
0.013,-0.002,1.004,-0.183,30391
0.014,-0.002,1.001,-0.244,30417
0.013,-0.002,1.003,-0.183,30443
0.013,-0.001,1.001,-0.183,30469
0.014,-0.002,1.002,-0.366,30495
0.013,-0.001,1.002,-0.183,30521
0.014,-0.002,1.003,-0.244,30544
0.014,-0.0,1.003,-0.244,30571
0.013,-0.002,1.002,-0.122,30596
0.014,-0.001,1.002,-0.244,30623
0.015,-0.001,1.004,-0.061,30647
0.012,-0.001,1.001,-0.183,30672
0.015,-0.001,1.002,-0.244,30698
0.013,-0.0,1.003,-0.305,30722
0.014,-0.002,1.001,-0.305,30745
0.013,-0.002,1.003,0.0,30769
0.015,-0.002,1.002,-0.305,30794
0.014,0.0,1.001,-0.183,30818
0.012,-0.001,1.0,-0.122,30843
0.013,-0.001,1.001,-0.305,30868
0.014,-0.001,1.002,-0.305,30893
0.015,-0.001,1.001,-0.305,30919
0.013,-0.001,1.004,-0.122,30944
0.015,-0.001,1.001,-0.244,30972
0.013,-0.002,1.004,-0.061,30998
0.013,-0.001,1.003,-0.244,31021
0.015,-0.0,1.002,-0.244,31046
0.014,-0.003,1.005,-0.183,31071
0.013,-0.001,1.0,-0.244,31095
0.013,-0.002,1.002,-0.366,31122
0.013,-0.002,1.004,-0.183,31147
0.014,-0.002,1.0,-0.122,31174
0.012,-0.001,1.002,-0.183,31200
0.013,-0.002,1.004,-0.183,31226
0.013,-0.001,1.002,-0.183,31252
0.015,-0.002,1.004,-0.122,31280
0.014,-0.003,1.004,-0.244,31307
0.012,-0.002,1.002,-0.122,31331
0.011,-0.001,1.002,-0.366,31355
0.013,-0.002,1.002,-0.305,31378
0.013,-0.003,1.004,-0.122,31401
0.013,-0.001,1.002,-0.244,31425
0.014,-0.002,1.003,-0.244,31449
0.015,-0.001,1.003,-0.244,31473
0.014,-0.001,1.002,-0.183,31498
0.015,-0.002,1.004,-0.122,31523
0.013,-0.0,1.003,-0.366,31552
0.012,-0.001,1.003,-0.244,31577
0.013,-0.002,1.003,-0.244,31601
0.013,-0.0,1.002,-0.305,31625
0.014,-0.002,1.001,-0.244,31650
0.015,-0.001,1.003,-0.122,31678
0.015,-0.002,1.003,-0.244,31703
0.014,-0.002,1.001,-0.244,31730
0.014,-0.001,1.003,-0.244,31755
0.013,-0.002,1.004,-0.122,31781
0.013,-0.001,1.002,-0.305,31806
0.013,-0.001,1.001,-0.061,31830
0.015,-0.001,1.003,-0.183,31856
0.014,-0.002,1.002,-0.183,31882
0.013,-0.0,1.002,-0.183,31909
0.013,-0.0,1.002,-0.183,31935
0.014,-0.002,1.001,-0.244,31959
0.014,-0.002,1.004,-0.183,31982
0.015,-0.001,1.003,-0.061,32007
0.013,-0.001,1.002,-0.305,32031
0.015,-0.002,1.002,-0.183,32056
0.014,-0.002,1.003,-0.305,32083
0.013,-0.0,1.002,-0.244,32108
0.014,-0.001,1.002,-0.122,32136
0.014,0.0,1.001,-0.244,32161
0.013,-0.0,1.003,-0.122,32186
0.014,-0.001,1.002,-0.244,32211
0.013,-0.002,1.001,-0.244,32235
0.015,-0.003,1.004,0.061,32261
0.013,-0.003,1.003,-0.244,32285
0.013,-0.0,1.002,-0.244,32310
0.015,-0.001,1.004,-0.305,32335
0.012,-0.001,1.003,-0.244,32360
0.014,-0.002,1.002,-0.244,32384
0.014,0.0,1.003,-0.244,32409
0.015,-0.001,1.004,-0.244,32434
0.013,-0.001,1.001,-0.183,32458
0.013,-0.002,1.003,-0.061,32484
0.012,-0.002,1.002,-0.122,32508
0.013,-0.002,1.004,-0.183,32533
0.014,-0.002,1.002,-0.122,32559
0.013,0.0,1.002,-0.122,32584
0.013,-0.002,1.003,-0.183,32609
0.014,-0.002,1.002,-0.305,32633
0.015,-0.002,1.004,-0.183,32658
0.014,-0.001,1.002,-0.183,32682
0.013,-0.002,1.003,-0.305,32706
0.013,-0.001,1.001,-0.244,32730
0.014,-0.002,1.003,-0.183,32759
0.013,-0.001,1.002,-0.183,32782
0.012,-0.002,1.002,-0.183,32805
0.014,-0.002,1.001,-0.122,32830
0.013,-0.001,1.004,-0.122,32856
0.014,-0.002,1.003,-0.061,32879
0.015,-0.001,1.003,-0.061,32904
0.014,-0.0,1.002,-0.061,32929
0.015,0.0,1.002,-0.244,32955
0.014,-0.0,1.003,-0.183,32979
0.013,-0.001,1.004,-0.183,33003
0.015,-0.001,1.003,-0.305,33029
0.014,-0.002,1.002,-0.244,33054
0.013,-0.002,1.002,-0.183,33078
0.011,-0.001,1.004,-0.122,33101
0.013,-0.0,1.003,-0.244,33129
0.014,-0.0,1.004,-0.122,33156
0.013,-0.001,1.001,-0.122,33181
0.013,-0.0,1.003,-0.244,33206
0.014,-0.002,1.003,-0.305,33236
0.014,-0.002,1.003,-0.122,33261
0.013,-0.0,1.002,-0.244,33287
0.012,-0.001,1.001,-0.244,33312
0.013,-0.001,1.001,-0.244,33338
0.014,-0.002,1.003,-0.244,33363
0.014,-0.001,1.004,-0.244,33389
0.014,-0.002,1.003,-0.183,33415
0.015,-0.0,1.002,-0.366,33440
0.015,-0.0,1.002,-0.183,33466
0.015,-0.001,1.001,-0.305,33489
0.013,-0.0,1.003,-0.183,33513
0.014,-0.002,1.001,-0.244,33539
0.013,-0.001,1.001,-0.122,33563
0.013,-0.002,1.002,-0.122,33591
0.014,-0.001,1.003,-0.183,33615
0.014,-0.001,1.002,-0.061,33639
0.014,-0.001,1.004,-0.183,33666
0.013,-0.0,1.001,-0.183,33691
0.013,-0.001,1.004,-0.244,33715
0.014,-0.002,1.001,-0.122,33741
0.014,-0.001,1.005,-0.122,33767
0.014,-0.001,1.003,-0.244,33795
0.013,-0.001,1.002,0.0,33822
0.012,-0.001,1.0,-0.183,33845
0.015,0.0,1.002,-0.061,33871
0.015,-0.0,1.003,-0.244,33896
0.014,-0.002,1.003,-0.122,33922
0.014,-0.002,1.006,-0.183,33949
0.015,-0.002,1.001,-0.183,33976
0.014,-0.001,1.0,-0.244,34002
0.014,-0.001,1.004,-0.244,34031
0.013,-0.001,1.002,-0.122,34055
0.014,-0.001,1.002,-0.305,34080
0.014,-0.001,1.002,-0.183,34107
0.014,-0.0,1.001,-0.244,34131
0.013,-0.002,1.003,-0.305,34156
0.014,-0.002,1.003,-0.244,34181
0.012,-0.002,1.002,-0.244,34205
0.013,-0.0,1.004,-0.183,34232
0.014,-0.001,1.003,-0.122,34258
0.014,-0.002,1.003,-0.183,34283
0.013,-0.002,1.003,-0.183,34309
0.014,-0.002,1.002,-0.244,34333
0.013,-0.002,1.002,-0.305,34357
0.014,-0.002,1.004,-0.244,34382
0.012,-0.0,1.004,-0.061,34406
0.013,-0.001,1.001,-0.183,34430
0.014,-0.001,1.004,-0.244,34455
0.014,-0.002,1.001,-0.122,34479
0.014,-0.002,1.001,-0.061,34504
0.013,-0.003,1.002,-0.244,34528
0.013,-0.002,1.003,-0.305,34555
0.013,-0.001,1.002,-0.122,34581
0.014,-0.002,1.002,-0.122,34607
0.013,-0.002,1.002,-0.244,34633
0.013,-0.002,1.002,-0.122,34663
0.014,-0.002,1.003,-0.244,34688
0.014,-0.002,1.003,-0.183,34713
0.015,-0.002,1.004,-0.305,34739
0.013,-0.002,1.003,-0.183,34763
0.012,-0.001,1.002,-0.183,34788
0.014,-0.003,1.002,-0.244,34815
0.013,-0.002,1.003,-0.183,34840
0.015,-0.0,1.001,-0.122,34864
0.014,-0.002,1.002,-0.305,34889
0.015,-0.001,1.003,-0.244,34914
0.012,-0.001,1.002,-0.183,34939
0.012,-0.001,1.003,-0.305,34967
0.014,-0.001,1.003,-0.244,34993
0.013,-0.001,1.002,-0.305,35018
0.014,-0.003,1.003,-0.122,35042
0.013,-0.001,1.003,-0.183,35066
0.013,-0.001,1.003,-0.183,35092
0.014,-0.002,1.001,-0.244,35117
0.013,0.0,1.003,-0.366,35145
0.013,-0.0,1.001,-0.122,35170
0.013,-0.001,1.002,-0.122,35194
0.014,-0.001,1.002,-0.244,35221
0.013,-0.003,1.002,-0.122,35245
0.012,-0.001,1.0,-0.244,35269
0.013,-0.001,1.003,-0.244,35296
0.014,-0.001,1.003,-0.305,35322
0.016,-0.0,1.004,-0.244,35348
0.012,0.0,1.002,-0.122,35373
0.013,-0.0,1.003,-0.183,35398
0.016,-0.002,1.003,-0.366,35421
0.014,-0.001,1.003,-0.183,35444
0.014,0.0,1.003,-0.122,35471
0.012,-0.002,1.002,-0.305,35496
0.014,-0.001,1.003,-0.061,35519
0.014,-0.002,1.002,-0.183,35544
0.015,-0.0,1.004,-0.183,35569
0.011,-0.0,1.001,0.0,35594
0.013,-0.003,1.003,-0.244,35619
0.014,-0.001,1.004,-0.305,35647
0.014,-0.001,1.003,-0.244,35674
0.016,-0.002,1.004,-0.122,35700
0.014,-0.001,1.003,-0.122,35723
0.013,-0.001,1.003,-0.061,35747
0.014,-0.001,1.002,-0.244,35775
0.013,-0.002,1.003,-0.183,35799
0.013,-0.0,1.001,-0.305,35822
0.014,-0.003,1.003,-0.244,35848
0.014,-0.002,1.003,-0.061,35873
0.016,-0.002,1.002,-0.244,35898
0.013,0.0,1.003,-0.305,35921
0.013,-0.001,1.004,-0.183,35948
0.015,-0.001,1.003,-0.183,35974
0.014,-0.003,1.002,-0.183,36001
0.014,-0.002,1.004,-0.366,36028
0.013,-0.002,1.003,-0.305,36052
0.014,-0.002,1.004,-0.305,36076
0.013,-0.002,1.004,-0.366,36102
0.014,-0.001,1.003,-0.244,36127
0.013,0.0,1.003,-0.244,36152
0.014,-0.0,1.002,-0.244,36179
0.014,-0.004,1.002,-0.244,36206
0.015,-0.002,1.003,-0.122,36230
0.014,-0.0,1.002,-0.122,36254
0.013,-0.001,1.001,-0.305,36279
0.013,-0.001,1.003,-0.305,36308
0.013,-0.001,1.003,-0.305,36334
0.014,-0.001,1.002,-0.061,36362
0.015,-0.001,1.003,-0.244,36388
0.013,-0.002,1.004,-0.244,36412
0.015,-0.0,1.001,-0.183,36436
0.015,-0.001,1.002,-0.183,36465
0.013,-0.003,1.003,-0.061,36491
0.013,-0.0,1.002,-0.183,36517
0.014,-0.002,1.001,-0.427,36543
0.014,-0.002,1.003,-0.122,36568
0.014,-0.002,0.999,-0.122,36595
0.014,-0.001,1.003,-0.244,36619
0.014,-0.002,1.004,-0.305,36643
0.013,-0.001,1.001,-0.183,36670
0.015,-0.001,1.003,-0.244,36694
0.014,-0.001,1.002,-0.183,36721
0.014,-0.001,1.003,-0.244,36748
0.015,-0.0,1.002,-0.244,36774
0.014,-0.0,1.004,-0.244,36798
0.014,-0.003,1.001,-0.244,36822
0.014,-0.001,1.003,-0.305,36847
0.014,-0.002,1.0,-0.061,36872
0.014,-0.0,1.002,-0.305,36897
0.012,-0.002,1.002,-0.122,36923
0.014,-0.001,1.003,-0.183,36946
0.014,-0.003,1.0,-0.122,36973
0.013,-0.002,1.002,-0.183,36997
0.013,-0.0,1.003,-0.122,37020
0.013,-0.0,1.002,-0.122,37044
0.013,-0.002,1.003,-0.366,37072
0.013,-0.002,1.003,-0.244,37095
0.013,-0.001,1.002,-0.183,37121
0.013,-0.002,1.002,-0.122,37146
0.014,-0.0,1.004,-0.427,37170
0.015,-0.0,1.004,-0.183,37196
0.012,-0.002,1.003,-0.183,37220
0.014,-0.001,1.003,-0.244,37247
0.015,0.0,1.003,-0.305,37272
0.014,-0.002,1.003,-0.122,37297
0.013,-0.001,1.002,-0.305,37321
0.012,-0.001,1.003,-0.183,37345
0.013,-0.002,1.003,-0.183,37371
0.014,-0.001,1.003,-0.183,37398
0.014,-0.0,1.004,-0.122,37423
0.013,-0.002,1.0,-0.183,37448
0.013,-0.0,1.001,-0.183,37472
0.013,-0.001,1.002,-0.122,37496
0.013,-0.001,1.001,-0.244,37519
0.014,-0.002,1.002,-0.305,37544
0.012,-0.001,1.002,-0.183,37571
0.013,-0.001,1.002,-0.122,37594
0.014,-0.001,1.003,-0.183,37618
0.012,-0.002,1.003,-0.305,37643
0.012,-0.003,1.002,-0.244,37668
0.012,-0.001,1.003,-0.244,37695
0.015,-0.001,1.002,-0.305,37719
0.014,-0.001,1.004,-0.305,37744
0.014,-0.001,1.003,-0.183,37771
0.012,-0.001,1.002,-0.244,37795
0.013,-0.001,1.001,-0.183,37820
0.014,-0.001,1.003,-0.122,37846
0.014,-0.0,1.001,-0.183,37870
0.013,-0.002,1.004,-0.244,37898
0.014,-0.0,1.0,-0.183,37922
0.013,-0.001,1.003,-0.244,37949
0.012,-0.002,1.001,-0.183,37973
0.013,-0.001,1.003,-0.183,37999
0.015,-0.001,1.003,-0.061,38024
0.013,-0.002,1.002,-0.122,38050
0.014,-0.002,1.003,-0.183,38074
0.013,0.0,1.001,-0.183,38098
0.013,0.0,1.003,-0.305,38124
0.015,-0.001,1.002,-0.061,38150
0.015,-0.001,1.003,-0.122,38174
0.013,-0.002,1.005,-0.244,38199
0.013,0.0,1.002,-0.366,38223
0.013,-0.002,1.002,-0.183,38251
0.013,-0.002,1.004,-0.305,38276
0.014,-0.002,1.004,-0.244,38304
0.014,-0.002,1.003,-0.244,38329
0.015,-0.001,1.002,-0.122,38355
0.015,-0.002,1.002,-0.305,38379
0.011,-0.001,1.004,-0.183,38407
0.014,-0.0,1.003,-0.122,38432
0.013,-0.001,1.002,-0.183,38457
0.016,-0.001,1.001,-0.122,38482
0.013,-0.002,1.002,-0.061,38508
0.014,-0.002,1.002,-0.122,38535
0.014,-0.0,1.003,-0.122,38559
0.014,-0.001,1.002,-0.183,38584
0.013,-0.0,1.002,-0.183,38607
0.013,-0.003,1.002,-0.122,38633
0.012,-0.002,1.002,-0.061,38660
0.014,-0.001,1.001,-0.244,38684
0.014,-0.003,1.003,-0.183,38710
0.013,-0.002,1.002,-0.244,38735
0.014,-0.001,1.004,-0.305,38762
0.013,-0.002,1.002,-0.183,38786
0.013,-0.001,1.003,-0.122,38809
0.012,-0.001,1.002,-0.061,38834
0.012,0.0,1.003,-0.183,38859
0.012,-0.0,1.0,-0.183,38882
0.013,-0.001,1.003,-0.305,38906
0.014,-0.002,1.004,-0.183,38930
0.013,-0.002,1.0,-0.183,38955
0.015,-0.001,1.004,-0.183,38982
0.014,-0.001,1.0,-0.244,39006
0.013,0.002,1.002,-0.122,39033
0.012,-0.002,1.003,-0.183,39057
0.014,-0.001,1.002,-0.244,39081
0.014,-0.001,1.003,-0.122,39106
0.014,-0.002,1.0,-0.122,39130
0.012,-0.002,1.003,-0.183,39155
0.013,-0.003,1.002,-0.305,39178
0.011,-0.002,1.002,-0.061,39204
0.012,-0.0,1.002,-0.244,39228
0.012,-0.001,1.002,-0.305,39253
0.013,-0.002,1.001,-0.244,39278
0.014,-0.001,1.003,-0.183,39306
0.016,-0.002,1.003,-0.183,39330
0.016,-0.001,1.004,-0.183,39356
0.014,-0.0,1.005,-0.183,39380
0.013,-0.002,1.002,-0.183,39404
0.013,-0.001,1.0,0.0,39430
0.013,-0.0,1.001,-0.305,39456
0.015,-0.002,1.003,-0.122,39481
0.014,-0.001,1.0,-0.305,39507
0.014,-0.003,1.004,-0.122,39530
0.014,-0.001,1.003,-0.305,39555
0.014,-0.002,1.003,-0.183,39579
0.014,-0.001,1.002,-0.244,39602
0.013,-0.002,1.001,-0.183,39627
0.012,-0.002,1.005,-0.305,39654
0.012,-0.001,1.001,0.0,39680
0.015,-0.0,1.001,-0.183,39705
0.016,-0.002,1.001,-0.305,39729
0.014,-0.001,1.003,-0.183,39753
0.013,-0.001,1.001,-0.305,39776
0.013,-0.001,1.001,-0.183,39801
0.012,-0.001,1.004,-0.244,39826
0.013,-0.002,1.003,-0.244,39852
0.013,-0.002,1.002,-0.244,39878
0.014,-0.005,1.001,-0.244,39902
0.016,-0.002,1.002,-0.366,39928
0.014,-0.001,1.002,-0.183,39953
0.013,-0.001,1.003,-0.122,39978
0.012,-0.001,1.002,-0.244,40002
0.013,-0.001,1.001,-0.244,40028
0.013,-0.002,1.001,-0.244,40053
0.014,-0.002,1.002,-0.183,40078
0.015,-0.002,1.002,-0.305,40106
0.013,-0.003,1.001,-0.244,40132
0.012,-0.0,1.003,-0.183,40158
0.013,-0.001,1.001,-0.244,40185
0.012,-0.003,1.003,-0.183,40208
0.012,-0.002,1.003,-0.244,40232
0.016,-0.001,1.002,-0.244,40256
0.014,-0.001,1.003,-0.244,40283
0.015,-0.002,1.003,-0.366,40309
0.013,-0.003,1.003,-0.122,40333
0.011,0.0,1.004,-0.061,40359
0.014,-0.003,1.003,-0.183,40387
0.014,-0.003,1.002,-0.183,40413
0.013,-0.001,1.003,-0.122,40436
0.015,-0.003,1.003,-0.305,40462
0.015,-0.0,1.004,-0.244,40486
0.014,-0.001,1.001,-0.305,40512
0.016,-0.001,1.001,-0.183,40535
0.015,-0.001,1.002,-0.122,40561
0.014,-0.0,1.003,-0.305,40586
0.016,-0.002,1.0,-0.305,40610
0.015,-0.003,1.002,-0.061,40637
0.013,-0.003,1.002,-0.366,40662
0.014,-0.002,1.001,-0.183,40687
0.012,-0.002,1.001,-0.244,40711
0.014,-0.002,1.003,-0.183,40737
0.014,-0.001,1.003,-0.244,40763
0.012,-0.004,1.003,-0.183,40788
0.015,-0.002,1.004,-0.244,40812
0.015,-0.002,1.002,-0.183,40837
0.014,-0.001,1.001,-0.122,40866
0.011,-0.0,1.003,-0.305,40895
0.013,-0.001,1.001,-0.366,40920
0.012,-0.003,1.0,-0.061,40945
0.014,-0.001,1.003,-0.183,40970
0.014,-0.003,1.002,-0.244,40997
0.014,-0.003,1.002,-0.244,41024
0.015,-0.002,1.001,-0.183,41049
0.014,-0.002,1.003,-0.305,41072
0.014,-0.0,1.003,-0.244,41096
0.015,-0.003,1.0,-0.183,41120
0.013,-0.001,1.004,-0.183,41145
0.015,-0.002,1.002,-0.061,41171
0.014,-0.003,1.002,-0.244,41197
0.014,-0.002,1.002,-0.122,41222
0.014,-0.002,1.001,-0.427,41247
0.015,-0.002,1.002,0.0,41274
0.013,-0.001,1.003,-0.183,41301
0.012,-0.0,1.002,-0.305,41327
0.013,-0.001,1.003,-0.183,41353
0.015,-0.003,1.003,-0.305,41377
0.015,-0.003,1.001,-0.183,41402
0.013,-0.003,1.002,-0.183,41428
0.014,-0.002,1.003,-0.244,41455
0.012,-0.002,1.002,-0.061,41478
0.013,-0.0,1.001,-0.183,41502
0.013,-0.0,1.005,-0.366,41527
0.014,-0.002,1.005,-0.183,41553
0.015,-0.002,1.002,-0.183,41579
0.013,-0.002,1.003,-0.183,41604
0.013,-0.001,1.003,-0.061,41630
0.014,-0.002,1.003,-0.183,41653
0.013,-0.002,1.001,-0.183,41678
0.013,-0.002,1.004,-0.244,41704
0.013,-0.001,1.003,-0.244,41729
0.014,-0.001,1.003,-0.061,41754
0.015,-0.002,1.002,-0.061,41780
0.015,-0.003,1.003,-0.183,41804
0.014,-0.002,1.001,-0.183,41829
0.013,-0.003,1.002,-0.183,41853
0.012,-0.002,1.003,-0.183,41882
0.014,-0.001,1.004,-0.244,41909
0.013,-0.003,1.001,-0.122,41937
0.014,-0.003,1.002,-0.305,41961
0.015,-0.003,1.001,-0.122,41987
0.015,-0.001,1.003,-0.244,42011
0.014,-0.001,1.004,0.0,42035
0.014,-0.001,1.003,-0.183,42059
0.012,-0.002,1.002,-0.183,42083
0.015,-0.001,1.004,-0.061,42108
0.015,-0.001,1.004,-0.305,42133
0.014,-0.002,1.003,-0.061,42158
0.015,-0.0,1.003,-0.122,42183
0.014,-0.002,1.001,-0.183,42208
0.014,-0.002,1.004,-0.183,42233
0.014,-0.001,1.003,-0.183,42258
0.013,0.0,0.999,-0.244,42282
0.014,-0.003,1.002,-0.244,42307
0.014,-0.001,1.004,-0.305,42332
0.014,-0.001,1.001,-0.122,42356
0.014,-0.002,1.002,-0.122,42381
0.014,-0.001,1.003,-0.244,42406
0.012,0.0,1.003,-0.122,42430
0.013,-0.002,1.002,-0.183,42455
0.014,-0.001,1.003,-0.244,42482
0.015,-0.001,1.003,-0.183,42507
0.014,-0.002,1.003,-0.122,42531
0.012,-0.001,1.003,-0.122,42555
0.013,-0.002,1.004,-0.183,42578
0.015,-0.004,1.003,-0.244,42607
0.014,-0.001,1.002,-0.305,42633
0.013,-0.002,1.003,-0.122,42658
0.013,-0.002,1.002,-0.122,42683
0.015,-0.004,1.002,-0.305,42708
0.014,-0.001,1.002,-0.122,42732
0.013,-0.002,1.004,-0.061,42756
0.014,-0.003,1.002,-0.122,42781
0.013,-0.0,1.004,-0.244,42806
0.014,-0.001,1.003,-0.366,42832
0.014,0.0,1.002,-0.183,42856
0.015,-0.001,1.003,-0.183,42880
0.013,-0.002,1.002,-0.366,42907
0.014,-0.002,1.004,-0.183,42931
0.013,-0.003,1.001,-0.244,42957
0.013,-0.001,1.002,-0.122,42983
0.013,-0.001,1.001,-0.305,43007
0.012,-0.001,1.003,-0.122,43034
0.012,-0.001,1.004,-0.122,43062
0.015,-0.002,1.003,-0.183,43086
0.014,-0.002,1.002,-0.244,43112
0.015,-0.003,1.004,-0.244,43135
0.014,-0.003,1.002,-0.244,43161
0.013,-0.002,1.002,-0.305,43184
0.013,-0.001,1.001,-0.244,43209
0.014,-0.002,1.002,-0.183,43234
0.015,-0.001,1.003,-0.122,43260
0.013,-0.001,1.003,-0.183,43288
0.015,-0.003,1.003,-0.244,43310
0.015,-0.002,1.003,-0.122,43335
0.015,-0.002,1.001,-0.366,43362
0.013,-0.002,1.001,-0.244,43385
0.012,-0.001,1.002,-0.244,43413
0.013,-0.003,1.004,-0.183,43440
0.013,-0.002,1.003,-0.305,43467
0.014,-0.002,1.002,-0.244,43492
0.015,-0.003,1.003,-0.122,43518
0.014,-0.003,1.003,-0.122,43541
0.015,-0.001,1.002,-0.244,43565
0.012,-0.002,1.003,-0.183,43592
0.014,-0.001,1.002,-0.183,43616
0.015,-0.002,1.002,-0.244,43642
0.013,-0.003,1.002,-0.244,43668
0.015,-0.003,1.003,-0.183,43693
0.015,-0.002,1.003,-0.183,43719
0.015,-0.0,1.002,-0.183,43744
0.014,0.0,1.002,-0.244,43770
0.014,-0.0,1.002,-0.122,43795
0.014,-0.0,1.002,-0.183,43819
0.014,-0.001,1.002,-0.244,43844
0.016,-0.003,1.001,0.0,43869
0.013,-0.003,1.002,-0.366,43894
0.015,-0.003,1.001,-0.122,43921
0.014,-0.003,1.003,-0.183,43946
0.011,-0.001,1.002,-0.305,43970
0.012,-0.001,1.002,-0.305,43994
0.012,-0.001,1.003,-0.244,44019
0.014,-0.001,1.002,-0.183,44043
0.016,-0.002,1.002,-0.244,44070
0.014,-0.002,1.001,-0.305,44095
0.014,-0.001,1.003,-0.244,44121
0.012,-0.002,1.003,-0.183,44145
0.012,-0.001,1.001,-0.244,44170
0.01,-0.002,1.003,-0.244,44197
0.013,-0.004,1.002,-0.244,44222
0.014,-0.002,1.002,-0.244,44246
0.015,-0.001,1.001,-0.122,44271
0.014,-0.002,1.002,-0.183,44295
0.014,-0.003,1.002,-0.244,44318
0.013,-0.003,1.002,-0.244,44341
0.013,-0.0,1.003,-0.061,44368
0.011,-0.002,1.003,-0.305,44394
0.013,-0.002,1.003,-0.183,44419
0.014,-0.002,1.002,-0.183,44446
0.014,-0.003,1.003,-0.183,44473
0.014,-0.003,1.002,-0.122,44503
0.015,-0.001,1.003,-0.183,44530
0.013,-0.0,1.002,-0.183,44556
0.013,0.0,1.001,-0.122,44581
0.013,-0.002,1.001,-0.305,44605
0.015,-0.002,1.004,-0.183,44633
0.013,-0.002,1.001,-0.183,44658
0.013,-0.004,1.004,-0.244,44685
0.013,-0.003,1.002,-0.244,44710
0.013,-0.001,1.003,-0.183,44737
0.014,-0.002,1.002,-0.305,44763
0.014,-0.002,1.001,-0.183,44788
0.014,-0.001,1.003,-0.244,44815
0.014,-0.003,1.002,-0.183,44842
0.015,-0.002,1.003,-0.244,44867
0.015,-0.001,1.001,-0.244,44891
0.012,-0.001,1.003,-0.122,44915
0.013,-0.002,1.0,-0.244,44940
0.012,-0.002,1.002,-0.305,44964
0.013,-0.002,1.001,-0.244,44989
0.014,-0.002,1.004,-0.183,45014
0.016,-0.002,1.002,-0.244,45039
0.013,-0.001,1.002,-0.366,45062
0.014,-0.001,1.003,-0.183,45087
0.013,-0.001,1.002,-0.183,45110
0.013,-0.002,1.003,0.061,45135
0.014,-0.002,1.002,-0.122,45160
0.013,-0.002,1.002,-0.183,45189
0.016,-0.001,1.002,-0.122,45215
0.014,-0.003,1.001,-0.183,45241
0.014,-0.001,1.003,-0.183,45266
0.015,-0.002,1.002,-0.244,45291
0.015,-0.002,1.002,-0.183,45315
0.012,-0.001,1.001,-0.244,45343
0.014,-0.001,1.002,-0.244,45367
0.013,-0.001,1.003,-0.122,45391
0.015,-0.001,1.003,0.0,45417
0.014,-0.001,1.002,-0.244,45441
0.012,-0.001,1.002,-0.183,45464
0.014,-0.002,1.003,-0.183,45489
0.014,-0.002,1.003,-0.244,45512
0.013,-0.0,1.001,-0.183,45537
0.013,-0.002,1.003,-0.061,45560
0.013,-0.001,1.002,-0.244,45587
0.014,-0.003,1.001,-0.122,45613
0.015,-0.002,1.001,-0.244,45641
0.013,-0.001,1.003,-0.244,45665
0.015,-0.002,1.002,-0.061,45688
0.013,-0.001,1.004,-0.244,45713
0.013,-0.001,1.002,-0.061,45738
0.016,-0.002,1.003,-0.366,45762
0.015,-0.001,1.004,-0.122,45787
0.013,-0.002,1.004,-0.305,45812
0.014,-0.001,1.003,-0.244,45836
0.014,-0.002,1.003,-0.244,45862
0.014,-0.003,1.003,-0.244,45886
0.014,-0.002,1.0,-0.183,45909
0.012,-0.001,1.004,-0.244,45935
0.012,-0.001,1.003,-0.122,45960
0.014,-0.001,1.002,-0.061,45986
0.012,-0.002,1.003,-0.183,46013
0.015,-0.001,1.002,-0.122,46038
0.013,-0.001,1.001,-0.122,46064
0.013,-0.002,1.003,-0.183,46089
0.012,-0.001,1.003,-0.183,46115
0.015,-0.0,1.001,-0.183,46139
0.013,-0.002,1.002,-0.305,46165
0.013,-0.002,1.003,-0.183,46191
0.013,-0.002,1.002,0.0,46216
0.013,-0.003,1.0,-0.244,46243
0.013,-0.002,1.004,-0.183,46268
0.012,-0.002,1.001,-0.305,46293
0.014,-0.002,1.003,-0.244,46318
0.013,-0.003,1.002,-0.244,46341
0.016,-0.0,1.004,-0.183,46368
0.014,-0.002,1.003,-0.244,46395
0.013,-0.002,1.004,-0.122,46419
0.015,-0.002,1.002,-0.305,46446
0.014,-0.003,1.002,-0.122,46471
0.011,-0.003,1.003,-0.183,46496
0.012,-0.002,1.002,0.0,46522
0.013,-0.002,1.001,-0.305,46547
0.014,-0.003,1.002,-0.244,46573
0.015,-0.001,1.002,-0.366,46601
0.013,-0.002,1.002,-0.305,46627
0.013,-0.001,1.004,-0.305,46651
0.014,-0.001,1.001,-0.244,46676
0.014,-0.002,1.003,-0.305,46701
0.014,-0.002,1.002,-0.366,46729
0.013,-0.001,1.001,-0.122,46754
0.015,-0.002,1.002,-0.305,46780
0.014,-0.003,1.002,-0.305,46806
0.013,-0.002,1.001,-0.305,46831
0.013,-0.0,1.002,-0.061,46857
0.013,0.0,1.003,-0.488,46883
0.014,-0.001,1.001,-0.244,46908
0.014,-0.001,1.003,-0.244,46931
0.014,-0.003,1.002,-0.183,46956
0.013,-0.002,1.002,-0.183,46981
0.014,-0.003,1.002,-0.183,47007
0.014,-0.003,1.002,-0.122,47034
0.012,-0.002,1.004,-0.183,47060
0.012,-0.002,1.001,-0.183,47087
0.014,-0.001,1.003,-0.122,47112
0.014,-0.002,1.002,-0.183,47140
0.015,-0.001,1.004,-0.122,47166
0.015,-0.001,1.004,-0.183,47191
0.014,-0.002,1.003,-0.183,47216
0.013,-0.0,1.004,-0.183,47243
0.014,-0.002,1.001,-0.244,47270
0.012,-0.003,1.001,-0.244,47293
0.014,-0.002,1.003,-0.183,47317
0.015,-0.002,1.001,-0.183,47343
0.013,-0.002,1.002,-0.244,47369
0.014,-0.001,1.001,-0.183,47395
0.015,-0.0,1.002,-0.244,47419
0.012,-0.002,1.002,-0.244,47443
0.012,-0.002,1.003,-0.183,47469
0.014,-0.002,1.004,-0.244,47494
0.014,-0.002,1.004,-0.366,47520
0.014,-0.001,1.002,-0.183,47546
0.015,-0.002,1.003,-0.183,47572
0.015,-0.003,1.001,-0.244,47597
0.012,-0.001,1.003,-0.122,47622
0.012,-0.002,1.003,-0.244,47648
0.014,-0.001,1.002,-0.183,47674
0.013,-0.002,1.002,-0.183,47700
0.014,-0.003,1.003,-0.305,47726
0.014,-0.002,1.002,-0.183,47750
0.013,-0.003,1.002,-0.122,47775
0.014,-0.002,1.002,-0.244,47801
0.013,-0.002,1.002,-0.122,47827
0.014,-0.002,1.003,-0.122,47851
0.013,-0.002,1.002,-0.305,47875
0.013,-0.001,1.002,-0.183,47900
0.014,-0.001,1.003,-0.183,47927
0.015,-0.002,1.002,-0.183,47951
0.014,-0.001,1.003,-0.122,47977
0.013,-0.002,1.001,-0.183,48005
0.012,-0.002,1.001,-0.183,48032
0.012,-0.001,1.002,-0.305,48061
0.014,-0.003,1.002,-0.183,48085
0.014,-0.002,1.002,-0.305,48112
0.014,-0.002,1.004,-0.061,48137
0.016,-0.002,1.004,-0.305,48165
0.015,-0.001,1.002,-0.244,48188
0.015,-0.002,1.003,-0.183,48213
0.012,-0.002,1.0,-0.061,48238
0.014,-0.001,1.002,-0.183,48267
0.014,-0.003,1.002,-0.244,48293
0.014,-0.003,1.001,-0.061,48317
0.013,-0.003,1.002,-0.183,48342
0.014,-0.002,1.003,-0.305,48366
0.013,-0.001,1.003,-0.122,48392
0.011,-0.001,1.003,-0.183,48416
0.013,-0.001,1.002,-0.122,48441
0.014,-0.002,1.002,-0.183,48466
0.015,-0.002,1.002,-0.122,48492
0.014,-0.002,1.002,-0.244,48515
0.015,-0.002,1.003,-0.244,48541
0.013,-0.002,1.002,-0.183,48566
0.015,-0.001,1.002,-0.366,48591
0.013,-0.001,1.002,-0.183,48618
0.014,-0.002,1.003,-0.244,48642
0.012,-0.002,1.004,-0.061,48669
0.014,-0.002,1.002,-0.305,48693
0.015,-0.001,1.003,-0.183,48718
0.014,-0.002,1.003,-0.183,48746
0.012,-0.002,1.003,-0.183,48770
0.014,-0.001,1.002,-0.244,48796
0.012,-0.002,1.003,-0.244,48823
0.014,-0.004,1.0,-0.122,48850
0.013,-0.002,1.003,-0.244,48876
0.014,-0.001,1.002,-0.244,48901
0.013,-0.001,1.002,-0.244,48925
0.014,-0.001,1.002,-0.244,48949
0.013,-0.0,1.003,-0.244,48974
0.014,-0.001,1.002,-0.183,49000
0.013,-0.001,1.004,-0.183,49026
0.013,-0.001,1.003,-0.061,49051
0.014,-0.003,1.002,-0.061,49077
0.014,-0.001,1.003,-0.244,49101
0.015,-0.003,1.004,-0.244,49125
0.015,-0.001,1.004,-0.183,49151
0.014,-0.001,1.001,-0.244,49178
0.013,-0.002,1.001,-0.244,49202
0.013,-0.002,1.001,-0.305,49226
0.012,-0.003,1.002,-0.061,49250
0.014,-0.001,1.003,-0.183,49278
0.013,-0.001,1.002,-0.122,49303
0.015,-0.002,1.003,-0.061,49329
0.014,-0.002,1.003,-0.244,49355
0.015,-0.001,1.002,-0.183,49380
0.013,-0.002,0.999,-0.183,49404
0.014,-0.002,1.002,-0.366,49429
0.015,-0.002,1.002,-0.183,49456
0.013,-0.002,1.004,-0.183,49481
0.016,-0.002,1.001,-0.183,49506
0.014,-0.003,1.002,-0.305,49533
0.014,-0.003,1.004,-0.305,49560
0.015,-0.001,1.002,-0.305,49588
0.014,-0.002,1.004,-0.122,49613
0.012,-0.002,1.004,-0.122,49637
0.014,-0.003,1.002,-0.183,49663
0.014,-0.002,1.003,-0.305,49690
0.014,-0.003,1.002,-0.183,49715
0.014,-0.002,1.002,-0.183,49740
0.013,-0.002,1.001,0.0,49766
0.014,-0.002,1.004,-0.244,49791
0.013,-0.001,1.002,-0.122,49818
0.013,-0.002,1.003,-0.305,49844
0.013,-0.001,1.001,-0.305,49868
0.013,-0.001,1.001,-0.183,49894
0.014,-0.001,1.002,-0.244,49919
0.015,-0.002,1.002,-0.061,49947
0.013,-0.002,1.004,-0.305,49973
0.014,-0.003,1.002,-0.244,49999
0.014,-0.001,1.003,-0.183,50023
0.013,-0.001,1.003,-0.122,50048
0.015,-0.003,1.003,-0.183,50074
0.013,-0.003,1.003,-0.122,50100
0.014,-0.003,1.002,-0.183,50124
0.013,-0.002,1.002,-0.183,50152
0.013,-0.002,1.004,-0.122,50181
0.014,-0.002,1.002,-0.305,50206
0.014,-0.0,1.002,-0.244,50233
0.013,-0.002,1.003,-0.122,50257
0.014,-0.002,1.002,-0.183,50284
0.013,-0.003,1.003,-0.122,50313
0.013,-0.002,1.002,-0.183,50338
0.014,-0.003,1.003,-0.183,50361
0.015,-0.004,1.003,-0.183,50387
0.014,-0.002,1.003,-0.427,50414
0.013,-0.001,1.003,-0.244,50440
0.014,-0.002,1.003,-0.244,50464
0.015,-0.002,1.003,-0.061,50490
0.014,-0.001,1.001,-0.183,50519
0.013,-0.001,1.002,-0.122,50544
0.014,-0.002,1.002,-0.183,50570
0.013,-0.001,1.003,-0.244,50596
0.013,-0.001,1.003,-0.244,50621
0.012,-0.002,1.003,-0.122,50644
0.013,-0.003,1.003,-0.244,50668
0.013,-0.003,1.005,-0.061,50696
0.014,-0.002,1.001,-0.183,50723
0.013,-0.002,1.002,-0.244,50748
0.015,-0.002,1.002,-0.305,50776
0.015,-0.002,1.003,-0.305,50803
0.012,-0.002,1.001,-0.183,50830
0.013,-0.002,1.002,-0.244,50855
0.012,-0.002,1.003,-0.183,50879
0.015,-0.002,1.004,-0.183,50905
0.014,-0.002,1.003,-0.183,50931
0.013,-0.002,1.0,-0.122,50957
0.014,-0.001,1.001,-0.183,50981
0.014,-0.003,1.003,-0.183,51006
0.012,-0.002,1.0,-0.244,51034
0.014,-0.001,1.003,-0.183,51060
0.013,-0.002,1.0,-0.305,51085
0.014,-0.001,1.001,-0.366,51113
0.016,0.001,1.003,-0.183,51137
0.015,-0.003,1.002,-0.061,51161
0.014,-0.001,1.003,-0.244,51186
0.014,0.0,1.002,-0.061,51213
0.015,-0.001,1.003,-0.305,51238
0.014,-0.002,1.002,-0.183,51264
0.014,-0.002,1.002,-0.305,51289
0.013,-0.002,1.003,-0.244,51316
0.013,-0.003,1.002,-0.122,51342
0.015,-0.001,1.003,-0.122,51367
0.014,-0.002,1.005,-0.183,51393
0.014,-0.001,1.003,-0.122,51417
0.012,-0.002,1.0,-0.244,51443
0.014,-0.002,1.001,-0.183,51468
0.013,-0.003,1.002,-0.122,51494
0.014,-0.003,1.001,-0.122,51519
0.012,-0.001,1.002,-0.244,51544
0.013,-0.001,1.001,-0.183,51568
0.015,-0.001,1.003,-0.305,51596
0.014,-0.002,1.003,-0.183,51621
0.013,-0.001,1.003,-0.244,51645
0.013,-0.003,1.002,-0.122,51670
0.013,-0.001,1.001,-0.305,51695
0.013,-0.002,1.003,-0.183,51721
0.014,-0.003,1.001,-0.122,51745
0.014,-0.002,1.003,-0.244,51770
0.013,-0.001,1.001,-0.183,51796
0.015,-0.001,1.002,-0.122,51824
0.015,-0.002,1.0,-0.305,51849
0.014,-0.001,1.002,-0.305,51873
0.014,-0.003,1.003,-0.183,51898
0.013,-0.003,1.002,-0.305,51926
0.016,-0.001,1.001,-0.305,51950
0.015,-0.002,1.002,-0.122,51977
0.014,-0.002,1.002,-0.183,52000
0.012,-0.0,1.0,-0.183,52024
0.013,-0.002,1.002,-0.183,52048
0.015,-0.002,1.003,-0.244,52072
0.015,-0.002,1.003,-0.183,52099
0.015,-0.001,1.001,-0.122,52123
0.014,-0.002,1.002,-0.122,52147
0.014,-0.003,1.002,-0.244,52173
0.014,-0.001,1.001,-0.183,52200
0.013,-0.002,1.004,-0.305,52227
0.012,-0.001,1.003,-0.244,52253
0.013,-0.001,1.002,-0.244,52277
0.013,-0.002,1.002,-0.244,52302
0.013,-0.003,1.002,-0.305,52327
0.013,-0.002,1.003,-0.244,52351
0.014,-0.001,1.001,-0.061,52376
0.014,-0.001,1.003,-0.183,52402
0.013,-0.002,1.002,-0.244,52429
0.014,-0.0,1.002,-0.183,52455
0.013,-0.002,1.005,-0.122,52478
0.013,-0.001,1.001,-0.244,52504
0.013,-0.003,1.004,-0.183,52528
0.014,-0.003,1.003,-0.061,52553
0.012,-0.003,1.001,-0.183,52577
0.013,-0.003,1.003,-0.183,52600
0.013,-0.002,1.003,-0.122,52627
0.014,-0.002,1.004,0.0,52653
0.014,-0.001,1.003,-0.183,52677
0.014,-0.001,1.002,-0.183,52703
0.014,-0.001,1.002,-0.183,52732
0.014,-0.001,1.003,-0.183,52757
0.014,-0.002,1.002,-0.122,52782
0.015,-0.002,1.002,-0.244,52808
0.015,-0.003,1.003,-0.183,52831
0.013,-0.003,1.003,-0.061,52856
0.012,-0.002,1.003,-0.244,52881
0.012,-0.002,1.002,-0.244,52908
0.013,-0.002,1.002,-0.122,52934
0.014,-0.002,1.002,-0.305,52964
0.015,-0.002,1.006,-0.183,52988
0.013,-0.002,1.001,-0.305,53013
0.014,-0.001,1.003,-0.122,53038
0.013,-0.002,1.0,-0.305,53063
0.013,-0.002,1.003,-0.244,53090
0.012,-0.003,1.004,-0.183,53118
0.015,-0.003,1.0,-0.061,53144
0.014,-0.001,1.003,0.061,53169
0.013,-0.001,1.002,-0.366,53193
0.012,-0.002,1.002,-0.244,53217
0.013,-0.0,1.004,-0.122,53241
0.013,-0.001,1.003,-0.183,53267
0.015,-0.002,1.002,-0.244,53293
0.014,-0.002,1.004,-0.244,53317
0.014,-0.002,1.001,-0.305,53341
0.014,-0.003,1.002,-0.244,53368
0.012,-0.003,1.003,-0.244,53393
0.013,-0.001,1.001,-0.183,53418
0.013,0.0,1.003,-0.244,53442
0.014,-0.003,1.001,-0.305,53466
0.014,-0.003,1.003,-0.122,53492
0.015,-0.002,1.002,-0.061,53520
0.015,-0.003,1.002,-0.244,53545
0.012,-0.002,1.002,-0.122,53571
0.013,-0.001,1.003,-0.183,53596
0.014,-0.0,1.002,-0.183,53622
0.013,-0.001,1.002,-0.244,53647
0.013,-0.002,1.002,-0.122,53671
0.016,-0.002,1.003,-0.183,53698
0.013,-0.001,1.001,-0.122,53723
0.014,-0.002,1.003,-0.183,53747
0.012,-0.002,1.003,-0.061,53771
0.013,0.0,1.002,-0.305,53799
0.012,-0.0,1.003,-0.122,53826
0.013,-0.001,1.001,-0.244,53850
0.013,-0.002,1.002,-0.244,53876
0.014,-0.004,1.001,-0.244,53900
0.014,-0.003,1.004,-0.305,53924
0.013,-0.002,1.001,-0.244,53949
0.014,-0.004,1.002,0.0,53973
0.012,-0.003,1.001,-0.061,53998
0.015,-0.002,1.003,-0.244,54025
0.014,-0.002,1.002,-0.122,54053
0.013,-0.001,1.002,-0.061,54078
0.013,-0.0,1.003,-0.366,54104
0.015,-0.003,1.003,-0.183,54130
0.015,-0.001,1.003,-0.244,54154
0.013,-0.002,1.003,-0.244,54180
0.013,-0.002,1.001,-0.244,54206
0.014,-0.003,1.002,-0.305,54232
0.013,-0.002,1.003,-0.305,54258
0.014,-0.003,1.002,-0.183,54286
0.014,-0.002,1.003,-0.183,54314
0.016,-0.001,1.002,-0.183,54338
0.014,-0.002,1.004,-0.122,54362
0.014,-0.001,1.003,-0.305,54386
0.014,-0.001,1.002,-0.183,54411
0.014,-0.001,1.003,-0.122,54437
0.014,-0.002,1.002,-0.366,54463
0.014,-0.002,1.001,-0.122,54491
0.014,-0.002,1.003,-0.183,54517
0.014,-0.002,1.002,-0.244,54543
0.014,-0.002,1.002,-0.488,54569
0.013,-0.002,1.003,-0.366,54594
0.013,0.0,1.003,-0.061,54618
0.015,-0.002,1.003,-0.183,54642
0.014,-0.001,1.001,-0.427,54667
0.014,-0.003,1.003,-0.183,54693
0.012,-0.001,1.002,0.0,54717
0.012,-0.002,1.002,-0.183,54742
0.014,-0.002,1.001,-0.244,54771
0.013,-0.002,1.001,-0.061,54794
0.012,-0.003,1.002,-0.122,54818
0.014,-0.002,1.002,-0.183,54841
0.016,-0.003,1.002,-0.183,54866
0.013,-0.0,1.001,-0.122,54889
0.015,-0.002,1.002,-0.183,54916
0.014,-0.0,1.003,-0.183,54941
0.013,-0.001,1.001,-0.305,54967
0.013,-0.001,1.002,-0.183,54993
0.012,-0.003,1.002,-0.183,55018
0.012,-0.001,1.002,-0.305,55043
0.014,-0.002,1.003,-0.183,55067
0.013,-0.001,1.002,-0.183,55091
0.016,-0.002,1.004,-0.122,55119
0.014,-0.001,1.003,-0.061,55146
0.012,-0.002,1.002,-0.305,55171
0.014,-0.002,1.002,-0.305,55195
0.015,-0.002,1.002,-0.183,55221
0.013,-0.002,1.0,-0.305,55247
0.014,-0.003,1.001,-0.122,55271
0.013,-0.001,1.002,-0.061,55298
0.015,-0.003,1.003,-0.244,55325
0.014,-0.001,1.001,-0.305,55349
0.015,-0.002,1.003,-0.122,55379
0.016,-0.002,1.003,-0.366,55406
0.014,-0.002,1.002,-0.305,55431
0.013,-0.002,1.002,-0.183,55456
0.014,-0.002,1.003,-0.183,55480
0.012,-0.003,1.005,-0.122,55504
0.014,-0.002,1.003,-0.305,55529
0.014,-0.0,1.002,-0.183,55554
0.015,-0.002,1.002,-0.183,55578
0.014,-0.001,1.004,-0.366,55606
0.013,-0.004,1.002,-0.122,55632
0.013,-0.003,1.002,-0.244,55656
0.012,-0.002,1.001,-0.183,55681
0.015,-0.001,1.001,-0.366,55707
0.014,-0.001,1.002,-0.183,55734
0.014,-0.002,1.002,-0.183,55759
0.015,-0.002,1.002,-0.244,55786
0.013,-0.002,1.002,-0.122,55812
0.013,-0.002,1.004,-0.183,55839
0.013,-0.001,1.003,-0.183,55865
0.015,-0.002,1.003,-0.244,55891
0.014,-0.002,1.002,-0.122,55918
0.012,-0.002,1.001,-0.122,55945
0.013,-0.003,1.004,-0.183,55970
0.014,-0.0,1.002,-0.183,55998
0.013,-0.0,1.001,-0.244,56026
0.013,-0.001,1.002,-0.183,56051
0.013,-0.002,1.005,-0.183,56075
0.014,-0.002,1.003,-0.183,56101
0.015,-0.003,1.0,-0.183,56128
0.012,-0.001,1.002,-0.244,56156
0.012,-0.003,1.002,-0.122,56180
0.013,-0.001,1.002,-0.244,56209
0.015,0.0,1.002,-0.183,56239
0.012,-0.003,1.002,-0.183,56264
0.014,-0.001,1.001,-0.244,56291
0.014,-0.002,1.003,-0.305,56317
0.015,-0.003,1.001,-0.061,56342
0.013,-0.002,1.002,-0.061,56367
0.012,-0.002,1.003,-0.244,56391
0.013,-0.002,1.002,-0.183,56416
0.013,-0.002,1.002,-0.183,56442
0.012,-0.002,1.0,-0.122,56467
0.014,-0.003,1.003,-0.122,56490
0.013,0.0,1.003,-0.244,56516
0.014,-0.002,1.002,-0.244,56544
0.013,-0.002,1.004,-0.366,56571
0.013,-0.002,1.004,-0.183,56600
0.013,-0.003,1.002,-0.244,56623
0.013,-0.001,1.003,-0.183,56649
0.013,-0.002,1.002,-0.122,56675
0.011,-0.001,1.004,-0.305,56700
0.013,-0.002,1.002,-0.183,56723
0.014,-0.002,1.002,-0.244,56746
0.013,-0.001,1.003,-0.183,56769
0.014,-0.001,1.003,-0.061,56794
0.013,-0.002,1.003,-0.183,56817
0.015,-0.002,1.002,-0.244,56842
0.012,-0.003,1.002,-0.122,56870
0.011,-0.001,1.005,-0.122,56896
0.013,-0.003,1.001,-0.183,56923
0.014,-0.002,1.001,-0.244,56949
0.015,-0.002,1.003,-0.183,56975
0.013,0.0,1.005,-0.183,56999
0.014,-0.001,1.002,-0.244,57026
0.013,-0.003,1.002,-0.244,57050
0.014,-0.001,1.003,-0.122,57074
0.013,-0.002,1.003,-0.366,57099
0.015,-0.003,1.004,-0.183,57123
0.013,-0.003,1.0,-0.183,57148
0.013,-0.002,1.001,-0.183,57174
0.012,-0.001,1.003,-0.122,57197
0.012,-0.001,1.004,-0.183,57224
0.015,-0.001,1.004,-0.183,57248
0.013,-0.001,1.003,-0.122,57272
0.014,-0.001,1.001,-0.305,57297
0.016,-0.003,1.001,-0.244,57321
0.013,-0.002,1.002,-0.183,57346
0.013,-0.003,1.004,-0.183,57372
0.013,-0.002,1.001,-0.244,57398
0.013,-0.002,1.003,-0.244,57423
0.013,-0.001,1.003,-0.244,57448
0.014,-0.001,1.003,-0.122,57474
0.014,0.0,1.003,-0.122,57501
0.015,-0.001,1.002,-0.305,57524
0.013,-0.003,1.002,-0.244,57550
0.014,-0.002,1.005,-0.122,57576
0.012,-0.003,1.003,-0.244,57601
0.014,-0.001,1.002,-0.183,57627
0.013,-0.001,1.002,-0.183,57651
0.014,-0.002,1.002,-0.122,57677
0.014,-0.002,1.002,-0.305,57702
0.013,-0.002,1.001,-0.244,57727
0.015,-0.001,1.001,-0.061,57754
0.014,-0.001,1.002,-0.122,57778
0.015,-0.002,1.002,-0.366,57804
0.014,-0.002,1.002,-0.244,57830
0.014,-0.0,1.002,-0.244,57856
0.013,-0.002,1.002,-0.122,57881
0.015,-0.001,1.002,-0.244,57906
0.013,-0.003,1.001,-0.183,57931
0.014,-0.002,1.002,-0.244,57957
0.015,-0.002,1.002,-0.183,57982
0.014,-0.001,1.003,-0.183,58008
0.013,-0.001,1.004,-0.122,58032
0.013,-0.002,1.003,-0.183,58056
0.013,-0.004,1.003,-0.427,58081
0.012,-0.002,1.003,-0.366,58105
0.012,-0.002,1.001,-0.305,58128
0.012,-0.001,1.002,-0.183,58154
0.012,-0.001,1.002,-0.244,58182
0.014,-0.003,1.003,-0.366,58205
0.015,-0.004,1.003,-0.122,58229
0.013,-0.003,1.004,-0.061,58255
0.013,-0.001,1.002,-0.183,58282
0.015,-0.001,1.001,-0.183,58307
0.014,-0.001,1.002,-0.183,58334
0.012,-0.002,1.001,-0.183,58359
0.014,-0.003,1.003,-0.183,58386
0.014,-0.003,1.002,-0.122,58410
0.014,-0.004,1.004,-0.183,58434
0.013,-0.002,1.002,-0.305,58460
0.013,-0.002,1.002,-0.305,58484
0.011,-0.002,1.003,-0.183,58509
0.012,-0.002,1.003,-0.183,58536
0.014,-0.002,1.002,-0.183,58561
0.013,-0.004,1.003,-0.122,58586
0.014,-0.002,1.003,-0.366,58612
0.013,-0.003,1.003,-0.122,58637
0.014,-0.001,1.001,-0.183,58666
0.012,-0.001,1.001,-0.427,58692
0.013,-0.002,1.002,-0.244,58716
0.012,-0.002,1.003,-0.183,58741
0.016,-0.003,1.002,-0.183,58767
0.013,-0.002,1.002,-0.183,58794
0.012,-0.002,1.001,-0.305,58819
0.012,-0.004,1.001,-0.244,58843
0.012,-0.002,1.002,-0.305,58869
0.013,-0.0,1.001,-0.061,58894
0.014,0.0,1.003,-0.183,58917
0.014,-0.003,1.003,-0.244,58941
0.013,-0.001,1.002,-0.244,58964
0.014,-0.002,1.001,-0.244,58989
0.014,-0.002,1.001,-0.122,59013
0.014,-0.003,1.003,-0.122,59040
0.013,-0.002,1.003,-0.122,59067
0.013,-0.001,1.003,-0.183,59093
0.013,-0.004,1.001,-0.183,59118
0.013,-0.002,1.002,-0.244,59142
0.015,-0.002,1.002,-0.244,59166
0.016,-0.002,1.003,-0.122,59191
0.015,-0.001,1.003,-0.122,59217
0.013,-0.001,1.0,-0.244,59243
0.015,-0.002,1.002,-0.183,59270
0.014,-0.002,1.003,-0.122,59296
0.014,-0.002,1.002,-0.183,59322
0.012,-0.0,1.002,-0.183,59349
0.013,-0.002,1.001,-0.061,59374
0.013,-0.002,1.003,-0.244,59401
0.014,-0.002,1.001,-0.183,59426
0.014,-0.001,1.002,-0.183,59449
0.014,-0.001,1.002,-0.122,59477
0.015,-0.0,1.003,-0.122,59506
0.014,-0.003,1.003,-0.061,59531
0.012,-0.001,1.003,-0.183,59556
0.013,-0.002,1.002,-0.122,59580
0.012,-0.003,1.001,-0.183,59605
0.014,-0.003,1.003,-0.305,59629
0.014,-0.002,1.002,-0.183,59655
0.015,-0.003,1.003,-0.427,59680
0.014,-0.002,1.002,-0.183,59706
0.013,-0.001,1.003,-0.183,59731
0.012,-0.001,1.004,-0.061,59756
0.013,-0.003,1.003,-0.183,59781
0.012,-0.003,1.002,-0.183,59808
0.01,-0.003,1.003,-0.366,59833
0.012,-0.002,1.001,-0.244,59859
0.013,-0.004,1.001,-0.244,59883
0.014,-0.003,1.002,-0.183,59908
0.012,-0.001,1.003,-0.122,59931
0.015,-0.001,1.003,-0.305,59956
0.014,-0.002,1.004,-0.244,59983
0.015,-0.002,1.003,-0.244,60006
0.012,-0.001,1.002,-0.244,60034
0.013,-0.003,1.003,-0.122,60061
0.013,-0.003,1.003,-0.244,60085
0.014,-0.003,1.002,-0.061,60114
0.013,-0.002,1.002,-0.122,60138
0.013,-0.001,1.0,-0.244,60163
0.013,-0.002,1.001,-0.122,60189
0.014,-0.002,1.0,-0.366,60214
0.013,-0.003,1.003,-0.183,60239
0.015,-0.001,1.002,-0.183,60264
0.012,-0.001,1.003,-0.122,60290
0.014,-0.003,1.002,-0.244,60316
0.014,-0.003,0.999,-0.183,60341
0.014,-0.002,1.002,-0.183,60364
0.012,-0.002,1.002,-0.183,60388
0.013,-0.002,1.002,-0.061,60414
0.013,-0.002,1.002,-0.366,60440
0.013,-0.003,1.003,-0.183,60465
0.012,-0.002,1.002,-0.244,60490
0.013,-0.001,1.004,-0.122,60513
0.015,-0.003,1.003,-0.244,60537
0.014,-0.001,1.003,-0.183,60560
0.012,-0.003,1.003,-0.244,60585
0.012,-0.004,1.001,-0.061,60609
0.013,-0.004,1.002,-0.244,60633
0.013,-0.002,1.004,-0.305,60657
0.014,-0.001,1.002,-0.122,60682
0.014,-0.001,1.003,-0.183,60708
0.014,-0.003,1.004,-0.366,60732
0.014,-0.002,1.002,-0.122,60757
0.013,-0.002,1.001,-0.244,60783
0.012,-0.003,1.002,-0.183,60808
0.013,-0.003,1.003,-0.122,60832
0.012,-0.001,1.001,-0.183,60855
0.014,-0.002,1.001,-0.183,60883
0.014,-0.004,1.003,-0.183,60909
0.013,-0.004,1.004,-0.122,60938
0.014,-0.002,1.002,-0.061,60962
0.014,-0.001,1.001,-0.122,60986
0.015,-0.001,1.003,-0.183,61012
0.013,-0.001,1.004,0.0,61036
0.014,-0.001,1.001,-0.122,61061
0.015,-0.001,1.001,-0.183,61085
0.013,-0.001,1.002,-0.244,61112
0.015,-0.003,1.004,-0.244,61140
0.014,-0.003,1.003,-0.183,61164
0.013,-0.003,1.003,-0.244,61190
0.012,0.001,1.001,-0.061,61214
0.014,-0.001,1.002,-0.061,61240
0.013,-0.008,1.0,-0.122,61263
0.012,-0.007,0.998,-0.061,61288
0.01,-0.005,1.001,-0.244,61312
0.012,-0.002,1.005,-0.366,61338
0.015,-0.002,1.001,-0.244,61368
0.015,0.002,1.004,-0.183,61393
0.014,0.004,1.002,-0.244,61417
0.016,0.0,1.003,-0.244,61443
0.015,-0.002,1.005,-0.122,61471
0.014,-0.002,1.0,0.122,61496
0.013,-0.007,0.998,-0.183,61525
0.011,-0.008,1.001,-0.183,61549
0.012,-0.004,1.003,-0.366,61573
0.011,0.0,1.001,-0.183,61598
0.012,0.001,1.001,-0.244,61623
0.014,-0.002,1.0,-0.427,61649
0.016,-0.002,0.998,0.0,61672
0.015,-0.001,1.001,0.061,61697
0.012,-0.002,1.007,-0.244,61721
0.014,-0.003,1.011,-0.427,61745
0.016,-0.002,1.004,-0.122,61771
0.018,0.0,0.996,1.038,61798
0.017,-0.002,1.003,-0.671,61824
0.013,-0.002,1.006,-1.038,61852
0.012,0.001,1.001,-0.244,61879
0.012,-0.003,1.0,-0.183,61906
0.013,-0.004,1.005,-0.305,61931
0.015,-0.004,1.002,-0.183,61957
0.017,-0.001,1.002,-0.061,61986
0.016,0.001,1.005,-0.244,62012
0.018,-0.0,1.006,-0.183,62036
0.013,-0.0,1.002,-0.183,62059
0.014,-0.001,1.003,-0.122,62085
0.015,-0.003,1.0,-0.305,62110
0.015,-0.001,1.003,-0.183,62136
0.015,-0.002,1.003,-0.183,62160
0.014,-0.002,1.002,-0.305,62188
0.012,-0.002,1.0,-0.183,62213
0.014,-0.002,1.003,-0.244,62236
0.013,-0.0,1.005,-0.244,62262
0.014,0.002,1.002,-0.244,62286
0.014,-0.001,1.001,-0.183,62310
0.016,-0.003,1.002,-0.122,62335
0.015,-0.006,1.003,-0.244,62362
0.012,-0.004,1.001,-0.244,62386
0.011,-0.002,1.002,-0.305,62415
0.013,-0.001,1.002,-0.305,62441
0.014,-0.001,1.004,-0.122,62464
0.015,-0.002,1.005,-0.122,62488
0.015,0.001,1.001,-0.183,62512
0.015,-0.001,1.001,-0.244,62537
0.015,-0.001,1.003,-0.183,62560
0.014,-0.001,1.001,-0.122,62585
0.014,-0.002,1.003,-0.061,62609
0.012,-0.003,1.003,-0.122,62633
0.012,-0.002,1.0,-0.183,62658
0.014,-0.003,1.001,-0.244,62684
0.014,-0.002,1.002,-0.305,62709
0.016,-0.002,1.003,-0.061,62734
0.016,-0.0,1.004,-0.305,62760
0.016,-0.0,1.004,-0.122,62785
0.015,0.0,1.003,-0.183,62813
0.015,0.001,1.001,-0.122,62836
0.013,-0.0,1.002,-0.122,62862
0.015,-0.003,1.001,-0.244,62886
0.013,-0.0,1.001,-0.122,62910
0.015,-0.003,1.002,-0.122,62937
0.015,-0.001,1.001,-0.305,62961
0.015,-0.002,1.003,-0.305,62989
0.013,-0.001,1.003,-0.244,63015
0.015,0.001,1.003,-0.061,63038
0.013,-0.002,0.999,-0.305,63063
0.016,-0.002,1.002,-0.244,63088
0.014,-0.001,1.002,-0.183,63112
0.014,-0.002,1.003,-0.244,63138
0.015,-0.003,1.003,-0.183,63163
0.015,-0.001,1.001,-0.183,63188
0.012,-0.0,1.002,-0.061,63213
0.013,0.0,1.002,-0.122,63237
0.013,-0.002,1.003,-0.244,63264
0.014,-0.002,1.004,-0.244,63289
0.016,-0.0,1.004,-0.183,63314
0.016,-0.001,1.002,-0.183,63339
0.015,-0.0,1.004,-0.183,63363
0.014,0.0,1.002,-0.183,63388
0.012,-0.001,1.001,-0.183,63411
0.013,-0.001,1.002,-0.122,63435
0.015,-0.003,1.002,-0.183,63461
0.016,-0.001,1.002,-0.061,63489
0.014,-0.002,1.005,-0.122,63516
0.013,-0.001,1.004,-0.183,63542
0.014,-0.002,1.002,-0.305,63568
0.013,0.001,1.002,-0.122,63594
0.014,0.0,1.002,-0.244,63622
0.013,-0.001,1.003,-0.122,63652
0.015,-0.003,1.003,-0.183,63679
0.016,-0.003,1.002,-0.305,63707
0.014,-0.002,1.003,-0.305,63733
0.013,-0.002,1.001,-0.366,63759
0.014,0.0,1.003,-0.244,63785
0.013,-0.001,1.003,-0.183,63812
0.015,0.001,1.003,-0.183,63837
0.017,-0.001,1.004,-0.122,63861
0.015,-0.001,1.002,-0.183,63886
0.015,-0.001,1.003,-0.244,63910
0.013,-0.001,1.002,-0.183,63935
0.014,-0.002,1.001,-0.305,63961
0.012,-0.002,1.003,-0.366,63985
0.013,-0.002,1.001,-0.183,64010
0.014,0.0,1.003,-0.061,64035
0.015,-0.002,1.001,-0.183,64060
0.014,-0.002,1.002,-0.183,64086
0.016,-0.0,1.002,-0.122,64110
0.015,-0.0,1.003,-0.122,64136
0.015,0.0,1.005,-0.122,64161
0.015,-0.001,1.002,-0.122,64185
0.014,-0.0,1.004,-0.305,64212
0.013,-0.003,1.0,-0.183,64241
0.015,-0.001,0.999,-0.122,64268
0.014,-0.003,1.003,-0.122,64292
0.016,-0.001,1.001,-0.305,64317
0.014,-0.001,1.002,-0.183,64342
0.014,-0.001,1.003,-0.244,64366
0.015,-0.002,1.001,-0.183,64391
0.016,-0.0,1.001,-0.305,64416
0.013,-0.003,1.002,-0.183,64442
0.015,0.001,1.0,-0.122,64468
0.015,0.0,1.002,-0.366,64492
0.014,-0.002,1.003,-0.122,64517
0.012,0.0,1.002,-0.183,64542
0.015,-0.001,1.002,-0.244,64568
0.014,-0.002,1.002,-0.183,64592
0.015,-0.002,1.002,-0.183,64618
0.016,-0.001,1.004,-0.244,64641
0.014,-0.001,1.001,-0.244,64671
0.014,0.001,1.002,-0.061,64696
0.016,-0.002,1.001,-0.183,64721
0.014,-0.001,1.003,-0.244,64750
0.015,-0.001,1.003,-0.183,64777
0.015,-0.001,1.001,-0.122,64802
0.014,-0.001,1.003,-0.122,64826
0.013,-0.002,1.001,-0.244,64852
0.015,-0.002,1.003,-0.061,64878
0.015,-0.001,1.004,-0.122,64904
0.014,-0.0,1.004,-0.183,64929
0.015,-0.001,1.002,-0.122,64957
0.015,-0.0,1.002,-0.183,64983
0.014,-0.0,1.003,-0.305,65008
0.014,-0.0,1.001,-0.183,65033
0.014,-0.001,1.001,-0.305,65057
0.014,-0.002,1.0,-0.122,65085
0.014,-0.001,1.003,-0.183,65112
0.016,-0.0,1.002,-0.305,65136
0.016,-0.002,1.004,-0.244,65162
0.016,-0.001,1.002,-0.122,65188
0.014,-0.002,1.002,-0.244,65213
0.016,-0.002,1.003,-0.244,65238
0.014,-0.001,1.001,-0.183,65264
0.013,-0.0,1.002,-0.183,65289
0.015,-0.002,1.001,-0.122,65314
0.015,-0.002,1.004,-0.244,65341
0.014,-0.0,1.003,-0.183,65370
0.014,-0.0,1.002,-0.061,65395
0.013,-0.001,1.002,-0.183,65422
0.014,-0.001,1.004,-0.244,65446
0.014,-0.001,1.002,-0.305,65472
0.015,0.0,1.002,-0.183,65499
0.014,-0.002,1.003,-0.305,65525
0.015,-0.003,1.003,-0.305,65548
0.016,-0.001,1.002,-0.305,65572
0.012,-0.002,1.002,-0.183,65596
0.013,-0.0,1.005,-0.122,65622
0.015,-0.001,1.001,-0.061,65648
0.016,-0.002,1.001,-0.244,65673
0.015,-0.0,1.004,-0.244,65697
0.016,-0.001,1.002,-0.366,65722
0.013,-0.002,1.002,-0.183,65748
0.014,-0.001,1.002,-0.366,65773
0.013,0.0,1.002,-0.183,65800
0.015,-0.002,1.002,-0.183,65827
0.015,-0.002,1.001,-0.244,65853
0.015,-0.001,1.002,-0.122,65879
0.015,-0.003,1.002,-0.183,65904
0.015,-0.001,1.001,-0.305,65933
0.014,-0.0,1.001,-0.244,65962
0.015,-0.001,1.003,-0.244,65987
0.015,-0.001,1.003,-0.122,66012
0.014,-0.001,1.002,-0.244,66037
0.014,-0.002,1.004,-0.183,66063
0.014,-0.001,1.003,-0.183,66089
0.013,-0.003,1.001,-0.244,66116
0.013,0.0,1.003,-0.183,66144
0.015,-0.001,1.001,-0.183,66168
0.012,-0.001,1.003,-0.427,66193
0.014,-0.001,1.002,-0.122,66218
0.015,-0.002,1.002,-0.061,66245
0.014,-0.002,1.001,-0.244,66271
0.015,0.0,1.003,-0.061,66298
0.014,-0.002,1.001,-0.122,66323
0.014,-0.002,1.002,-0.183,66346
0.014,-0.002,1.003,-0.305,66370
0.014,-0.0,1.001,-0.061,66399
0.014,0.0,1.001,-0.244,66426
0.014,-0.001,1.003,-0.305,66454
0.015,-0.001,1.003,-0.061,66479
0.013,0.0,1.002,-0.183,66503
0.015,-0.001,1.002,-0.305,66528
0.015,-0.001,1.002,-0.183,66553
0.016,-0.0,1.004,-0.305,66581
0.017,-0.0,1.002,-0.183,66610
0.015,-0.0,1.002,-0.122,66637
0.014,-0.001,1.005,-0.244,66664
0.015,-0.001,1.002,-0.244,66692
0.014,-0.001,1.003,-0.244,66720
0.014,-0.001,1.001,-0.183,66746
0.014,-0.001,1.002,-0.244,66771
0.015,-0.002,1.003,-0.061,66797
0.014,-0.002,1.002,-0.183,66822
0.014,-0.002,1.004,-0.183,66848
0.013,-0.002,1.001,-0.366,66873
0.013,-0.002,1.0,-0.122,66900
0.013,-0.001,1.002,-0.183,66924
0.013,-0.001,1.002,-0.244,66950
0.013,-0.001,1.003,-0.183,66973
0.014,-0.002,1.002,-0.305,66998
0.014,-0.0,1.002,-0.244,67022
0.016,-0.001,1.002,-0.305,67048
0.016,-0.001,1.004,-0.244,67073
0.016,-0.0,1.001,-0.122,67099
0.017,-0.001,1.002,-0.183,67124
0.016,-0.0,1.003,-0.244,67148
0.014,-0.001,1.002,-0.122,67175
0.015,-0.002,1.003,-0.122,67201
0.015,-0.002,1.001,-0.244,67226
0.013,-0.003,1.002,-0.244,67251
0.016,-0.003,1.002,-0.183,67277
0.015,0.0,1.003,-0.183,67301
0.014,-0.001,1.002,-0.122,67324
0.015,-0.0,1.002,-0.183,67350
0.014,-0.0,1.004,-0.122,67374
0.014,-0.002,1.001,-0.183,67399
0.015,-0.0,1.002,-0.244,67423
0.014,-0.003,1.001,-0.244,67448
0.013,-0.003,1.003,-0.244,67471
0.013,-0.002,1.003,-0.244,67497
0.013,-0.002,1.002,-0.183,67521
0.013,-0.0,1.001,-0.244,67545
0.015,-0.0,1.003,-0.122,67571
0.015,-0.0,1.004,-0.122,67596
0.016,-0.002,1.004,-0.183,67621
0.014,-0.001,1.001,-0.061,67646
0.014,-0.0,1.0,0.0,67671
0.013,-0.002,1.002,-0.122,67698
0.014,-0.002,1.0,-0.244,67724
0.015,-0.001,1.001,-0.305,67750
0.015,-0.002,1.003,-0.183,67777
0.015,-0.003,1.002,-0.122,67802
0.015,-0.002,1.002,-0.244,67827
0.015,0.0,1.003,-0.183,67850
0.014,-0.002,1.002,-0.122,67873
0.014,-0.001,1.001,-0.183,67897
0.014,-0.001,1.002,-0.244,67923
0.012,-0.001,1.003,-0.122,67948
0.014,-0.001,1.002,-0.122,67975
0.012,-0.0,1.003,-0.183,68000
0.014,0.0,1.002,-0.183,68024
0.015,-0.0,1.001,-0.244,68050
0.014,-0.0,1.003,-0.061,68074
0.013,-0.0,1.002,-0.183,68101
0.014,-0.001,1.001,0.0,68127
0.015,-0.001,1.002,-0.183,68152
0.014,-0.002,1.003,-0.122,68176
0.013,-0.002,1.0,-0.244,68203
0.015,-0.001,1.003,-0.122,68228
0.014,-0.0,1.002,-0.122,68251
0.013,-0.001,1.003,-0.122,68277
0.015,-0.002,1.001,-0.244,68304
0.013,-0.0,1.003,-0.183,68329
0.014,-0.0,1.002,-0.183,68352
0.014,-0.002,1.003,-0.183,68382
0.014,-0.001,1.002,-0.122,68406
0.013,-0.001,1.002,-0.061,68431
0.014,-0.0,1.001,-0.122,68457
0.015,-0.0,1.001,-0.061,68483
0.014,-0.001,1.002,-0.244,68508
0.015,-0.001,1.002,-0.244,68534
0.014,-0.001,1.003,-0.183,68559
0.015,-0.001,1.003,-0.244,68586
0.016,-0.0,1.004,-0.183,68609
0.015,-0.002,1.001,-0.244,68636
0.015,-0.001,1.002,-0.244,68661
0.013,-0.001,1.002,-0.366,68691
0.015,-0.002,1.002,-0.244,68715
0.014,-0.001,1.002,-0.183,68739
0.015,-0.002,1.003,-0.183,68765
0.015,-0.0,1.003,-0.122,68790
0.014,-0.001,1.003,-0.305,68815
0.015,-0.001,1.004,0.0,68840
0.015,-0.0,1.003,-0.183,68865
0.013,-0.001,1.0,-0.305,68891
0.013,-0.002,1.002,-0.061,68917
0.014,-0.002,1.002,-0.244,68944
0.014,-0.001,1.002,-0.183,68969
0.014,-0.003,1.002,-0.122,68994
0.015,-0.002,1.003,-0.244,69020
0.014,-0.001,1.003,-0.305,69046
0.014,0.0,1.002,-0.244,69070
0.015,-0.0,1.003,-0.183,69095
0.014,0.0,1.004,-0.122,69120
0.015,-0.002,1.003,-0.183,69143
0.013,-0.001,1.002,-0.244,69167
0.016,-0.003,1.001,-0.305,69191
0.015,-0.0,1.004,-0.244,69217
0.014,-0.002,1.002,-0.366,69243
0.015,-0.001,1.003,-0.244,69269
0.015,-0.0,1.002,-0.305,69294
0.015,0.0,1.001,-0.244,69320
0.015,-0.002,1.002,-0.183,69347
0.014,-0.001,1.002,-0.244,69372
0.015,-0.003,1.002,-0.183,69399
0.012,-0.001,1.002,-0.244,69423
0.013,-0.001,1.0,-0.183,69447
0.014,-0.001,1.004,-0.183,69471
0.013,-0.001,1.001,-0.183,69495
0.013,-0.001,1.002,-0.183,69519
0.015,-0.003,1.001,-0.244,69544
0.014,-0.0,1.003,-0.305,69570
0.014,-0.001,1.003,-0.244,69597
0.014,-0.001,1.001,-0.244,69620
0.015,-0.002,1.003,-0.122,69644
0.012,-0.001,1.002,-0.244,69668
0.013,-0.001,1.002,-0.244,69692
0.015,-0.002,1.002,-0.122,69716
0.015,-0.001,1.002,-0.244,69741
0.016,-0.002,1.004,-0.305,69766
0.017,-0.003,1.004,-0.183,69791
0.015,-0.0,1.002,-0.183,69816
0.016,-0.0,1.001,-0.366,69843
0.013,-0.001,1.001,-0.122,69867
0.012,-0.0,1.002,-0.061,69891
0.016,-0.002,1.002,-0.183,69914
0.014,-0.001,1.003,-0.122,69939
0.017,-0.001,1.003,-0.244,69964
0.014,-0.001,1.003,-0.305,69989
0.015,-0.002,1.001,-0.244,70013
0.013,-0.0,1.002,-0.183,70037
0.014,0.0,1.002,-0.183,70064
0.016,-0.001,1.002,-0.244,70090
0.014,-0.001,1.002,-0.244,70116
0.016,-0.001,1.001,-0.122,70141
0.015,-0.0,1.001,-0.183,70170
0.014,-0.001,1.003,-0.244,70197
0.015,0.0,1.002,-0.122,70222
0.012,-0.001,1.002,-0.305,70247
0.013,-0.001,1.002,-0.122,70271
0.014,-0.001,1.003,-0.122,70295
0.014,-0.0,1.003,-0.061,70318
0.013,-0.002,1.002,-0.244,70343
0.015,-0.001,1.003,-0.244,70368
0.015,-0.0,1.002,-0.244,70393
0.013,0.0,1.002,-0.183,70420
0.015,-0.002,1.001,-0.122,70446
0.015,-0.001,1.003,-0.244,70473
0.015,-0.001,1.003,-0.305,70499
0.014,-0.001,1.003,-0.183,70522
0.014,-0.002,1.001,-0.244,70546
0.015,-0.001,1.002,-0.183,70571
0.013,-0.001,1.003,0.0,70595
0.013,-0.001,1.001,-0.061,70619
0.014,-0.001,1.002,-0.366,70644
0.014,-0.001,1.0,-0.244,70668
0.013,0.0,1.001,-0.244,70694
0.014,-0.003,1.004,-0.122,70721
0.014,-0.001,0.999,-0.244,70747
0.014,-0.0,1.002,-0.183,70772
0.014,-0.001,1.001,-0.244,70799
0.014,-0.0,1.002,-0.183,70826
0.015,-0.001,1.003,-0.244,70851
0.014,-0.001,1.001,-0.244,70875
0.015,-0.002,1.002,-0.183,70899
0.016,-0.002,1.001,-0.183,70924
0.014,-0.001,1.003,-0.122,70951
0.013,-0.001,1.0,-0.244,70978
0.014,-0.002,1.002,-0.244,71002
0.014,-0.0,1.002,-0.244,71028
0.014,-0.001,1.005,-0.183,71054
0.015,-0.0,1.003,-0.183,71080
0.015,-0.001,1.002,-0.366,71105
0.013,0.0,1.002,-0.122,71130
0.013,-0.001,1.003,-0.061,71154
0.016,-0.001,1.001,-0.183,71180
0.015,-0.001,1.0,-0.244,71208
0.014,-0.002,1.004,-0.183,71231
0.015,-0.001,1.002,-0.122,71259
0.015,-0.002,1.002,-0.183,71285
0.015,-0.002,1.004,-0.183,71309
0.015,-0.001,1.002,-0.122,71336
0.014,-0.0,1.003,-0.305,71362
0.015,-0.001,1.001,-0.122,71387
0.014,-0.0,1.003,-0.122,71412
0.015,-0.001,1.002,-0.183,71436
0.016,-0.001,1.003,-0.122,71462
0.014,-0.001,1.004,-0.183,71490
0.014,-0.003,1.002,-0.244,71516
0.015,-0.001,1.003,-0.122,71541
0.014,-0.002,1.002,-0.183,71570
0.014,-0.001,1.004,-0.122,71596
0.015,-0.0,1.004,-0.305,71621
0.014,0.001,1.002,-0.183,71648
0.017,-0.002,1.002,-0.244,71673
0.012,-0.002,1.002,-0.366,71698
0.013,-0.002,1.001,-0.305,71722
0.014,-0.0,1.002,-0.183,71748
0.014,-0.002,1.002,-0.305,71774
0.016,-0.003,1.001,-0.244,71800
0.014,0.0,1.002,-0.183,71826
0.014,-0.002,1.002,-0.122,71852
0.016,0.001,1.002,-0.183,71876
0.015,-0.001,1.003,-0.366,71900
0.015,-0.001,1.001,-0.183,71925
0.014,-0.002,1.003,-0.122,71951
0.015,-0.002,1.002,-0.061,71976
0.015,-0.0,1.003,-0.183,72000
0.015,-0.003,1.002,-0.122,72025
0.014,-0.0,1.003,-0.244,72049
0.014,-0.002,1.002,-0.244,72074
0.015,-0.001,1.005,-0.122,72101
0.016,-0.002,1.002,-0.244,72127
0.015,-0.0,1.004,-0.122,72152
0.014,0.0,1.002,-0.122,72177
0.013,-0.003,1.002,-0.122,72201
0.016,-0.001,1.001,-0.183,72226
0.012,0.0,1.003,-0.122,72251
0.015,-0.001,1.002,-0.183,72274
0.012,-0.004,1.002,-0.183,72299
0.015,-0.0,1.001,-0.183,72325
0.014,-0.001,1.003,-0.183,72352
0.014,-0.002,1.003,-0.244,72375
0.014,-0.002,1.002,-0.122,72400
0.017,-0.0,1.004,-0.244,72425
0.014,-0.002,1.001,-0.122,72453
0.014,-0.002,1.004,-0.183,72480
0.014,-0.001,1.001,-0.183,72505
0.015,-0.001,1.002,-0.305,72531
0.015,-0.002,1.002,-0.122,72554
0.014,-0.001,1.001,-0.183,72579
0.016,-0.002,1.003,-0.183,72604
0.013,-0.001,1.002,-0.244,72628
0.014,-0.002,1.003,-0.305,72651
0.014,-0.001,1.002,-0.183,72677
0.015,-0.002,1.001,-0.305,72702
0.014,-0.001,1.002,-0.122,72726
0.015,-0.002,1.004,-0.122,72750
0.015,-0.002,1.001,-0.366,72774
0.014,-0.0,1.001,-0.305,72804
0.015,-0.0,1.002,-0.183,72831
0.014,-0.002,1.003,-0.122,72855
0.015,-0.0,1.002,-0.183,72881
0.014,-0.002,1.003,-0.061,72908
0.013,-0.001,1.003,-0.183,72933
0.014,-0.002,1.003,-0.305,72956
0.013,-0.001,1.004,-0.183,72981
0.015,-0.001,1.002,-0.183,73005
0.014,-0.001,1.003,-0.244,73031
0.014,0.0,1.002,-0.244,73056
0.014,-0.0,1.005,-0.183,73083
0.015,-0.002,1.0,-0.366,73111
0.012,-0.001,1.002,-0.183,73137
0.017,-0.002,1.003,-0.305,73162
0.015,-0.001,1.001,-0.305,73186
0.013,-0.0,1.0,-0.183,73212
0.014,-0.002,1.004,-0.183,73237
0.014,-0.001,1.004,-0.244,73262
0.013,-0.001,1.003,-0.305,73287
0.014,-0.0,1.003,-0.183,73315
0.013,-0.001,1.0,-0.183,73340
0.014,-0.001,1.003,-0.244,73363
0.015,-0.001,1.003,-0.183,73389
0.015,-0.002,1.002,-0.061,73416
0.014,-0.001,1.0,-0.183,73442
0.014,-0.003,1.003,-0.244,73467
0.014,-0.002,1.004,-0.244,73491
0.018,-0.001,1.003,-0.244,73517
0.016,-0.001,1.002,-0.244,73541
0.014,0.001,1.002,-0.122,73566
0.014,-0.0,1.003,-0.244,73591
0.014,-0.0,1.002,-0.122,73614
0.014,-0.001,1.002,-0.122,73639
0.014,-0.002,1.002,-0.305,73664
0.015,-0.002,1.001,-0.305,73690
0.015,-0.001,1.003,-0.244,73714
0.014,-0.002,1.002,-0.183,73740
0.016,0.0,1.001,-0.122,73766
0.015,-0.001,1.002,-0.244,73790
0.015,-0.002,1.003,-0.061,73814
0.013,-0.0,1.003,-0.183,73838
0.015,-0.001,1.002,-0.244,73865
0.014,-0.002,1.002,-0.122,73891
0.015,-0.003,1.003,-0.122,73917
0.015,-0.002,1.002,-0.366,73943
0.014,-0.001,1.001,-0.183,73967
0.014,-0.001,1.004,-0.183,73992
0.015,0.0,1.002,-0.183,74016
0.015,-0.0,1.004,-0.244,74041
0.014,-0.002,1.004,-0.244,74069
0.014,-0.003,1.001,-0.183,74095
0.014,-0.0,1.004,-0.305,74121
0.014,-0.002,1.003,-0.366,74145
0.014,-0.001,1.003,-0.244,74170
0.015,0.0,1.002,-0.183,74195
0.015,-0.0,1.0,-0.183,74221
0.013,-0.001,1.002,-0.427,74244
0.015,-0.001,1.003,-0.183,74268
0.016,-0.002,1.003,-0.122,74294
0.013,-0.001,1.002,-0.244,74319
0.014,-0.001,1.002,-0.244,74344
0.014,-0.002,1.003,-0.122,74371
0.015,0.0,1.003,-0.183,74394
0.013,-0.002,1.002,-0.183,74418
0.014,-0.001,1.003,-0.183,74444
0.015,-0.0,1.004,-0.244,74468
0.015,-0.002,1.004,-0.244,74491
0.015,-0.003,1.002,-0.122,74516
0.015,-0.001,1.003,-0.122,74539
0.014,0.0,1.002,-0.183,74565
0.015,-0.002,1.003,-0.244,74591
0.012,0.0,1.0,-0.061,74617
0.014,-0.002,1.002,-0.183,74642
0.014,-0.001,1.004,-0.122,74670
0.014,-0.001,1.003,-0.244,74696
0.014,-0.0,1.002,-0.122,74722
0.015,-0.001,1.001,-0.305,74748
0.015,-0.001,1.001,-0.122,74772
0.015,0.001,1.003,-0.183,74795
0.013,0.0,1.002,-0.122,74822
0.014,-0.001,1.002,-0.305,74848
0.013,-0.002,1.002,-0.305,74872
0.014,-0.002,1.003,-0.122,74897
0.017,-0.002,1.003,-0.183,74922
0.013,-0.0,1.001,-0.305,74949
0.012,0.0,1.003,-0.122,74974
0.014,-0.001,1.002,-0.061,74999
0.015,0.0,1.002,-0.305,75022
0.015,-0.001,1.002,-0.183,75048
0.015,-0.001,1.002,-0.183,75076
0.015,-0.002,1.003,-0.305,75102
0.014,-0.0,1.002,-0.183,75126
0.015,-0.001,1.003,-0.122,75152
0.014,-0.001,1.002,-0.122,75176
0.015,0.0,1.002,-0.183,75201
0.015,-0.003,1.002,-0.061,75225
0.015,-0.001,1.002,-0.061,75248
0.014,-0.003,1.001,-0.305,75273
0.014,-0.0,1.003,-0.305,75299
0.015,0.0,1.003,-0.305,75325
0.014,-0.002,1.002,-0.244,75348
0.014,0.0,1.002,-0.183,75374
0.014,-0.002,1.003,-0.183,75398
0.015,-0.002,1.001,-0.305,75424
0.013,-0.001,1.003,-0.183,75450
0.015,-0.001,1.002,-0.305,75478
0.014,-0.002,1.002,-0.122,75504
0.014,-0.001,1.002,-0.244,75528
0.014,-0.001,1.002,-0.183,75553
0.013,0.001,1.003,-0.122,75579
0.015,-0.0,1.002,-0.305,75608
0.014,-0.001,1.002,-0.122,75632
0.014,-0.003,1.002,-0.122,75658
0.015,-0.0,1.0,-0.183,75682
0.014,-0.002,1.002,-0.305,75707
0.014,-0.0,1.003,-0.244,75734
0.015,-0.001,1.002,-0.305,75761
0.013,-0.001,1.003,-0.244,75789
0.015,-0.001,1.002,-0.244,75814
0.016,-0.001,1.002,-0.244,75840
0.013,-0.001,1.002,-0.183,75868
0.014,-0.001,1.002,-0.244,75893
0.013,0.0,1.003,-0.244,75919
0.014,-0.001,1.001,-0.183,75945
0.013,-0.0,1.003,-0.122,75970
0.014,-0.001,1.003,-0.244,75995
0.016,-0.002,1.003,-0.305,76019
0.013,-0.002,1.003,-0.244,76043
0.016,-0.002,1.003,-0.244,76070
0.015,-0.001,1.002,-0.244,76097
0.015,0.0,1.002,-0.061,76120
0.015,-0.002,1.001,-0.122,76145
0.014,0.0,1.003,-0.122,76171
0.014,-0.001,1.004,-0.122,76196
0.014,-0.002,1.003,-0.244,76220
0.014,-0.001,1.003,-0.122,76247
0.016,0.001,1.003,-0.183,76274
0.014,0.0,1.003,-0.305,76299
0.013,-0.001,1.002,-0.366,76324
0.014,-0.002,1.003,-0.183,76349
0.015,-0.001,1.004,-0.061,76377
0.013,-0.001,1.002,-0.244,76404
0.015,-0.0,1.001,-0.244,76430
0.015,-0.002,1.001,-0.305,76455
0.016,-0.002,1.003,-0.122,76482
0.015,-0.001,1.004,-0.183,76506
0.014,-0.001,1.002,-0.183,76530
0.015,-0.002,1.003,-0.183,76555
0.014,-0.001,1.002,-0.122,76582
0.014,-0.003,1.003,0.0,76607
0.016,-0.002,1.0,-0.183,76634
0.014,-0.002,1.002,-0.183,76660
0.015,-0.002,1.002,-0.305,76685
0.015,-0.001,1.001,-0.183,76713
0.013,-0.002,1.002,-0.183,76738
0.013,-0.001,1.002,-0.183,76765
0.014,-0.002,1.004,-0.305,76793
0.015,-0.0,1.002,-0.122,76818
0.015,-0.001,1.002,-0.183,76843
0.016,-0.003,1.002,-0.183,76868
0.016,-0.003,1.003,-0.183,76893
0.013,-0.001,1.003,-0.122,76917
0.016,-0.001,1.001,-0.122,76941
0.014,0.001,1.002,-0.305,76966
0.014,-0.001,1.003,-0.244,76992
0.015,-0.0,1.003,0.0,77016
0.013,-0.001,1.0,-0.061,77040
0.014,-0.002,1.002,-0.305,77067
0.013,-0.003,1.004,-0.183,77094
0.014,0.0,1.002,-0.122,77119
0.015,0.0,1.002,-0.183,77147
0.015,-0.002,1.003,-0.122,77174
0.013,-0.0,1.003,-0.183,77199
0.014,-0.002,1.004,-0.244,77223
0.015,-0.001,1.002,-0.244,77250
0.015,-0.002,1.002,-0.183,77273
0.015,-0.001,1.002,-0.122,77298
0.013,-0.001,1.003,-0.183,77321
0.016,-0.0,1.003,-0.183,77345
0.015,-0.002,1.003,-0.061,77370
0.013,-0.001,1.002,-0.305,77395
0.015,-0.001,1.003,-0.122,77421
0.015,-0.003,1.001,-0.244,77444
0.016,-0.002,1.003,0.0,77470
0.014,-0.0,1.002,-0.061,77497
0.014,-0.001,1.002,-0.366,77522
0.013,-0.002,1.003,-0.122,77550
0.014,0.001,1.004,-0.061,77578
0.014,-0.002,1.002,-0.305,77602
0.015,-0.002,1.002,-0.305,77628
0.014,-0.002,1.002,-0.122,77655
0.015,-0.001,1.002,-0.183,77678
0.014,-0.002,1.003,-0.244,77703
0.015,-0.0,1.002,-0.183,77730
0.015,-0.0,1.004,-0.122,77756
0.015,-0.0,1.002,-0.183,77779
0.014,-0.001,1.002,-0.305,77805
0.016,-0.002,1.001,-0.183,77828
0.015,-0.002,1.001,-0.183,77854
0.015,-0.001,1.002,-0.183,77877
0.014,-0.0,1.003,-0.305,77902
0.012,-0.0,1.002,-0.244,77926
0.014,-0.001,1.003,-0.244,77951
0.015,-0.001,1.002,-0.183,77978
0.014,-0.001,1.002,-0.366,78003
0.015,-0.002,1.004,-0.244,78028
0.015,-0.002,1.001,-0.183,78052
0.013,-0.0,1.003,-0.305,78078
0.014,-0.001,1.004,-0.305,78101
0.015,0.0,1.002,-0.244,78124
0.016,-0.001,1.005,-0.183,78153
0.015,-0.002,1.001,-0.122,78178
0.015,-0.002,1.002,-0.122,78207
0.013,-0.001,1.003,-0.122,78235
0.015,-0.001,1.004,-0.122,78259
0.015,-0.0,1.003,-0.183,78283
0.013,-0.002,1.0,-0.122,78307
0.015,-0.002,1.003,-0.183,78332
0.014,-0.003,1.002,-0.122,78358
0.013,-0.002,1.002,-0.183,78383
0.014,-0.003,1.003,-0.183,78409
0.014,-0.001,1.003,-0.244,78435
0.014,-0.002,1.004,-0.122,78459
0.015,-0.002,1.0,-0.122,78483
0.016,-0.0,1.002,-0.305,78511
0.012,-0.001,1.003,-0.122,78537
0.015,-0.002,1.003,-0.244,78561
0.015,-0.0,1.004,-0.305,78585
0.014,-0.003,1.002,-0.244,78613
0.013,-0.001,1.004,-0.183,78639
0.016,-0.001,1.001,-0.244,78666
0.014,-0.001,1.002,-0.183,78693
0.015,-0.002,1.004,-0.122,78718
0.013,-0.0,1.0,-0.244,78742
0.015,-0.0,1.002,-0.183,78767
0.016,-0.002,1.003,-0.061,78794
0.013,-0.001,1.002,-0.183,78819
0.014,-0.001,1.002,-0.244,78844
0.015,-0.001,1.002,-0.122,78871
