Acc_X,Acc_Y,Acc_Z,Rot_Z,Millis
0.015,-0.002,1.002,-0.122,78896
0.014,-0.002,1.002,-0.244,78922
0.014,-0.002,1.002,-0.244,78946
0.013,-0.002,1.002,-0.244,78970
0.013,-0.003,1.0,-0.183,78994
0.015,-0.004,1.002,-0.183,79022
0.013,-0.002,1.002,-0.244,79046
0.014,-0.001,1.003,-0.183,79073
0.014,0.0,1.003,-0.183,79098
0.015,-0.002,1.002,-0.122,79124
0.014,0.0,1.002,-0.183,79152
0.012,-0.001,1.002,-0.244,79180
0.016,-0.003,1.002,-0.305,79206
0.014,-0.002,1.002,-0.244,79230
0.013,-0.001,1.003,-0.183,79256
0.016,-0.001,1.003,-0.183,79282
0.014,-0.001,1.0,-0.122,79306
0.014,-0.002,1.003,-0.244,79332
0.014,-0.0,1.001,-0.061,79357
0.014,-0.002,1.004,-0.305,79384
0.016,-0.001,1.0,-0.244,79408
0.016,-0.002,1.002,-0.122,79433
0.014,-0.002,1.005,-0.244,79458
0.014,-0.0,1.004,-0.244,79483
0.015,-0.002,1.003,-0.183,79507
0.015,-0.0,1.003,-0.183,79533
0.015,-0.001,1.003,-0.122,79560
0.015,-0.002,1.002,-0.244,79586
0.015,-0.001,1.004,-0.305,79611
0.013,-0.0,1.002,-0.061,79638
0.014,-0.002,1.002,-0.366,79662
0.016,-0.003,1.002,-0.305,79686
0.012,-0.003,1.002,-0.061,79713
0.017,0.0,1.003,-0.061,79738
0.013,-0.0,1.001,-0.305,79763
0.013,-0.002,1.002,-0.183,79788
0.014,-0.001,1.003,-0.061,79812
0.014,-0.002,1.002,-0.366,79837
0.014,-0.003,1.003,-0.122,79863
0.014,-0.001,1.002,-0.122,79888
0.015,-0.0,1.004,-0.244,79912
0.015,-0.0,1.002,-0.183,79937
0.012,-0.001,1.002,-0.244,79964
0.014,-0.001,1.002,-0.183,79992
0.017,-0.0,1.003,-0.305,80018
0.015,-0.002,1.003,-0.122,80042
0.013,-0.001,1.003,-0.183,80071
0.014,-0.0,1.003,-0.061,80097
0.014,0.0,1.002,-0.244,80122
0.015,-0.001,1.003,-0.183,80147
0.014,-0.001,1.002,-0.061,80173
0.014,-0.0,1.001,-0.427,80196
0.014,-0.002,1.004,-0.183,80220
0.012,-0.002,1.002,-0.244,80246
0.015,-0.001,1.001,-0.305,80275
0.014,-0.0,1.003,-0.183,80299
0.014,-0.002,1.004,-0.305,80323
0.013,-0.002,1.004,-0.183,80348
0.014,-0.002,1.001,-0.183,80374
0.016,-0.001,1.001,-0.244,80403
0.014,-0.001,1.002,-0.244,80428
0.014,-0.001,1.002,-0.122,80453
0.015,-0.001,1.001,-0.244,80478
0.016,0.001,1.003,-0.183,80502
0.016,-0.001,1.001,-0.122,80526
0.015,-0.002,1.004,-0.305,80551
0.017,-0.001,1.002,-0.061,80575
0.014,-0.001,1.003,-0.122,80602
0.014,-0.001,1.002,-0.122,80629
0.013,-0.002,1.002,-0.122,80655
0.016,-0.001,1.004,-0.122,80680
0.013,-0.001,1.002,-0.244,80704
0.013,-0.0,1.002,-0.244,80732
0.015,-0.001,1.0,-0.244,80759
0.014,0.0,1.004,-0.244,80783
0.013,-0.002,1.002,-0.183,80807
0.014,-0.001,1.004,-0.183,80830
0.015,-0.001,1.002,-0.244,80854
0.014,-0.001,1.003,-0.305,80881
0.014,-0.001,1.002,-0.305,80906
0.015,-0.001,1.002,-0.183,80932
0.014,-0.001,1.002,-0.183,80959
0.014,-0.001,1.002,-0.305,80989
0.016,-0.0,1.003,-0.061,81015
0.014,-0.0,1.002,-0.244,81042
0.016,-0.002,1.001,-0.305,81067
0.013,-0.001,1.003,-0.122,81094
0.013,-0.002,1.002,-0.244,81121
0.014,-0.001,1.002,-0.183,81145
0.015,-0.001,1.001,-0.366,81171
0.014,0.0,1.004,-0.305,81196
0.014,-0.001,1.003,-0.122,81220
0.015,-0.001,1.002,-0.427,81244
0.016,0.0,1.002,-0.183,81270
0.014,-0.001,1.003,-0.183,81294
0.014,0.0,1.003,-0.488,81321
0.015,-0.002,1.0,-0.305,81345
0.014,-0.001,1.003,-0.183,81370
0.015,-0.002,1.002,-0.305,81396
0.014,-0.0,1.002,-0.366,81425
0.015,-0.0,1.003,-0.183,81449
0.015,-0.001,1.001,-0.183,81473
0.015,-0.001,1.003,-0.183,81498
0.016,-0.0,1.004,-0.183,81525
0.015,-0.001,1.003,-0.183,81551
0.014,-0.001,1.003,-0.244,81577
0.015,-0.002,1.003,-0.244,81601
0.014,-0.001,1.002,-0.183,81626
0.014,-0.001,1.002,-0.061,81650
0.013,-0.002,1.001,-0.244,81675
0.014,-0.0,1.001,-0.183,81699
0.015,-0.002,1.004,-0.244,81725
0.014,-0.001,1.001,-0.183,81750
0.016,-0.001,1.002,-0.244,81776
0.014,-0.001,1.003,-0.183,81804
0.014,-0.0,1.002,-0.244,81829
0.014,-0.002,1.002,-0.061,81854
0.014,-0.002,1.0,-0.305,81878
0.013,-0.002,1.003,-0.305,81903
0.014,-0.001,1.002,-0.183,81927
0.013,-0.001,1.004,-0.305,81953
0.014,-0.001,1.002,-0.061,81978
0.013,-0.001,1.001,-0.244,82003
0.014,-0.0,1.004,-0.183,82027
0.014,-0.001,1.005,-0.122,82050
0.016,-0.002,1.001,-0.183,82075
0.015,-0.001,1.002,-0.244,82102
0.016,-0.001,1.002,-0.244,82129
0.015,-0.002,1.004,-0.244,82156
0.015,-0.001,1.001,-0.244,82181
0.015,-0.001,1.002,-0.427,82207
0.015,-0.0,1.005,-0.183,82233
0.016,-0.0,1.002,-0.122,82258
0.014,-0.001,1.001,-0.244,82285
0.014,-0.0,1.003,-0.061,82310
0.015,-0.001,1.002,-0.183,82336
0.015,-0.002,1.002,-0.244,82359
0.014,-0.001,1.001,-0.244,82384
0.014,-0.001,1.002,-0.305,82409
0.014,-0.003,1.001,-0.183,82432
0.014,-0.0,1.003,-0.122,82456
0.014,-0.003,1.0,-0.244,82481
0.014,-0.002,1.003,-0.244,82507
0.013,-0.0,1.002,-0.183,82532
0.014,-0.001,1.002,-0.244,82561
0.015,-0.001,1.002,-0.244,82585
0.014,-0.001,1.005,-0.122,82612
0.013,-0.001,1.002,-0.122,82639
0.012,-0.0,1.003,-0.122,82665
0.013,-0.001,1.003,-0.061,82689
0.015,-0.001,1.003,-0.183,82715
0.015,-0.001,1.001,-0.244,82738
0.016,-0.0,1.003,-0.244,82764
0.016,-0.001,1.001,-0.244,82790
0.015,-0.002,1.003,-0.183,82815
0.015,-0.0,1.003,-0.305,82842
0.014,-0.001,1.002,-0.244,82867
0.015,-0.003,1.002,-0.183,82892
0.015,-0.001,1.003,-0.061,82919
0.015,-0.0,1.0,-0.305,82945
0.015,-0.001,1.002,-0.183,82970
0.015,-0.0,1.004,-0.122,82995
0.014,-0.001,1.001,-0.244,83021
0.014,-0.0,1.001,-0.122,83048
0.015,-0.001,1.003,-0.122,83073
0.014,-0.001,1.004,-0.122,83098
0.014,-0.001,1.001,-0.183,83122
0.014,-0.001,1.002,-0.122,83146
0.014,-0.001,1.003,-0.122,83171
0.013,-0.003,1.003,-0.061,83197
0.015,-0.001,1.0,-0.122,83224
0.014,-0.001,1.003,-0.305,83249
0.014,-0.002,1.003,-0.122,83277
0.015,-0.0,1.001,-0.122,83302
0.013,-0.001,1.001,-0.244,83325
0.013,-0.002,1.003,-0.183,83348
0.016,-0.002,1.003,-0.122,83372
0.013,-0.002,1.002,-0.122,83396
0.015,-0.001,1.003,-0.183,83423
0.014,-0.003,1.003,-0.061,83450
0.013,-0.001,1.004,-0.122,83478
0.014,0.0,1.002,-0.244,83502
0.017,-0.002,1.001,-0.122,83527
0.013,-0.0,1.004,-0.244,83552
0.015,-0.002,1.001,-0.244,83577
0.015,-0.001,1.003,-0.366,83602
0.014,-0.001,1.0,-0.305,83626
0.014,-0.001,1.003,-0.183,83649
0.014,0.0,1.002,-0.305,83675
0.013,-0.001,1.003,-0.305,83699
0.013,-0.001,1.0,-0.244,83722
0.014,-0.001,1.003,-0.122,83746
0.014,-0.003,1.001,-0.244,83771
0.014,-0.002,1.002,-0.183,83796
0.014,-0.0,1.003,-0.244,83821
0.014,-0.0,1.002,-0.244,83845
0.014,-0.0,1.001,-0.122,83869
0.014,0.0,1.003,-0.061,83892
0.015,-0.001,1.004,-0.244,83916
0.014,-0.001,1.002,-0.305,83942
0.014,0.0,1.001,-0.366,83967
0.013,-0.002,1.001,-0.183,83992
0.014,-0.0,1.001,-0.244,84019
0.014,-0.002,1.004,-0.244,84044
0.014,0.0,1.001,-0.122,84069
0.014,-0.002,1.001,-0.061,84095
0.014,0.001,1.001,-0.061,84118
0.014,-0.001,1.001,-0.183,84142
0.013,-0.001,1.002,-0.122,84168
0.016,-0.001,1.001,0.0,84194
0.016,-0.003,1.002,-0.122,84220
0.014,-0.001,1.001,-0.244,84246
0.015,-0.001,1.0,-0.183,84272
0.014,-0.001,1.002,0.0,84295
0.013,-0.001,1.0,-0.244,84320
0.015,-0.001,1.003,-0.183,84344
0.013,-0.0,1.001,-0.183,84370
0.015,-0.001,1.003,0.061,84395
0.014,-0.002,1.003,-0.183,84420
0.016,-0.001,1.002,-0.244,84444
0.015,-0.001,1.001,-0.366,84469
0.013,-0.002,1.004,-0.183,84492
0.014,-0.0,1.002,-0.244,84517
0.012,-0.001,1.002,-0.183,84544
0.015,-0.002,1.002,-0.061,84570
0.014,-0.001,1.003,-0.183,84593
0.016,-0.003,1.002,-0.183,84620
0.016,-0.002,1.001,-0.244,84647
0.014,0.001,1.003,-0.122,84672
0.015,-0.0,1.004,-0.183,84696
0.014,-0.0,1.002,-0.244,84723
0.014,-0.0,1.001,-0.183,84749
0.012,-0.002,1.001,-0.244,84776
0.014,-0.002,1.002,-0.366,84800
0.013,-0.001,1.002,-0.366,84824
0.015,-0.0,1.003,-0.183,84849
0.015,0.001,1.001,-0.122,84875
0.016,-0.0,1.004,-0.244,84901
0.014,-0.002,1.002,-0.183,84927
0.013,-0.0,1.003,-0.183,84953
0.015,-0.003,1.003,-0.244,84978
0.014,-0.001,1.001,-0.305,85002
0.013,-0.002,1.003,-0.183,85028
0.015,-0.0,1.0,-0.183,85055
0.014,-0.002,1.003,-0.244,85081
0.015,-0.001,1.003,-0.244,85107
0.015,-0.001,1.004,-0.061,85132
0.015,-0.001,1.003,-0.122,85156
0.015,-0.001,1.002,-0.244,85180
0.014,-0.001,1.004,-0.183,85204
0.013,-0.002,1.001,-0.183,85230
0.013,-0.0,1.0,-0.122,85256
0.014,-0.001,1.003,-0.183,85282
0.014,-0.001,1.001,-0.061,85306
0.014,-0.001,1.002,-0.244,85332
0.014,-0.001,1.001,-0.183,85357
0.015,-0.001,1.002,-0.183,85382
0.015,-0.001,1.001,-0.183,85407
0.014,-0.001,1.003,-0.183,85430
0.014,-0.001,1.001,-0.183,85456
0.013,0.0,1.002,-0.061,85481
0.014,0.0,1.004,-0.061,85508
0.012,-0.001,1.002,-0.183,85533
0.013,-0.002,1.004,-0.122,85558
0.015,-0.003,1.001,-0.305,85581
0.015,-0.001,1.003,-0.183,85608
0.013,-0.001,1.003,-0.122,85632
0.014,-0.0,1.003,-0.305,85657
0.014,-0.001,1.001,-0.305,85681
0.014,0.0,1.001,-0.061,85704
0.015,-0.001,1.003,-0.244,85730
0.015,0.0,1.003,-0.122,85754
0.015,-0.002,1.002,-0.183,85778
0.014,-0.001,1.003,-0.244,85802
0.015,-0.001,1.002,-0.244,85827
0.015,0.001,1.004,-0.244,85854
0.012,-0.001,1.002,-0.244,85882
0.016,-0.0,1.002,-0.244,85909
0.013,-0.002,1.002,-0.183,85933
0.015,-0.001,1.005,-0.244,85958
0.014,-0.0,1.002,-0.366,85982
0.015,-0.001,1.003,-0.183,86009
0.014,-0.002,1.002,-0.183,86032
0.014,-0.0,1.002,-0.183,86058
0.013,0.0,1.001,-0.183,86081
0.014,-0.001,1.002,-0.061,86109
0.014,0.0,1.0,-0.366,86133
0.015,-0.002,1.003,-0.183,86159
0.015,-0.001,1.002,-0.183,86184
0.015,-0.003,1.004,-0.244,86211
0.015,-0.001,1.002,-0.122,86235
0.015,-0.0,1.001,-0.183,86259
0.014,-0.001,1.002,-0.122,86287
0.015,0.0,1.002,-0.183,86311
0.015,-0.002,1.003,-0.244,86336
0.014,-0.002,1.003,-0.183,86361
0.016,-0.0,1.001,-0.305,86385
0.015,-0.001,1.003,-0.244,86414
0.014,-0.002,1.002,-0.305,86441
0.014,-0.001,1.002,-0.061,86465
0.015,-0.001,1.002,-0.244,86489
0.013,-0.002,1.002,-0.244,86514
0.014,-0.001,1.003,-0.305,86542
0.016,-0.003,1.003,-0.122,86567
0.013,-0.0,1.003,-0.305,86590
0.013,-0.001,1.003,-0.183,86616
0.014,0.001,1.003,-0.244,86640
0.015,-0.001,1.002,-0.122,86667
0.014,-0.001,1.002,-0.122,86692
0.014,-0.002,1.003,-0.183,86717
0.014,-0.002,1.003,-0.183,86743
0.014,-0.002,1.004,-0.305,86767
0.014,-0.0,1.002,-0.183,86791
0.015,-0.0,1.003,-0.122,86818
0.014,-0.001,1.003,-0.183,86845
0.015,-0.0,1.001,-0.183,86869
0.014,-0.002,1.002,-0.061,86894
0.014,-0.001,1.003,-0.183,86919
0.014,-0.002,1.002,-0.183,86946
0.015,-0.002,1.003,-0.183,86971
0.013,0.0,1.002,-0.183,86995
0.016,0.0,1.003,-0.183,87020
0.015,-0.001,1.003,-0.183,87043
0.014,-0.001,1.004,-0.183,87068
0.014,-0.0,1.002,-0.061,87094
0.015,-0.002,1.003,-0.244,87121
0.015,-0.001,1.004,-0.183,87149
0.015,-0.001,1.003,-0.183,87173
0.014,-0.003,1.003,-0.122,87198
0.014,-0.001,1.004,-0.183,87224
0.015,-0.001,1.003,-0.244,87248
0.014,-0.002,1.002,-0.305,87275
0.015,-0.001,1.002,-0.183,87300
0.013,-0.002,1.003,-0.183,87324
0.014,-0.002,1.002,-0.427,87350
0.014,-0.001,1.003,-0.122,87375
0.015,-0.0,1.002,-0.366,87400
0.015,-0.002,1.001,-0.183,87426
0.015,-0.001,1.003,-0.244,87455
0.015,-0.002,1.004,-0.305,87482
0.015,-0.0,1.001,-0.305,87506
0.016,-0.002,1.002,-0.305,87530
0.015,0.0,1.002,-0.244,87558
0.015,-0.002,1.003,-0.244,87584
0.015,-0.001,1.003,-0.244,87608
0.015,0.0,1.003,-0.305,87632
0.014,0.0,1.002,-0.183,87659
0.015,-0.003,1.003,-0.183,87685
0.016,-0.001,1.003,-0.061,87711
0.015,-0.002,1.002,-0.244,87737
0.015,-0.001,1.003,-0.244,87763
0.015,-0.001,1.004,-0.183,87790
0.014,-0.001,1.003,-0.244,87818
0.014,0.001,1.002,-0.183,87844
0.014,-0.001,1.003,-0.122,87869
0.016,-0.0,1.003,-0.244,87895
0.015,-0.001,1.002,-0.183,87920
0.014,-0.001,1.002,-0.244,87945
0.015,-0.002,1.002,-0.244,87970
0.014,-0.0,1.003,-0.305,87995
0.014,-0.002,1.002,-0.305,88019
0.014,-0.001,1.003,-0.122,88044
0.016,0.0,1.003,-0.061,88069
0.015,0.0,1.003,-0.305,88094
0.015,-0.0,1.001,-0.183,88120
0.014,-0.001,1.001,-0.305,88146
0.014,-0.002,1.003,-0.183,88172
0.015,-0.001,1.002,-0.244,88198
0.013,-0.001,1.003,-0.183,88224
0.014,-0.003,1.001,-0.122,88248
0.014,-0.001,1.003,-0.183,88272
0.014,-0.002,1.002,-0.305,88297
0.015,-0.0,1.002,-0.244,88322
0.015,-0.001,1.003,-0.244,88349
0.015,0.0,1.003,-0.183,88373
0.014,-0.001,1.003,-0.122,88398
0.013,-0.002,1.003,-0.183,88422
0.013,-0.003,1.002,-0.183,88445
0.014,-0.002,1.002,-0.244,88469
0.015,-0.002,1.003,-0.061,88496
0.015,-0.001,1.001,-0.183,88525
0.014,-0.001,1.003,-0.122,88549
0.015,-0.002,1.003,-0.122,88575
0.012,0.002,1.003,-0.122,88601
0.014,-0.0,1.002,-0.244,88626
0.015,-0.0,1.001,0.0,88649
0.015,-0.002,1.003,0.0,88677
0.017,-0.001,1.002,-0.244,88704
0.015,-0.001,1.002,-0.244,88730
0.014,-0.002,1.002,-0.305,88755
0.013,-0.002,1.001,-0.244,88780
0.013,-0.002,1.002,-0.244,88806
0.013,-0.002,1.003,-0.244,88833
0.015,-0.001,1.003,-0.183,88857
0.017,-0.002,1.002,-0.183,88883
0.014,-0.001,1.001,-0.122,88906
0.015,-0.001,1.003,-0.244,88931
0.015,-0.001,1.003,-0.244,88958
0.014,-0.002,1.001,-0.244,88983
0.014,-0.001,1.001,-0.305,89007
0.013,-0.001,1.003,-0.122,89033
0.015,-0.002,1.003,-0.244,89060
0.015,-0.002,1.002,-0.244,89084
0.014,-0.002,1.003,-0.061,89109
0.014,0.0,1.002,-0.183,89134
0.014,-0.001,1.003,-0.366,89162
0.014,-0.001,1.003,-0.244,89187
0.014,-0.002,1.001,-0.305,89213
0.015,-0.001,1.003,-0.244,89237
0.014,-0.003,1.002,-0.183,89260
0.017,-0.003,1.002,-0.183,89291
0.012,-0.002,1.001,-0.244,89317
0.015,-0.001,1.001,-0.061,89342
0.013,-0.001,1.001,0.0,89368
0.014,-0.0,1.001,-0.244,89394
0.016,-0.001,1.003,-0.244,89418
0.015,-0.001,1.002,-0.305,89444
0.015,-0.003,1.001,-0.183,89470
0.015,-0.002,1.001,-0.244,89498
0.015,-0.002,1.002,-0.305,89523
0.014,-0.002,1.003,-0.244,89549
0.014,-0.0,1.002,-0.244,89576
0.017,-0.0,1.004,-0.183,89602
0.014,-0.001,1.004,-0.183,89629
0.015,-0.002,1.003,-0.122,89654
0.015,-0.001,1.002,-0.244,89680
0.014,-0.001,1.004,-0.183,89707
0.014,-0.001,1.002,-0.183,89736
0.015,-0.001,1.001,-0.305,89762
0.014,-0.002,1.001,-0.122,89786
0.013,-0.0,1.001,-0.061,89812
0.015,-0.002,1.001,-0.183,89836
0.016,-0.001,1.004,-0.244,89860
0.014,-0.002,1.002,-0.366,89886
0.015,-0.001,1.002,-0.061,89910
0.014,-0.001,1.002,-0.122,89937
0.015,-0.001,1.003,-0.244,89962
0.015,0.0,1.002,-0.366,89988
0.014,-0.002,1.005,-0.122,90015
0.014,-0.001,1.002,-0.244,90041
0.014,-0.001,1.002,-0.366,90066
0.014,-0.001,1.005,-0.183,90092
0.014,-0.001,1.003,-0.244,90117
0.015,-0.001,1.003,-0.305,90141
0.014,0.001,1.002,-0.305,90167
0.014,-0.003,1.004,-0.183,90194
0.015,-0.002,1.003,-0.244,90219
0.017,0.001,1.002,-0.183,90244
0.013,-0.001,1.002,-0.183,90269
0.013,-0.001,1.001,-0.183,90295
0.015,-0.001,1.003,-0.183,90324
0.014,-0.001,1.002,-0.244,90351
0.014,-0.002,1.001,-0.122,90376
0.013,-0.004,1.002,-0.122,90401
0.014,0.0,1.004,-0.122,90424
0.015,0.0,1.004,-0.244,90451
0.017,0.001,1.01,-0.061,90476
0.019,0.002,1.008,-0.183,90503
0.016,0.005,1.004,1.709,90530
0.016,-0.001,1.003,0.977,90555
0.014,-0.003,1.002,-0.305,90580
0.012,-0.013,1.025,-21.973,90606
-0.0,0.002,0.992,7.874,90631
0.007,-0.004,1.012,-2.563,90657
0.017,-0.007,1.012,0.122,90681
0.015,-0.001,1.0,-0.793,90709
0.017,-0.002,1.006,0.244,90734
0.013,0.004,0.998,0.244,90760
0.014,-0.004,1.008,-0.793,90785
0.011,-0.006,1.004,0.244,90812
0.011,-0.004,0.998,-0.244,90838
0.01,-0.006,1.002,-0.427,90864
0.011,-0.006,1.001,-0.183,90889
0.013,-0.005,1.0,-0.183,90914
0.014,-0.003,1.005,-0.244,90938
0.016,0.002,1.003,-0.122,90961
0.017,0.001,1.005,-0.244,90988
0.015,0.001,1.005,-0.183,91013
0.015,-0.002,1.004,-0.305,91036
0.013,-0.001,1.004,-0.366,91061
0.012,-0.004,1.0,0.061,91085
0.011,-0.006,1.0,-0.244,91111
0.01,-0.007,1.001,-0.061,91135
0.012,-0.004,1.0,-0.244,91159
0.014,-0.004,1.002,-0.122,91183
0.014,-0.001,0.999,-0.183,91210
0.016,0.002,1.007,0.061,91235
0.016,0.003,1.005,0.183,91259
0.015,0.0,1.004,0.122,91287
0.016,-0.001,1.002,-0.488,91312
0.013,-0.002,1.0,-0.244,91336
0.011,-0.004,0.999,-0.366,91362
0.013,-0.009,1.001,-0.427,91389
0.012,-0.007,1.004,-0.366,91415
0.014,-0.003,1.001,-0.427,91438
0.013,-0.003,1.004,0.122,91462
0.014,0.004,1.004,0.061,91487
0.018,0.001,1.004,-0.183,91509
0.017,0.001,1.005,-0.244,91533
0.016,0.001,1.002,-0.488,91557
0.016,-0.002,1.002,-0.305,91580
0.009,-0.002,1.003,0.061,91605
0.01,-0.005,0.998,-0.366,91634
0.011,-0.01,1.002,-0.366,91659
0.011,-0.006,0.998,-0.244,91685
0.011,-0.006,1.006,-0.427,91711
0.015,-0.001,1.002,-0.122,91735
0.016,0.0,1.003,-0.244,91761
0.016,0.003,1.002,-0.122,91787
0.015,0.001,1.004,-0.244,91812
0.015,0.0,1.004,0.0,91838
0.014,-0.001,1.0,-0.122,91863
0.011,-0.005,0.999,-0.305,91891
0.012,-0.006,1.001,-0.183,91916
0.012,-0.005,1.003,-0.305,91940
0.009,-0.004,0.998,-0.061,91965
0.013,-0.002,1.003,-0.244,91993
0.014,0.0,1.003,-0.305,92019
0.015,-0.002,1.003,-0.122,92043
0.016,0.0,1.002,-0.183,92068
0.015,-0.003,1.005,-0.183,92091
0.012,0.001,1.001,-0.244,92116
0.011,-0.004,1.0,-0.061,92142
0.009,-0.006,1.003,-0.244,92167
0.011,-0.003,1.0,-0.183,92192
0.011,-0.006,1.005,-0.427,92217
0.013,-0.005,1.0,-0.183,92242
0.013,-0.001,1.0,-0.366,92269
0.017,0.001,1.009,-0.183,92297
0.018,0.001,1.002,-0.366,92323
0.015,-0.002,1.006,-0.183,92349
0.016,-0.002,0.999,-0.122,92375
0.008,-0.002,1.004,-0.244,92400
0.01,-0.001,0.999,0.0,92426
0.009,-0.006,1.003,-0.061,92449
0.011,-0.006,1.001,-0.183,92475
0.015,-0.002,1.005,-0.305,92500
0.016,-0.001,1.003,-0.061,92527
0.017,0.001,1.006,-0.244,92551
0.016,0.001,1.005,-0.244,92575
0.015,0.004,1.0,-0.244,92598
0.015,0.001,1.01,-0.244,92623
0.011,-0.003,0.992,-0.305,92646
0.013,-0.009,1.007,-0.427,92671
0.012,-0.007,0.996,-0.305,92696
0.009,-0.008,1.008,0.183,92721
0.015,0.001,0.994,-0.366,92748
0.012,-0.012,1.01,0.122,92775
0.015,0.003,1.005,0.0,92803
0.014,0.001,1.0,-0.305,92825
0.011,0.002,1.001,-0.183,92853
0.019,-0.001,1.008,-0.122,92877
0.013,-0.008,0.997,-0.671,92901
0.015,-0.003,1.0,-0.366,92926
0.013,-0.005,1.007,-0.183,92950
0.006,-0.008,0.999,-0.183,92975
0.012,-0.005,0.997,-0.183,93001
0.009,-0.002,1.009,-0.366,93027
0.013,0.002,0.999,-0.183,93051
0.017,-0.003,0.999,-0.305,93079
0.018,0.0,1.009,-0.122,93103
0.02,0.003,1.005,-0.061,93127
0.011,-0.0,0.999,-0.488,93152
0.015,-0.005,1.003,-0.061,93177
0.009,-0.007,0.999,-0.183,93203
0.008,-0.003,1.002,-0.122,93227
0.01,-0.005,1.004,-0.122,93252
0.009,-0.006,1.0,-0.305,93276
0.017,-0.005,1.002,-0.122,93302
0.015,-0.0,1.005,-0.183,93326
0.017,0.0,1.005,-0.244,93349
0.017,-0.001,1.003,-0.244,93374
0.014,0.002,1.004,0.0,93399
0.015,0.001,1.005,-0.122,93425
0.012,-0.003,1.0,-0.305,93450
0.012,-0.008,1.0,-0.183,93475
0.01,-0.007,1.003,-0.061,93501
0.01,-0.004,1.0,-0.305,93526
0.012,-0.002,0.999,-0.244,93550
0.012,-0.005,1.003,-0.183,93576
0.016,-0.0,1.002,-0.122,93599
0.017,0.002,1.004,-0.366,93625
0.017,0.001,1.006,-0.244,93651
0.015,-0.0,1.001,-0.244,93678
0.015,-0.003,1.002,-0.183,93704
0.013,-0.004,1.006,-0.061,93728
0.01,-0.006,1.0,-0.061,93753
0.01,-0.007,0.999,-0.122,93780
0.009,-0.006,1.001,0.061,93803
0.013,-0.004,1.002,-0.244,93830
0.016,-0.003,1.003,-0.122,93856
0.017,0.0,1.004,-0.244,93881
0.018,-0.0,1.005,-0.183,93906
0.014,-0.001,1.0,-0.305,93934
0.011,-0.001,1.009,-0.122,93957
0.009,0.0,1.0,-0.244,93980
0.01,-0.007,1.003,-0.366,94008
0.015,-0.004,1.005,-0.122,94034
0.013,-0.003,0.999,-0.244,94065
0.016,-0.003,1.001,-0.305,94090
0.016,-0.002,1.007,-0.183,94118
0.012,0.004,1.001,0.0,94144
0.014,0.0,1.002,-0.244,94169
0.013,-0.005,1.008,0.0,94194
0.012,-0.004,0.998,-0.061,94218
0.013,-0.006,1.002,-0.244,94243
0.012,-0.003,1.002,0.061,94268
0.012,-0.004,1.0,-0.244,94292
0.013,-0.002,1.004,-0.244,94318
0.014,-0.001,1.005,-0.061,94345
0.013,0.002,1.001,-0.244,94369
0.017,-0.002,1.004,-0.305,94396
0.016,-0.0,1.004,0.0,94419
0.014,-0.002,1.002,-0.366,94442
0.016,-0.002,1.003,-0.183,94466
0.011,-0.005,1.003,-0.244,94493
0.01,-0.006,1.0,-0.244,94518
0.009,-0.004,1.002,-0.122,94545
0.012,-0.002,1.003,-0.122,94571
0.014,-0.002,1.001,-0.244,94598
0.015,-0.0,1.003,-0.183,94621
0.018,-0.001,1.005,-0.366,94648
0.017,-0.001,1.006,-0.122,94673
0.014,-0.0,1.003,-0.244,94698
0.013,-0.002,1.003,-0.244,94722
0.012,-0.001,1.004,-0.122,94747
0.01,-0.006,0.999,-0.122,94772
0.011,-0.005,1.001,-0.305,94797
0.014,-0.006,1.002,-0.183,94821
0.014,-0.004,1.0,-0.183,94846
0.015,-0.002,1.001,-0.183,94870
0.016,-0.0,1.004,-0.183,94894
0.014,0.001,1.005,-0.122,94919
0.015,0.0,1.002,-0.183,94942
0.014,-0.002,1.002,-0.183,94967
0.013,-0.005,1.002,-0.183,94995
0.014,-0.003,1.0,-0.244,95025
0.013,-0.005,1.0,-0.183,95051
0.013,-0.004,1.0,-0.183,95076
0.013,-0.003,1.003,-0.305,95102
0.015,-0.0,1.003,-0.244,95126
0.013,0.0,1.003,-0.183,95149
0.016,0.001,1.004,-0.183,95174
0.016,-0.001,1.002,-0.122,95201
0.016,-0.001,1.002,-0.183,95232
0.014,-0.003,1.002,-0.244,95256
0.013,-0.005,1.0,-0.061,95282
0.01,-0.004,1.001,-0.183,95309
0.01,-0.004,1.002,-0.183,95333
0.013,-0.003,1.001,-0.122,95359
0.015,-0.003,1.003,-0.122,95384
0.017,-0.002,1.003,-0.244,95407
0.017,0.0,1.004,-0.122,95432
0.014,0.0,1.002,-0.183,95456
0.014,-0.001,1.004,-0.183,95480
0.011,-0.003,1.003,-0.122,95507
0.01,-0.005,0.999,-0.305,95532
0.012,-0.006,1.003,-0.122,95561
0.012,-0.005,1.002,0.0,95588
0.015,-0.004,1.0,-0.183,95613
0.014,-0.002,1.003,-0.366,95640
0.015,0.0,1.006,-0.183,95665
0.016,0.002,1.001,-0.122,95690
0.014,0.001,1.005,-0.244,95716
0.014,-0.001,1.005,0.0,95742
0.014,-0.001,0.999,-0.183,95765
0.01,-0.008,0.997,-0.244,95791
0.015,-0.011,1.009,-0.793,95815
0.012,-0.005,1.012,-0.305,95840
0.012,-0.0,0.993,-0.488,95864
0.014,0.0,1.008,-0.366,95893
0.014,0.002,1.003,-0.122,95917
0.015,0.004,0.999,-0.366,95942
0.017,-0.002,1.003,-0.366,95969
0.014,-0.003,1.002,0.061,95995
0.013,-0.006,0.994,-0.61,96018
0.011,-0.007,1.007,0.061,96041
0.009,-0.003,1.0,-0.244,96067
0.01,-0.006,1.001,-0.366,96093
0.012,-0.0,1.005,0.061,96119
0.014,0.0,1.005,-0.366,96143
0.02,-0.003,0.991,-0.488,96167
0.013,0.004,0.991,5.249,96193
-0.015,0.019,0.978,4.333,96217
0.022,-0.016,1.043,-5.31,96243
0.007,-0.01,1.017,0.732,96267
0.006,-0.012,0.981,-0.549,96292
0.01,-0.016,1.007,-0.305,96318
0.011,-0.011,1.005,-0.427,96344
0.017,-0.016,1.007,-0.244,96370
0.018,-0.015,1.019,-0.061,96395
0.02,-0.006,0.993,-0.854,96422
0.013,-0.006,1.006,-0.61,96447
0.007,0.0,1.001,0.244,96473
0.007,-0.004,0.992,-0.61,96495
0.01,-0.006,1.008,-0.244,96519
0.011,-0.01,1.006,-0.122,96544
0.014,-0.019,0.994,-0.244,96570
0.015,-0.019,1.003,-0.183,96594
0.014,-0.008,1.004,-0.183,96620
0.013,-0.003,0.999,-0.61,96644
0.011,-0.001,1.004,-0.122,96670
0.011,0.001,1.001,-0.305,96695
0.015,-0.002,0.991,-0.305,96718
0.019,-0.01,0.994,-0.916,96744
0.015,-0.008,1.002,-0.122,96771
0.018,-0.025,0.994,-2.869,96796
0.009,-0.014,1.01,0.916,96822
0.006,-0.012,0.99,-1.465,96848
0.007,-0.017,0.998,-0.549,96873
0.008,-0.005,1.007,0.0,96897
0.015,-0.001,1.004,-0.366,96921
0.018,-0.004,1.012,-0.244,96948
0.022,-0.006,1.007,-0.183,96972
0.021,-0.004,1.002,-0.244,96997
0.011,-0.01,1.008,-0.122,97021
0.006,-0.008,0.998,-0.305,97046
0.004,-0.01,1.0,-0.061,97073
0.01,-0.012,1.001,-0.061,97098
0.014,-0.015,1.001,-0.244,97123
0.018,-0.01,0.999,-0.183,97148
0.018,-0.01,1.003,-0.122,97174
0.015,-0.005,1.008,-0.183,97198
0.012,-0.001,1.008,-0.244,97223
0.01,-0.0,0.999,-0.122,97248
0.009,-0.007,1.008,-0.183,97273
0.012,-0.014,1.004,-0.183,97303
0.012,-0.01,0.999,-0.061,97329
0.013,-0.014,1.005,-0.244,97354
0.015,-0.014,1.004,-0.061,97379
0.014,-0.01,1.003,-0.366,97403
0.012,-0.002,1.004,-0.244,97429
0.01,-0.001,1.002,-0.183,97454
0.014,-0.005,1.003,0.0,97479
0.014,-0.005,1.005,-0.183,97504
0.015,-0.009,1.001,0.0,97530
0.015,-0.014,1.001,-0.122,97555
0.014,-0.014,1.001,-0.061,97578
0.011,-0.011,1.002,-0.305,97604
0.009,-0.005,0.998,-0.244,97629
0.009,-0.004,1.002,-0.122,97655
0.011,-0.007,1.004,-0.183,97681
0.016,-0.004,1.003,-0.183,97704
0.019,-0.003,1.006,-0.122,97729
0.017,-0.008,1.004,-0.122,97754
0.015,-0.008,1.003,-0.427,97778
0.013,-0.013,1.0,-0.244,97803
0.007,-0.011,1.0,-0.122,97828
0.004,-0.009,0.997,-0.183,97852
0.007,-0.007,1.0,-0.305,97876
0.013,-0.014,1.001,-0.305,97902
0.019,-0.015,1.002,-0.183,97928
0.019,-0.008,1.005,-0.122,97953
0.018,-0.004,1.004,-0.122,97978
0.015,-0.004,1.002,-0.244,98005
0.011,-0.004,1.002,-0.061,98031
0.01,-0.004,1.003,-0.061,98054
0.008,-0.005,1.001,-0.183,98077
0.009,-0.013,1.001,-0.244,98101
0.014,-0.016,1.003,-0.183,98126
0.015,-0.012,1.004,-0.061,98152
0.012,-0.006,1.003,-0.244,98181
0.012,-0.008,1.003,-0.244,98207
0.013,-0.005,1.003,-0.122,98232
0.012,-0.001,1.002,-0.061,98257
0.013,-0.001,1.005,-0.244,98283
0.01,-0.004,1.004,-0.244,98310
0.014,-0.01,1.002,-0.183,98334
0.015,-0.013,1.0,-0.244,98360
0.014,-0.014,1.002,-0.244,98385
0.01,-0.012,1.0,-0.122,98409
0.012,-0.011,1.0,-0.122,98433
0.009,-0.005,1.003,-0.366,98459
0.012,-0.004,1.0,-0.183,98484
0.015,-0.009,1.003,-0.549,98511
0.017,-0.005,1.006,-0.183,98539
0.017,-0.005,1.006,-0.366,98565
0.014,-0.008,0.999,-0.305,98592
0.012,-0.01,1.011,-0.244,98620
0.013,-0.012,0.99,-0.488,98645
0.012,-0.014,1.005,-0.366,98670
0.011,-0.008,1.015,0.183,98694
-0.001,-0.003,1.004,0.244,98720
0.012,0.001,0.996,-0.183,98748
0.016,-0.005,1.013,0.122,98774
0.015,-0.008,1.008,0.122,98802
0.019,-0.006,1.002,-0.305,98827
0.018,-0.008,1.001,-0.183,98852
0.013,-0.006,1.003,-0.305,98876
0.009,-0.008,1.014,-0.244,98901
0.006,-0.008,0.993,-0.671,98925
0.008,-0.011,1.017,-0.427,98951
0.009,-0.009,1.014,0.061,98976
0.017,-0.01,1.001,-0.671,99002
0.018,-0.014,1.01,-0.244,99026
0.015,-0.009,1.008,0.366,99052
0.016,-0.005,1.007,-0.305,99076
0.01,-0.005,1.0,0.122,99100
0.011,-0.003,1.0,-0.305,99125
0.008,-0.004,1.008,0.061,99150
0.009,-0.006,0.994,-0.061,99173
0.01,-0.011,1.014,0.122,99199
0.012,-0.011,0.992,0.183,99228
0.014,-0.009,0.995,-0.244,99252
0.011,-0.007,1.01,0.305,99279
0.01,-0.003,0.99,-0.916,99304
0.013,-0.007,1.019,-0.549,99329
0.013,-0.002,1.012,0.916,99357
0.015,-0.007,0.985,-1.648,99384
0.015,-0.009,1.014,-0.305,99409
0.008,-0.001,1.006,0.488,99434
0.016,-0.017,0.997,-1.831,99459
0.016,-0.016,1.022,-0.183,99486
0.009,-0.005,1.015,1.221,99511
0.015,-0.013,0.986,-1.404,99536
0.013,-0.004,1.01,-0.793,99564
0.007,0.008,1.004,0.671,99588
0.018,-0.005,0.98,-1.892,99613
0.026,-0.014,1.002,-0.549,99639
0.012,0.005,1.01,1.892,99665
0.01,0.002,0.99,-2.136,99690
0.011,-0.007,1.016,0.427,99717
0.0,-0.004,1.01,0.305,99742
-0.005,-0.005,1.006,-0.366,99768
0.003,-0.011,0.996,0.0,99794
0.014,-0.015,1.001,-0.793,99821
0.014,-0.01,1.004,0.244,99847
0.02,-0.01,0.997,-1.343,99872
0.009,-0.0,1.022,0.61,99898
0.005,0.004,0.995,-0.305,99922
0.018,-0.008,0.995,-0.854,99947
0.012,0.003,1.02,2.38,99971
0.014,-0.005,1.008,-1.465,99997
0.017,-0.011,0.99,-5.737,100022
0.014,-0.008,1.015,-2.747,100046
0.008,0.003,0.995,-1.16,100070
0.024,-0.016,0.988,-4.7,100095
0.012,-0.001,1.008,-0.061,100119
0.02,-0.011,0.989,-2.869,100144
0.021,-0.011,1.004,-2.197,100170
0.012,-0.002,1.02,1.404,100195
0.009,0.004,0.985,-1.038,100221
0.017,-0.012,1.001,-0.793,100246
0.004,0.002,1.011,2.258,100271
0.015,-0.007,0.991,-1.465,100295
0.017,-0.012,1.015,0.427,100320
0.007,0.001,1.015,1.77,100346
0.021,-0.011,0.977,-3.113,100371
0.017,-0.014,1.013,0.0,100394
0.008,0.005,1.014,0.916,100421
0.019,-0.004,0.99,-1.404,100445
0.016,-0.007,1.004,-0.488,100471
0.003,0.005,1.018,1.038,100497
0.01,-0.004,0.978,-2.258,100522
0.012,-0.005,1.013,0.793,100549
0.009,0.001,1.009,1.16,100572
0.021,-0.016,0.992,-2.014,100596
0.014,-0.001,1.015,0.427,100620
0.014,0.005,1.0,-1.953,100644
0.019,-0.002,0.986,-3.174,100671
0.012,0.004,1.018,0.122,100696
0.007,0.009,1.008,-0.305,100723
0.019,-0.015,1.005,-3.174,100748
0.015,-0.005,1.012,0.977,100775
0.006,0.002,1.013,1.221,100801
0.016,-0.014,0.975,-2.869,100828
0.019,-0.016,1.015,-0.305,100852
0.003,0.005,0.999,1.953,100878
0.021,-0.009,0.979,-2.075,100906
0.024,-0.011,1.005,-1.16,100931
0.016,-0.0,1.021,1.587,100959
0.015,0.005,0.976,-3.174,100982
0.018,-0.003,1.017,0.0,101006
0.002,0.006,1.018,1.892,101031
0.023,-0.018,0.99,-3.052,101055
0.02,-0.016,1.016,1.282,101079
0.01,-0.002,0.993,0.916,101104
0.016,-0.01,0.985,-2.014,101128
0.009,-0.002,1.017,0.122,101156
0.009,0.004,1.005,1.343,101182
0.02,-0.01,0.981,-2.075,101208
0.017,-0.002,1.007,0.916,101233
0.008,0.008,1.01,0.488,101258
0.019,-0.004,1.012,-1.587,101285
0.014,0.0,1.016,0.793,101310
0.009,0.001,1.021,1.343,101335
0.016,-0.011,0.988,-1.16,101359
0.008,-0.004,1.023,0.427,101383
0.007,0.0,0.999,-0.183,101408
0.013,-0.011,1.005,-0.854,101433
0.013,-0.006,1.012,0.977,101458
0.017,-0.003,0.974,-0.305,101483
0.023,-0.01,0.999,-1.404,101507
0.009,0.007,1.019,2.197,101532
0.016,0.006,0.988,-1.77,101556
0.023,-0.008,1.011,-1.343,101581
0.01,0.006,1.026,1.709,101605
0.017,-0.007,0.986,-1.892,101629
0.017,-0.01,1.005,-0.244,101655
0.01,-0.007,1.016,1.404,101682
0.015,-0.011,0.975,-1.587,101709
0.022,-0.017,1.003,-2.625,101737
0.007,0.006,1.013,1.892,101761
0.016,-0.002,0.974,-2.991,101786
0.024,-0.008,1.0,-1.404,101811
0.012,0.008,1.027,0.61,101836
0.014,-0.001,0.991,-1.404,101861
0.019,-0.004,1.001,0.122,101887
0.011,-0.0,1.013,1.404,101915
0.01,-0.0,0.982,-1.77,101940
0.016,-0.014,1.018,-0.671,101966
0.006,0.0,1.014,1.648,101992
0.015,-0.008,0.986,-1.831,102015
0.017,-0.011,1.003,-0.122,102041
0.008,0.007,1.01,1.16,102065
0.018,-0.008,1.002,-1.77,102088
0.02,-0.004,1.011,0.366,102113
0.018,0.003,0.988,0.671,102138
0.021,-0.004,0.991,-1.343,102162
0.014,0.001,1.017,0.549,102186
0.009,0.001,0.995,-0.122,102212
0.013,-0.009,0.981,-1.465,102238
0.008,-0.009,1.024,0.671,102264
0.007,-0.011,0.978,-1.892,102287
0.017,-0.019,0.997,-1.77,102312
0.006,0.005,1.014,1.77,102336
0.017,-0.0,0.979,-2.197,102361
0.027,-0.005,0.996,-2.014,102388
0.019,0.01,1.016,1.099,102414
0.022,0.011,0.995,-1.221,102438
0.019,0.003,1.015,-0.366,102462
0.009,0.004,1.018,1.038,102490
0.009,-0.005,0.982,-0.671,102515
0.007,-0.016,0.999,-0.305,102542
0.01,-0.021,1.005,0.183,102567
0.003,-0.009,0.997,0.183,102595
0.019,-0.019,1.01,-1.709,102620
0.011,0.004,1.007,1.343,102644
0.019,0.009,0.985,-1.221,102670
0.024,0.012,1.013,-0.488,102697
0.011,0.025,1.019,1.099,102723
0.014,0.006,0.993,0.366,102749
0.018,-0.006,1.006,0.244,102773
0.017,-0.015,1.011,0.122,102798
0.013,-0.02,0.973,-0.916,102822
0.01,-0.022,0.998,-0.488,102845
-0.0,-0.01,1.012,1.16,102870
0.007,-0.009,0.976,-1.77,102893
0.012,-0.011,1.017,-0.366,102918
0.007,0.009,1.014,0.916,102943
0.018,0.0,1.003,-1.953,102971
0.023,0.004,1.014,0.427,102996
0.019,0.012,0.99,0.916,103021
0.031,-0.005,0.987,-2.197,103045
0.026,-0.007,1.013,0.732,103071
0.009,0.008,1.009,0.549,103095
0.017,-0.012,1.005,-1.465,103119
0.007,-0.011,1.01,0.732,103143
0.002,-0.016,0.976,-0.061,103169
0.005,-0.02,0.995,-1.526,103197
0.008,-0.014,0.999,-0.244,103221
0.01,-0.004,0.988,0.366,103246
0.021,-0.004,0.997,-1.099,103273
0.023,0.003,1.017,0.244,103300
0.019,0.01,0.996,0.305,103328
0.025,0.0,0.99,-2.502,103353
0.019,0.007,1.016,1.404,103377
0.012,0.005,1.005,-0.183,103402
0.017,-0.006,0.981,-1.404,103429
0.011,-0.011,1.01,0.854,103455
0.003,-0.007,1.013,1.038,103479
0.01,-0.018,0.996,-2.014,103507
0.007,-0.011,1.01,0.427,103532
0.002,-0.001,0.991,1.099,103557
0.013,-0.009,0.984,-1.709,103580
0.01,0.002,1.022,0.366,103604
0.015,0.012,1.002,-0.549,103630
0.025,0.004,0.987,-2.258,103660
0.022,0.007,1.025,0.671,103685
0.014,0.012,1.013,0.671,103709
0.023,-0.011,1.002,-2.136,103733
0.019,-0.014,1.012,1.099,103757
0.012,-0.008,0.982,-1.648,103780
0.015,-0.021,0.984,-1.77,103807
0.003,-0.005,1.009,0.549,103832
-0.001,-0.001,0.997,-0.366,103857
0.013,-0.01,1.008,-1.16,103881
0.018,-0.004,1.015,0.183,103906
0.021,-0.002,0.982,-1.282,103931
0.021,0.002,1.02,0.793,103955
0.015,0.009,1.011,0.366,103980
0.024,-0.003,0.981,-3.113,104005
0.017,0.002,1.016,1.953,104029
0.007,0.004,1.006,0.488,104055
0.016,-0.015,0.994,-1.465,104080
0.008,-0.009,1.008,0.183,104104
0.005,-0.004,0.996,1.038,104131
0.011,-0.008,0.981,-1.404,104155
0.012,-0.009,1.015,-0.122,104179
0.01,0.004,1.011,0.671,104205
0.018,0.0,0.976,-2.197,104232
0.024,-0.004,1.02,0.977,104256
0.019,0.004,0.982,-0.427,104280
0.022,-0.005,0.992,-1.404,104306
0.02,-0.007,1.012,0.427,104333
0.01,0.003,0.987,0.549,104360
0.016,-0.011,0.989,-1.587,104385
0.009,-0.003,1.022,1.038,104408
0.007,0.0,1.003,1.465,104436
0.015,-0.011,0.972,-2.38,104460
0.015,-0.008,1.012,0.366,104486
0.006,0.006,1.014,0.977,104510
0.017,-0.008,1.001,-1.709,104537
0.019,-0.003,1.014,-0.183,104566
0.011,0.006,1.022,0.671,104594
0.016,-0.004,1.001,-1.526,104618
0.021,-0.005,1.003,0.061,104645
0.013,-0.001,1.01,0.61,104670
0.018,-0.01,0.99,-1.831,104697
0.014,-0.01,1.01,0.305,104721
0.01,-0.005,1.016,0.61,104749
0.013,-0.004,0.981,-0.671,104776
0.017,-0.01,0.997,-0.793,104801
0.008,0.001,1.019,1.038,104826
0.013,0.001,0.99,-0.977,104850
0.02,-0.006,1.007,-0.366,104875
0.015,0.0,1.019,1.16,104900
0.021,-0.006,0.987,-2.075,104925
0.019,-0.009,1.008,0.122,104949
0.008,0.005,1.009,1.221,104973
0.016,-0.005,0.979,-2.136,104999
0.014,-0.006,1.017,0.061,105023
0.007,0.003,1.014,0.854,105049
0.013,-0.004,0.98,-1.77,105077
0.018,-0.009,1.012,-0.671,105104
0.01,0.003,1.023,1.526,105128
0.019,-0.011,0.988,-2.197,105153
0.022,-0.007,1.013,0.183,105177
0.011,0.007,0.999,1.16,105202
0.021,-0.006,0.979,-2.38,105226
0.02,-0.01,1.01,0.061,105255
0.006,0.007,1.007,1.648,105280
0.016,-0.01,0.977,-1.892,105305
0.016,-0.005,1.011,0.61,105330
0.007,0.003,1.009,0.549,105354
0.016,-0.014,1.007,-2.258,105380
0.013,-0.002,1.016,1.831,105406
0.013,-0.003,0.983,-0.793,105430
0.021,-0.012,1.001,-0.977,105456
0.006,0.006,1.017,1.465,105479
0.013,0.001,0.996,-1.038,105505
0.018,-0.004,1.005,-0.305,105531
0.016,-0.004,1.011,0.0,105555
0.018,-0.003,0.984,-0.061,105579
0.018,-0.008,1.001,-0.427,105604
0.011,-0.001,1.013,0.183,105630
0.009,0.002,0.991,0.916,105655
0.018,-0.013,0.985,-1.892,105682
0.011,-0.002,1.012,0.977,105706
0.009,0.001,0.995,-0.977,105731
0.02,-0.01,1.01,-0.854,105757
0.014,-0.002,1.016,1.404,105781
0.019,-0.008,0.981,-2.014,105807
0.019,-0.009,1.007,-0.061,105831
0.009,0.007,1.014,1.282,105856
0.016,-0.002,0.982,-1.831,105882
0.019,-0.005,1.007,-0.183,105907
0.01,0.001,1.018,0.671,105932
0.014,-0.005,0.996,-0.916,105957
0.019,-0.009,0.999,-0.61,105981
0.015,-0.004,0.992,0.488,106006
0.017,-0.008,0.993,-1.831,106034
0.013,-0.005,1.015,0.183,106061
0.006,0.003,0.999,0.61,106086
0.014,-0.007,0.986,-2.014,106110
0.019,-0.01,1.005,-0.183,106138
0.013,0.002,1.008,0.854,106164
0.017,-0.003,0.984,-1.648,106190
0.02,-0.007,1.008,0.122,106215
0.014,-0.0,1.02,1.221,106240
0.018,-0.01,0.991,-2.136,106264
0.012,-0.004,1.013,0.366,106290
0.009,-0.0,1.01,0.488,106317
0.017,-0.008,0.977,-1.77,106340
0.012,-0.002,1.013,1.038,106364
0.01,-0.0,1.007,0.549,106392
0.018,-0.004,0.979,-1.77,106418
0.032,-0.021,1.009,-10.315,106442
-0.003,-0.003,1.008,-13.916,106467
0.009,0.009,0.968,0.183,106494
0.024,-0.015,1.025,-1.648,106520
0.005,0.005,1.021,2.136,106545
0.021,-0.017,0.982,-3.54,106569
0.017,-0.016,1.005,0.671,106596
0.013,-0.004,1.016,1.099,106623
0.019,-0.011,0.981,-1.038,106647
0.017,-0.011,1.01,0.122,106672
0.007,0.004,1.015,1.526,106700
0.02,-0.007,0.975,-0.854,106729
0.02,-0.012,1.009,0.061,106755
0.004,0.009,1.011,0.977,106780
0.013,-0.0,0.987,-2.197,106806
0.015,-0.002,1.009,0.549,106831
0.007,0.007,1.023,0.916,106856
0.017,-0.009,0.989,-1.892,106879
0.02,-0.014,1.002,0.0,106904
0.006,0.002,1.005,1.77,106929
0.016,-0.014,0.975,-0.732,106956
0.019,-0.018,1.005,-0.183,106984
0.017,-0.007,1.012,1.465,107010
0.011,0.003,0.98,0.488,107036
0.02,-0.006,0.997,-1.587,107061
0.007,0.01,1.017,1.099,107087
0.012,0.008,0.983,-1.343,107110
0.021,-0.007,1.007,0.0,107135
0.011,0.001,1.007,0.854,107159
0.021,-0.015,0.995,-1.221,107185
0.011,-0.003,1.003,1.587,107211
0.014,-0.008,0.993,-1.465,107235
0.014,-0.008,1.003,0.488,107260
0.015,-0.01,0.986,-1.404,107283
0.017,-0.009,1.013,0.244,107307
0.009,0.001,1.002,0.854,107331
0.014,-0.001,0.997,-0.671,107357
0.014,-0.004,1.0,-0.488,107383
0.011,0.002,1.008,0.916,107407
0.015,0.002,0.99,-0.793,107431
0.014,-0.0,1.005,0.061,107456
0.017,-0.007,0.998,-0.366,107481
0.021,-0.012,1.003,-0.549,107507
0.017,-0.01,1.0,0.244,107534
0.015,-0.007,0.998,-0.488,107558
0.011,-0.004,1.005,0.061,107583
0.0,0.004,0.969,0.366,107609
0.019,-0.009,1.034,-1.709,107633
0.007,0.008,1.012,2.991,107660
0.007,0.006,0.99,-0.488,107685
0.022,-0.005,1.006,1.16,107709
0.017,-0.005,0.998,-0.793,107733
0.023,-0.008,1.005,-0.427,107758
0.016,0.0,1.001,0.732,107783
0.016,-0.009,0.994,-0.916,107810
0.019,-0.011,1.001,-0.061,107835
0.007,-0.001,1.005,0.244,107858
0.013,-0.001,0.996,-0.732,107884
0.012,-0.005,1.001,0.061,107909
0.01,-0.003,1.004,0.0,107932
0.02,-0.007,1.002,-0.366,107956
0.014,-0.007,1.006,0.061,107981
0.019,-0.004,1.001,-0.122,108007
0.016,-0.005,1.003,-0.061,108031
0.012,-0.002,1.011,-0.183,108055
0.014,-0.001,0.994,-0.244,108081
0.013,0.002,0.998,0.366,108130
0.018,-0.003,1.0,-0.793,108153
0.014,0.003,1.005,0.671,108180
0.017,-0.002,1.0,-0.854,108204
0.014,-0.008,0.999,-0.427,108230
0.012,-0.007,1.001,0.244,108257
0.007,-0.009,0.999,-0.122,108284
0.007,-0.009,0.997,-0.244,108312
0.005,-0.005,1.003,-0.061,108337
0.013,-0.008,1.002,-0.488,108363
0.017,-0.007,1.002,-0.183,108388
0.018,-0.001,1.005,-0.183,108412
0.022,0.001,1.006,-0.366,108437
0.021,0.001,1.003,-0.244,108463
0.018,0.001,1.006,-0.183,108491
0.013,-0.0,1.002,-0.427,108518
0.012,-0.004,1.002,0.0,108542
0.007,-0.006,1.001,0.0,108569
0.009,-0.011,1.002,-0.244,108592
0.011,-0.01,0.999,-0.183,108617
0.012,-0.012,1.0,-0.183,108642
0.015,-0.01,1.003,-0.244,108668
0.014,-0.007,1.003,-0.183,108694
0.016,-0.0,1.003,-0.305,108719
0.019,0.0,1.004,-0.366,108742
0.018,0.004,1.005,-0.122,108767
0.018,0.003,1.003,-0.366,108792
0.013,0.002,1.018,0.488,108818
0.021,-0.005,0.998,-2.441,108841
0.013,-0.014,1.033,3.235,108865
0.011,-0.002,0.981,-1.099,108889
0.025,-0.028,1.013,-0.61,108918
0.011,-0.005,1.001,1.465,108945
0.014,-0.011,0.99,-1.404,108969
0.012,-0.013,0.997,-0.732,108995
0.006,0.001,1.003,0.671,109021
0.012,-0.002,0.997,-1.221,109047
0.015,-0.004,1.005,0.122,109073
0.017,-0.0,1.001,-0.061,109098
0.021,-0.004,1.006,-0.732,109124
0.021,-0.002,1.005,0.183,109151
0.016,-0.002,1.005,-0.244,109177
0.017,-0.007,1.003,-0.61,109201
0.013,-0.005,1.006,-0.183,109224
0.01,-0.004,0.997,-0.61,109249
0.01,-0.009,1.002,-0.183,109274
0.006,-0.005,1.002,-0.061,109298
0.011,-0.007,1.0,-0.427,109323
0.015,-0.006,1.002,0.0,109348
0.017,-0.005,1.003,-0.122,109375
0.02,-0.005,1.004,-0.549,109402
0.021,-0.002,1.003,-0.122,109427
0.017,-0.0,1.005,-0.183,109453
0.015,0.0,1.003,-0.305,109478
0.013,-0.001,1.003,-0.244,109504
0.012,-0.003,1.003,-0.244,109528
0.01,-0.003,1.003,-0.061,109554
0.01,-0.007,1.0,-0.244,109579
0.012,-0.011,1.002,-0.183,109605
0.015,-0.011,1.002,-0.122,109629
0.014,-0.007,1.0,-0.122,109654
0.016,-0.008,1.003,-0.366,109678
0.016,-0.006,1.005,-0.305,109707
0.012,-0.002,1.003,-0.183,109735
0.015,0.0,1.008,-0.183,109760
0.015,0.001,1.001,0.0,109787
0.015,-0.001,1.003,-0.183,109813
0.017,-0.005,1.002,-0.488,109839
0.016,-0.007,1.006,-0.061,109864
0.016,-0.005,0.997,-0.183,109889
0.015,-0.013,1.004,-0.427,109914
0.011,-0.008,1.003,-0.183,109942
0.011,-0.005,1.001,0.0,109972
0.01,-0.005,1.0,-0.488,109997
0.013,-0.003,1.004,-0.183,110024
0.014,-0.0,1.001,-0.122,110051
0.019,-0.003,1.004,-0.305,110075
0.02,-0.003,1.006,-0.061,110098
0.019,-0.003,1.005,-0.305,110122
0.02,-0.004,1.001,-0.061,110148
0.014,-0.005,1.0,-0.244,110172
0.011,-0.005,1.001,-0.305,110199
0.009,-0.006,1.004,-0.122,110223
0.009,-0.005,1.0,0.0,110250
0.011,-0.007,1.001,-0.305,110277
0.013,-0.006,1.006,-0.244,110302
0.017,-0.004,1.002,-0.061,110326
0.017,-0.005,1.001,-0.183,110352
0.018,-0.004,0.997,-0.183,110381
0.017,-0.005,1.014,-0.122,110407
0.016,0.001,0.993,0.061,110433
0.014,-0.004,1.01,-0.061,110456
0.012,0.0,0.998,-0.183,110480
0.016,-0.009,1.005,-0.671,110504
0.009,0.0,0.995,0.732,110530
0.015,-0.007,0.999,-0.61,110556
0.017,-0.011,1.0,-0.732,110583
0.013,-0.003,0.999,0.671,110608
0.016,-0.004,1.0,-0.793,110633
0.013,-0.005,1.007,-0.061,110660
0.013,-0.001,0.999,0.305,110686
0.013,-0.001,1.007,-0.549,110711
0.015,-0.002,1.002,0.0,110735
0.014,-0.001,1.002,-0.244,110761
0.014,-0.007,1.002,-0.366,110786
0.014,-0.006,1.002,-0.183,110812
0.015,-0.007,1.003,-0.366,110835
0.016,-0.007,1.002,-0.122,110858
0.014,-0.006,1.006,-0.183,110883
0.014,-0.008,1.0,-0.427,110907
0.013,-0.002,1.003,-0.122,110932
0.012,-0.002,1.0,-0.305,110958
0.013,-0.002,1.002,-0.305,110983
0.015,-0.003,1.003,-0.061,111009
0.015,-0.003,1.002,-0.183,111035
0.017,-0.006,1.003,-0.366,111061
0.016,-0.007,1.003,-0.061,111083
0.015,-0.005,1.001,-0.183,111108
0.013,-0.006,1.003,-0.183,111134
0.011,-0.007,1.001,-0.244,111158
0.012,-0.008,1.0,-0.427,111185
0.013,-0.004,1.002,-0.122,111212
0.014,-0.005,1.001,-0.183,111237
0.012,-0.011,0.988,-0.122,111262
0.016,-0.008,1.014,-0.427,111285
0.011,0.001,0.994,0.916,111311
0.013,-0.002,0.994,-0.977,111337
0.018,-0.004,1.01,0.122,111362
0.019,-0.001,1.002,-0.549,111389
0.02,-0.004,1.002,-0.244,111415
0.019,-0.004,1.008,-0.061,111442
0.012,-0.002,1.002,-0.244,111467
0.011,-0.0,1.0,-0.305,111494
0.006,-0.0,1.007,0.122,111519
0.01,-0.01,1.001,-0.671,111543
0.018,-0.011,0.998,-0.305,111566
0.016,-0.008,1.0,0.183,111591
0.02,-0.007,1.002,-0.61,111615
0.018,-0.005,1.0,-0.488,111643
0.016,-0.002,1.004,0.061,111668
0.015,0.001,1.006,-0.366,111697
0.012,-0.002,0.999,-0.244,111723
0.011,-0.002,1.0,-0.244,111748
0.013,-0.005,1.006,-0.061,111773
0.012,-0.004,1.001,-0.061,111800
0.016,-0.008,1.001,-0.244,111823
0.018,-0.011,1.002,-0.244,111850
0.019,-0.009,1.003,-0.183,111873
0.019,-0.005,1.002,-0.305,111900
0.015,-0.003,1.001,-0.366,111926
0.011,0.001,1.003,-0.122,111951
0.008,0.002,1.003,-0.244,111975
0.012,-0.001,1.003,-0.122,112000
0.015,-0.004,1.002,-0.061,112026
0.015,-0.008,1.001,-0.122,112052
0.018,-0.009,1.002,-0.061,112077
0.009,-0.014,0.989,0.244,112102
0.024,-0.021,1.03,-1.648,112127
0.012,0.003,1.005,0.793,112152
0.013,0.007,0.989,-2.014,112180
0.017,0.006,1.005,0.61,112204
0.01,0.004,0.999,-0.244,112230
0.016,-0.003,1.004,-1.099,112256
0.012,0.001,1.013,0.488,112281
0.009,-0.003,0.995,-0.549,112303
0.014,-0.016,0.997,-0.183,112330
0.009,-0.01,1.004,0.549,112355
0.018,-0.012,0.997,-0.732,112378
0.019,-0.011,0.998,-0.122,112402
0.012,-0.007,1.002,0.122,112428
0.013,-0.005,1.003,-0.366,112452
0.01,0.001,1.004,-0.305,112480
0.01,0.002,1.001,-0.366,112507
0.014,-0.004,1.004,-0.366,112531
0.017,-0.001,1.003,-0.061,112557
0.019,-0.001,1.002,-0.183,112582
0.018,-0.005,1.004,-0.183,112608
0.02,-0.005,1.006,-0.122,112632
0.018,-0.005,1.002,-0.244,112659
0.014,-0.005,1.004,-0.305,112685
0.011,-0.003,1.0,-0.122,112710
0.008,-0.007,1.003,-0.183,112735
0.008,-0.004,1.003,-0.183,112760
0.008,-0.002,0.999,0.061,112785
0.015,-0.006,1.012,-0.732,112811
0.016,-0.002,0.984,-0.244,112835
0.02,-0.01,1.044,-0.854,112860
0.017,0.009,0.981,1.099,112884
0.027,-0.017,1.032,-0.122,112907
0.012,0.01,0.997,2.319,112934
0.022,-0.019,1.014,-2.869,112961
0.008,-0.004,0.994,0.916,112985
0.006,-0.008,1.004,-0.305,113014
0.01,-0.016,0.996,-0.916,113038
0.012,-0.013,0.999,-0.122,113062
0.011,-0.008,0.996,0.0,113086
0.017,-0.01,1.0,-0.671,113113
0.017,-0.002,1.005,0.183,113138
0.018,0.0,1.007,-0.488,113161
0.022,0.001,1.003,-0.061,113186
0.016,0.002,1.006,-0.061,113211
0.018,0.003,1.006,-0.183,113237
0.014,-0.001,1.002,-0.061,113262
0.011,-0.004,1.0,-0.061,113287
0.011,-0.01,1.0,-0.305,113313
0.01,-0.012,1.0,-0.183,113339
0.012,-0.011,0.998,-0.122,113369
0.012,-0.011,1.002,-0.305,113394
0.014,-0.009,1.002,-0.488,113423
0.013,-0.003,1.003,-0.305,113448
0.015,-0.0,1.005,-0.244,113471
0.016,0.0,1.004,-0.183,113496
0.017,0.003,1.006,-0.122,113520
0.019,0.0,1.001,-0.244,113547
0.017,-0.001,1.003,-0.183,113573
0.016,-0.006,1.004,-0.244,113597
0.014,-0.01,1.002,-0.061,113622
0.012,-0.009,1.001,-0.183,113649
0.01,-0.01,1.0,-0.366,113674
0.01,-0.01,1.0,-0.061,113700
0.009,-0.007,1.003,-0.183,113725
0.011,-0.004,1.001,-0.183,113751
0.014,-0.003,1.004,-0.366,113776
0.017,-0.001,1.004,-0.244,113800
0.02,-0.001,1.006,-0.305,113825
0.02,-0.002,1.003,-0.122,113850
0.02,-0.002,1.005,-0.061,113875
0.014,-0.005,1.004,-0.183,113899
0.015,-0.006,1.004,-0.244,113924
0.012,-0.006,1.002,-0.183,113949
0.008,-0.008,0.999,-0.122,113973
0.007,-0.008,1.001,-0.366,114000
0.012,-0.009,1.0,-0.183,114027
0.013,-0.006,1.0,-0.305,114053
0.016,-0.006,1.004,-0.305,114078
0.017,-0.003,1.006,-0.244,114102
0.02,-0.001,1.003,-0.244,114127
0.019,-0.002,1.004,-0.305,114153
0.017,-0.002,1.009,-0.244,114182
0.013,-0.001,0.996,0.183,114208
0.012,-0.007,1.008,-0.366,114232
0.011,-0.003,1.002,0.305,114257
0.01,-0.007,0.994,-0.549,114286
0.014,-0.01,1.003,-0.244,114313
0.013,-0.009,1.001,-0.061,114340
0.015,-0.008,1.001,-0.244,114367
0.016,-0.006,1.0,-0.122,114391
0.015,-0.002,1.004,-0.122,114415
0.017,-0.003,1.002,-0.366,114441
0.016,0.001,1.005,-0.122,114465
0.014,-0.001,1.003,-0.122,114491
0.016,-0.003,1.003,-0.244,114516
0.014,-0.006,1.003,-0.122,114542
0.014,-0.006,1.003,-0.122,114567
0.013,-0.008,1.0,-0.244,114593
0.012,-0.01,1.001,-0.183,114618
0.011,-0.007,1.002,-0.366,114642
0.011,-0.008,1.0,-0.366,114667
0.01,-0.005,1.002,-0.366,114694
0.015,-0.004,1.002,-0.183,114721
0.014,-0.002,1.004,-0.305,114746
0.019,-0.001,1.006,-0.183,114771
0.018,-0.004,1.003,-0.122,114798
0.018,-0.004,1.003,-0.183,114826
0.016,-0.004,1.003,-0.122,114851
0.014,-0.004,1.003,-0.061,114877
0.013,-0.007,1.002,-0.366,114906
0.011,-0.009,1.0,-0.183,114930
0.01,-0.007,1.003,0.0,114955
0.011,-0.006,0.998,-0.244,114984
0.014,-0.007,1.006,-0.366,115012
0.016,-0.004,1.002,-0.061,115036
0.017,-0.002,1.003,-0.244,115062
0.017,-0.002,1.001,-0.061,115088
0.017,-0.003,1.004,-0.244,115113
0.014,-0.001,1.003,-0.305,115139
0.015,-0.003,1.005,-0.244,115163
0.014,-0.004,1.002,-0.183,115192
0.014,-0.007,1.001,-0.305,115215
0.012,-0.008,1.001,0.0,115237
0.011,-0.007,1.001,-0.305,115263
0.013,-0.009,0.999,-0.122,115287
0.014,-0.007,1.004,-0.244,115312
0.016,-0.004,1.003,-0.244,115338
0.015,-0.003,1.002,-0.061,115364
0.015,-0.003,1.002,-0.183,115389
0.016,-0.0,1.005,-0.183,115414
0.015,-0.001,1.003,-0.183,115441
0.015,-0.002,1.003,-0.244,115466
0.013,-0.005,1.004,-0.122,115493
0.014,-0.006,1.003,-0.305,115519
0.013,-0.009,1.001,-0.366,115543
0.014,-0.008,1.0,-0.183,115569
0.014,-0.006,1.003,-0.305,115595
0.013,-0.007,1.004,-0.244,115620
0.012,-0.005,1.001,-0.061,115644
0.016,-0.003,1.002,-0.183,115670
0.013,-0.002,1.002,-0.122,115696
0.015,-0.002,1.003,-0.305,115723
0.017,-0.003,1.002,-0.122,115747
0.017,-0.004,1.004,-0.244,115772
0.017,-0.005,1.003,-0.122,115797
0.014,-0.007,1.002,-0.366,115827
0.011,-0.008,1.002,-0.244,115852
0.011,-0.006,1.002,-0.061,115879
0.011,-0.007,1.001,-0.305,115902
0.012,-0.006,1.003,-0.366,115927
0.012,-0.004,1.003,-0.183,115953
0.013,-0.003,1.002,-0.366,115977
0.015,-0.003,1.005,-0.183,116000
0.017,-0.003,1.001,-0.244,116027
0.017,-0.004,1.007,-0.122,116051
0.015,-0.003,0.997,-0.183,116078
0.015,-0.006,1.008,-0.183,116106
0.014,-0.002,0.997,0.0,116132
0.012,-0.005,1.002,-0.549,116157
0.013,-0.004,0.998,0.0,116182
0.013,-0.01,1.005,-0.549,116208
0.012,-0.004,0.998,0.183,116231
0.014,-0.007,1.003,-0.244,116256
0.014,-0.005,1.003,-0.244,116284
0.016,-0.004,1.002,-0.122,116314
0.015,-0.002,1.007,-0.244,116340
0.016,-0.003,1.0,-0.244,116368
0.014,-0.005,1.004,-0.244,116397
0.014,-0.003,1.002,-0.122,116420
0.015,-0.004,1.002,-0.183,116445
0.011,-0.004,1.001,0.0,116471
0.015,-0.006,1.003,-0.122,116498
0.014,-0.009,1.005,-0.183,116524
0.013,-0.006,1.002,-0.122,116551
0.014,-0.006,1.002,-0.305,116575
0.015,-0.006,1.005,-0.305,116601
0.016,-0.004,1.004,-0.061,116630
0.015,-0.005,1.005,-0.061,116654
0.013,-0.003,1.003,-0.183,116679
0.016,-0.003,1.002,-0.122,116703
0.015,-0.005,1.003,-0.122,116729
0.015,-0.005,1.001,-0.244,116755
0.014,-0.006,1.002,0.0,116779
0.014,-0.008,1.001,-0.244,116805
0.014,-0.006,1.004,-0.122,116830
0.012,-0.003,1.003,-0.061,116855
0.013,-0.006,1.001,-0.244,116881
0.013,-0.005,1.0,-0.244,116906
0.014,-0.0,1.002,-0.122,116930
0.015,-0.003,1.004,-0.244,116955
0.015,-0.003,1.003,-0.244,116980
0.016,-0.005,1.002,-0.122,117005
0.015,-0.006,1.003,-0.122,117035
0.014,-0.005,1.004,-0.183,117057
0.013,-0.006,1.001,-0.244,117082
0.013,-0.006,1.003,-0.122,117111
0.012,-0.005,1.004,-0.122,117137
0.012,-0.005,1.001,-0.122,117165
0.013,-0.006,1.004,-0.183,117192
0.014,-0.004,1.003,-0.122,117218
0.016,-0.004,1.003,-0.305,117243
0.017,-0.006,1.002,-0.183,117268
0.015,-0.005,1.003,-0.122,117294
0.014,-0.005,1.003,-0.305,117321
0.016,-0.004,1.004,-0.244,117345
0.013,-0.004,1.003,-0.122,117369
0.012,-0.005,1.003,-0.183,117395
0.013,-0.005,1.001,-0.183,117420
0.013,-0.006,1.0,-0.183,117449
0.015,-0.007,1.002,-0.366,117476
0.013,-0.006,1.004,-0.244,117501
0.015,-0.004,1.002,-0.366,117526
0.015,-0.005,1.003,-0.122,117552
0.016,-0.003,1.004,-0.305,117578
0.016,-0.003,1.002,-0.244,117601
0.015,-0.003,1.002,-0.244,117626
0.014,-0.004,1.002,-0.061,117649
0.012,-0.004,1.002,-0.122,117672
0.014,-0.005,1.003,-0.183,117695
0.014,-0.005,1.003,-0.122,117720
0.013,-0.005,1.002,-0.244,117747
0.015,-0.005,1.003,-0.305,117773
0.014,-0.006,1.004,-0.305,117797
0.013,-0.005,1.003,-0.427,117822
0.014,-0.004,1.001,-0.244,117847
0.013,-0.003,1.005,-0.061,117873
0.014,-0.003,1.004,-0.244,117900
0.014,-0.004,1.002,-0.183,117928
0.014,-0.007,1.005,-0.122,117954
0.015,-0.006,1.002,-0.183,117981
0.014,-0.005,1.002,-0.183,118007
0.013,-0.006,1.001,-0.122,118031
0.012,-0.006,1.002,0.0,118056
0.013,-0.004,1.001,-0.305,118081
0.012,-0.005,1.002,-0.183,118106
0.012,-0.004,1.002,-0.183,118130
0.011,-0.004,1.002,-0.244,118154
0.015,-0.003,1.004,-0.305,118180
0.014,-0.005,1.003,-0.122,118208
0.015,-0.005,1.003,-0.305,118232
0.015,-0.005,1.002,-0.244,118258
0.014,-0.005,1.002,-0.244,118283
0.014,-0.003,1.0,-0.183,118306
0.012,-0.007,1.004,-0.244,118332
0.012,-0.005,1.003,-0.244,118358
0.013,-0.004,1.001,-0.122,118383
0.015,-0.006,1.002,-0.061,118409
0.015,-0.004,1.002,-0.122,118432
0.016,-0.004,1.002,-0.244,118458
0.017,-0.005,1.004,-0.305,118482
0.015,-0.005,1.003,-0.427,118506
0.014,-0.004,1.002,-0.183,118530
0.015,-0.002,1.002,-0.183,118556
0.014,-0.005,1.002,-0.305,118581
0.012,-0.005,1.004,-0.122,118607
0.015,-0.006,1.002,-0.061,118631
0.014,-0.005,1.004,-0.061,118655
0.014,-0.007,1.0,-0.305,118683
0.014,-0.006,1.006,-0.244,118709
0.015,-0.006,1.005,-0.366,118732
0.014,-0.006,1.002,0.0,118759
0.015,-0.006,1.005,-0.488,118783
0.014,-0.004,1.003,-0.061,118808
0.014,-0.004,1.004,-0.122,118832
0.014,-0.002,1.004,-0.183,118859
0.014,-0.003,1.002,-0.183,118887
0.014,-0.003,1.0,-0.061,118914
0.015,-0.006,1.005,-0.305,118941
0.012,-0.005,1.002,0.0,118966
0.015,-0.005,1.001,-0.183,118990
0.013,-0.007,1.005,-0.122,119014
0.013,-0.005,1.0,-0.183,119039
0.012,-0.005,1.001,-0.305,119064
0.012,-0.006,1.003,-0.122,119089
0.014,-0.003,1.003,-0.122,119117
0.015,-0.004,1.001,-0.305,119143
0.014,-0.004,1.003,-0.244,119170
0.017,-0.003,1.002,-0.305,119198
0.016,-0.005,1.0,-0.305,119222
0.014,-0.003,1.003,-0.061,119247
0.013,-0.004,1.003,-0.244,119272
0.014,-0.005,1.001,-0.244,119297
0.014,-0.004,1.002,-0.183,119322
0.015,-0.005,1.0,-0.122,119346
0.013,-0.004,1.005,-0.183,119372
0.015,-0.005,1.003,-0.183,119395
0.016,-0.004,1.003,-0.122,119420
0.014,-0.005,1.002,-0.244,119444
0.015,-0.005,1.001,-0.244,119471
0.014,-0.004,1.003,-0.244,119498
0.014,-0.003,0.999,-0.244,119523
0.014,-0.005,1.0,-0.305,119548
0.013,-0.005,1.003,-0.244,119574
0.013,-0.006,1.002,-0.183,119600
0.014,-0.006,1.001,-0.061,119625
0.014,-0.005,1.004,-0.305,119649
0.013,-0.004,1.003,-0.305,119673
0.016,-0.002,1.003,-0.244,119702
0.016,-0.002,1.005,-0.122,119729
0.014,-0.002,1.002,-0.061,119757
0.015,-0.004,1.002,-0.244,119782
0.013,-0.004,1.002,-0.183,119810
0.013,-0.004,1.003,-0.183,119835
0.013,-0.005,1.001,-0.183,119859
0.014,-0.007,1.003,-0.061,119883
0.013,-0.005,1.001,-0.122,119911
0.016,-0.004,1.002,-0.244,119935
0.015,-0.004,1.004,-0.183,119959
0.016,-0.004,1.004,-0.244,119983
0.015,-0.002,1.002,-0.244,120010
0.014,-0.002,1.005,-0.122,120035
0.015,-0.005,1.002,-0.183,120062
0.015,-0.004,1.003,-0.122,120086
0.013,-0.004,1.002,-0.061,120111
0.013,-0.007,1.0,-0.183,120138
0.014,-0.007,1.006,-0.244,120164
0.014,-0.004,1.001,0.061,120190
0.014,-0.003,1.001,-0.244,120216
0.014,-0.004,1.002,-0.183,120239
0.013,-0.004,1.002,-0.305,120265
0.015,-0.003,1.001,-0.305,120290
0.013,-0.004,1.005,-0.305,120318
0.012,-0.005,1.002,-0.183,120345
0.017,-0.003,1.002,-0.427,120369
0.015,-0.006,1.004,-0.122,120395
0.014,-0.004,1.002,-0.122,120421
0.012,-0.005,1.003,-0.244,120447
0.014,-0.004,1.003,-0.244,120470
0.014,-0.004,1.001,-0.183,120494
0.012,-0.004,1.002,-0.427,120521
0.015,-0.004,1.002,-0.122,120548
0.014,-0.003,1.003,-0.244,120573
0.016,-0.005,1.003,-0.305,120599
0.015,-0.005,1.002,-0.305,120627
0.014,-0.005,1.005,-0.122,120651
0.014,-0.003,1.002,-0.183,120674
0.013,-0.004,1.003,-0.122,120699
0.014,-0.003,1.002,-0.122,120725
0.014,-0.005,1.003,-0.305,120750
0.015,-0.004,1.001,-0.061,120775
0.014,-0.004,1.002,-0.183,120800
0.014,-0.006,1.002,-0.244,120826
0.015,-0.005,1.003,-0.122,120853
0.015,-0.005,1.004,-0.305,120878
0.013,-0.005,1.0,-0.244,120903
0.013,-0.005,1.003,-0.122,120932
0.014,-0.004,1.002,-0.366,120961
0.014,-0.003,1.003,-0.061,120986
0.014,-0.003,1.004,-0.183,121010
0.014,-0.005,1.003,-0.244,121035
0.014,-0.004,1.001,-0.122,121059
0.014,-0.006,1.0,-0.427,121084
0.016,-0.006,1.003,-0.183,121108
0.015,-0.004,1.0,-0.061,121135
0.015,-0.004,1.001,-0.366,121162
0.015,-0.004,1.004,-0.244,121189
0.014,-0.005,1.004,-0.122,121216
0.012,-0.004,0.999,-0.305,121241
0.014,-0.004,1.001,-0.427,121267
0.015,-0.002,1.004,-0.183,121291
0.014,-0.004,1.001,-0.183,121316
0.015,-0.005,1.003,-0.244,121340
0.014,-0.005,1.003,-0.244,121365
0.014,-0.005,1.003,-0.183,121391
0.013,-0.005,1.003,-0.183,121416
0.014,-0.005,1.002,-0.244,121444
0.014,-0.004,1.004,-0.122,121469
0.012,-0.003,1.004,-0.305,121496
0.015,-0.004,1.003,-0.244,121519
0.015,-0.004,1.002,-0.183,121545
0.014,-0.004,1.001,-0.244,121568
0.015,-0.006,1.003,-0.183,121594
0.017,-0.003,1.001,-0.244,121619
0.015,-0.005,1.003,-0.183,121644
0.014,-0.004,1.003,-0.122,121668
0.014,-0.004,1.003,-0.305,121692
0.013,-0.004,1.002,-0.244,121719
0.014,-0.003,1.002,-0.183,121743
0.013,-0.006,1.002,-0.305,121767
0.014,-0.005,1.002,-0.183,121790
0.014,-0.004,1.001,-0.183,121818
0.014,-0.004,1.003,-0.122,121844
0.015,-0.004,1.003,-0.366,121869
0.014,-0.005,1.004,-0.122,121895
0.013,-0.003,1.0,-0.366,121922
0.014,-0.004,1.002,0.0,121947
0.012,-0.002,1.005,-0.244,121971
0.015,-0.002,1.004,-0.122,121996
0.014,-0.004,1.001,0.122,122021
0.017,-0.005,1.002,-0.183,122045
0.015,-0.006,1.004,0.061,122069
0.013,-0.007,1.0,-0.061,122095
0.013,-0.008,1.001,-0.183,122124
0.012,-0.008,1.004,-0.244,122150
0.012,-0.006,1.003,-0.244,122175
0.013,-0.006,1.0,-0.305,122198
0.015,-0.004,1.007,-0.183,122224
0.017,-0.004,1.003,-0.183,122250
0.017,-0.0,1.004,-0.183,122277
0.016,-0.002,1.004,-0.061,122302
0.015,-0.004,1.004,-0.122,122328
0.014,-0.004,1.001,-0.183,122355
0.013,-0.006,1.002,-0.244,122379
0.012,-0.006,1.0,-0.122,122404
0.012,-0.008,1.001,-0.305,122430
0.011,-0.007,1.003,0.0,122453
0.013,-0.006,1.0,-0.366,122480
0.015,-0.005,1.002,-0.305,122504
0.015,-0.003,1.004,-0.244,122532
0.017,-0.0,1.003,-0.244,122557
0.018,-0.001,1.003,-0.244,122582
0.016,-0.003,1.004,0.0,122606
0.016,-0.0,1.004,-0.305,122631
0.016,-0.005,1.001,-0.305,122655
0.014,-0.004,1.002,-0.122,122678
0.012,-0.009,1.0,-0.244,122702
0.007,-0.016,0.996,-0.061,122726
0.008,-0.011,1.015,-0.488,122753
0.008,-0.003,1.005,0.244,122778
0.01,-0.003,0.994,-0.671,122803
0.021,-0.008,1.01,-0.366,122829
0.024,-0.002,1.008,0.244,122855
0.023,0.003,0.998,-0.183,122880
0.023,0.0,1.008,-0.061,122905
0.017,0.002,1.003,0.0,122930
0.016,-0.0,1.001,-0.549,122954
0.013,0.0,1.006,0.244,122980
0.01,-0.004,1.0,-0.061,123007
0.01,-0.012,0.999,-0.427,123035
0.009,-0.011,1.0,0.122,123061
0.009,-0.009,0.997,-0.122,123088
0.011,-0.009,0.998,-0.366,123113
0.012,-0.008,1.003,-0.244,123138
0.015,-0.003,1.005,-0.244,123164
0.017,-0.002,1.001,-0.244,123189
0.018,-0.001,1.004,-0.122,123215
0.017,0.0,1.005,-0.305,123241
0.018,0.0,1.003,-0.122,123267
0.016,0.001,1.005,-0.061,123294
0.015,-0.002,1.004,-0.305,123319
0.015,-0.008,1.003,-0.183,123345
0.013,-0.008,1.003,-0.122,123370
0.011,-0.007,1.004,-0.305,123397
0.012,-0.01,0.988,-0.366,123426
0.018,-0.008,1.029,-0.061,123451
0.018,0.006,0.993,-0.549,123475
0.023,-0.002,1.008,-1.038,123500
0.018,0.009,0.991,0.793,123525
0.022,-0.012,1.004,-1.587,123553
0.015,-0.005,1.005,0.488,123582
0.002,0.0,1.007,0.732,123607
0.002,-0.01,0.996,-1.038,123632
0.007,-0.02,1.002,0.488,123660
0.006,-0.015,0.994,-0.305,123686
0.017,-0.017,1.0,-0.916,123712
0.018,-0.014,0.999,0.122,123737
0.016,-0.007,1.003,-0.244,123762
0.02,0.001,1.006,-0.488,123787
0.014,0.007,1.001,0.0,123811
0.017,0.004,1.003,-0.488,123835
0.018,0.001,1.01,-0.183,123860
0.014,0.0,1.002,0.0,123885
0.016,-0.003,1.001,-0.244,123913
0.014,-0.008,1.005,0.061,123940
0.016,-0.014,1.001,-0.244,123964
0.014,-0.016,0.999,-0.305,123988
0.011,-0.014,1.0,-0.183,124015
0.01,-0.012,0.991,-0.488,124040
0.005,-0.005,1.031,1.099,124065
0.015,0.002,0.988,-2.808,124091
0.018,-0.005,1.037,1.892,124115
0.019,0.01,0.972,-1.282,124140
0.031,-0.015,1.024,-2.38,124164
0.024,-0.003,0.989,-0.183,124190
0.026,-0.011,1.012,-0.854,124216
0.01,0.002,0.999,0.793,124241
0.009,-0.01,1.001,-0.793,124265
0.007,-0.013,0.991,-0.793,124292
0.003,-0.009,1.011,0.366,124317
0.007,-0.008,0.989,-0.793,124344
0.013,-0.012,1.011,-0.183,124370
0.013,-0.002,1.003,0.549,124395
0.019,-0.008,1.004,-1.16,124418
0.021,0.0,1.007,0.427,124443
0.021,0.001,1.004,-0.488,124470
0.022,-0.005,1.004,-0.427,124494
0.017,-0.003,1.001,-0.122,124522
0.009,0.0,1.007,0.122,124550
0.01,-0.006,1.001,-0.549,124575
0.008,-0.012,1.001,0.0,124600
0.01,-0.013,0.997,-0.183,124624
0.014,-0.013,1.008,-0.244,124652
0.01,-0.006,0.989,0.488,124676
0.017,-0.009,1.0,-1.587,124703
0.014,0.002,0.997,0.854,124728
0.019,-0.0,0.995,-1.282,124755
0.024,-0.007,1.017,0.0,124780
0.014,0.003,1.0,-0.488,124806
0.015,-0.003,1.009,-0.305,124832
0.015,-0.005,1.003,0.183,124857
0.015,-0.008,1.0,-0.366,124881
0.016,-0.012,0.999,0.0,124905
0.011,-0.01,1.002,0.183,124930
0.013,-0.017,0.998,-0.488,124954
0.012,-0.01,1.002,0.0,124980
0.012,-0.002,1.001,-0.122,125007
0.013,-0.002,1.005,-0.427,125032
0.013,-0.002,1.001,-0.061,125059
0.014,-0.002,1.005,-0.244,125083
0.016,-0.0,1.001,-0.061,125108
0.018,-0.0,1.012,-0.061,125134
0.019,-0.001,0.993,0.366,125160
0.019,-0.009,0.997,-1.099,125185
0.014,-0.005,1.003,0.61,125209
0.017,-0.013,1.002,-1.038,125234
0.009,-0.01,1.003,0.061,125259
0.004,-0.004,0.999,0.0,125284
0.007,-0.007,1.001,-0.427,125311
0.01,-0.007,1.003,0.122,125336
0.015,-0.006,1.001,-0.366,125360
0.02,-0.007,1.004,-0.366,125384
0.02,-0.003,1.005,0.061,125408
0.019,-0.001,1.004,-0.366,125434
0.019,-0.003,1.005,-0.244,125458
0.018,-0.002,1.003,-0.366,125482
0.014,-0.002,1.004,-0.305,125509
0.01,-0.004,1.0,-0.305,125537
0.008,-0.005,1.002,-0.061,125561
0.009,-0.008,1.0,-0.244,125586
0.011,-0.01,1.001,-0.122,125610
0.014,-0.012,1.002,-0.061,125634
0.016,-0.012,1.002,-0.305,125661
0.017,-0.008,1.003,-0.122,125686
0.017,-0.001,1.001,-0.244,125712
0.016,0.001,1.006,-0.244,125738
0.015,0.001,1.003,-0.122,125763
0.013,-0.0,1.005,-0.305,125790
0.012,-0.001,1.002,-0.183,125815
0.013,-0.003,1.002,0.0,125839
0.017,-0.008,1.0,-0.61,125868
0.016,-0.015,1.007,0.0,125893
0.012,-0.01,0.994,-0.305,125917
0.016,-0.014,1.01,-0.427,125943
0.011,-0.005,0.994,0.061,125967
0.012,-0.005,1.001,-0.549,125993
0.012,-0.004,1.006,-0.122,126019
0.011,0.001,1.0,0.0,126044
0.017,-0.001,1.003,-0.366,126070
0.016,-0.001,1.005,0.122,126094
0.017,-0.004,1.001,-0.305,126119
0.019,-0.008,1.002,-0.061,126144
0.016,-0.007,1.002,0.0,126168
0.015,-0.01,1.0,-0.366,126194
0.012,-0.01,1.0,-0.061,126219
0.01,-0.008,1.001,-0.305,126243
0.009,-0.005,1.002,-0.305,126268
0.011,-0.004,1.003,-0.122,126293
0.014,-0.004,1.002,-0.427,126318
0.016,-0.003,1.003,-0.183,126342
0.02,-0.003,1.004,-0.122,126367
0.02,-0.006,1.003,-0.305,126393
0.02,-0.005,1.006,-0.305,126420
0.017,-0.005,1.002,-0.183,126444
0.012,-0.004,1.002,-0.305,126470
0.009,-0.006,1.001,-0.305,126496
0.009,-0.007,1.0,-0.244,126522
0.01,-0.006,1.0,-0.122,126545
0.01,-0.008,1.001,-0.122,126572
0.013,-0.007,1.0,-0.122,126600
0.018,-0.007,1.002,-0.244,126626
0.018,-0.005,1.006,-0.061,126650
0.017,-0.002,1.004,-0.122,126676
0.016,-0.004,1.002,-0.305,126703
0.014,-0.002,1.005,-0.244,126729
0.011,-0.001,1.002,-0.305,126755
0.011,-0.003,1.005,-0.183,126779
0.012,-0.007,1.0,0.0,126801
0.013,-0.009,0.999,-0.122,126826
0.015,-0.01,1.004,-0.183,126853
0.015,-0.01,1.002,-0.122,126878
0.015,-0.008,1.002,-0.244,126902
0.015,-0.006,1.001,-0.183,126926
0.014,-0.002,1.003,-0.244,126951
0.013,-0.001,1.002,-0.305,126976
0.015,-0.002,1.003,-0.122,127003
0.012,-0.0,1.004,-0.244,127026
0.016,-0.003,1.003,-0.183,127051
0.017,-0.005,1.003,-0.122,127075
0.017,-0.007,1.003,-0.061,127103
0.014,-0.008,1.0,-0.183,127128
0.014,-0.009,1.001,-0.061,127154
0.013,-0.008,1.001,-0.183,127179
0.01,-0.006,1.002,-0.183,127206
0.011,-0.005,1.003,-0.305,127233
0.013,-0.003,1.004,-0.061,127260
0.014,-0.002,1.003,-0.122,127286
0.017,-0.002,1.003,-0.061,127313
0.017,-0.004,1.004,-0.244,127337
0.018,-0.007,1.003,-0.122,127361
0.016,-0.006,1.004,0.061,127390
0.014,-0.006,1.0,-0.244,127415
0.013,-0.008,1.001,-0.244,127441
0.01,-0.005,0.998,-0.244,127465
0.009,-0.005,1.0,-0.244,127488
0.012,-0.006,1.002,-0.183,127519
0.015,-0.004,1.003,-0.122,127547
0.014,-0.006,1.002,-0.244,127573
0.017,-0.005,1.002,-0.061,127598
0.018,-0.003,1.003,-0.305,127623
0.016,-0.004,1.002,-0.244,127648
0.015,-0.003,1.004,-0.366,127672
0.014,-0.003,1.002,-0.183,127696
0.013,-0.006,1.003,-0.366,127720
0.012,-0.005,1.004,-0.122,127745
0.01,-0.007,1.0,-0.244,127772
0.014,-0.009,1.002,-0.366,127799
0.015,-0.008,1.003,-0.122,127824
0.014,-0.008,1.002,-0.305,127852
0.016,-0.007,1.005,-0.488,127877
0.015,-0.004,1.004,-0.183,127902
0.015,-0.003,1.002,-0.244,127926
0.014,-0.001,1.002,-0.122,127951
0.014,-0.002,1.002,-0.244,127976
0.016,-0.004,1.003,-0.244,128000
0.013,-0.005,1.002,0.061,128025
0.014,-0.006,1.001,-0.061,128053
0.015,-0.009,1.0,-0.488,128081
0.013,-0.009,1.0,-0.122,128106
0.013,-0.006,1.002,-0.427,128135
0.013,-0.005,1.003,-0.366,128161
0.012,-0.005,1.001,-0.244,128189
0.012,-0.002,1.005,-0.305,128215
0.013,-0.002,1.002,-0.061,128239
0.015,-0.004,1.003,-0.366,128266
0.016,-0.004,1.004,-0.183,128291
0.017,-0.005,1.001,-0.122,128316
0.016,-0.009,1.003,-0.244,128340
0.014,-0.007,1.0,-0.244,128363
0.014,-0.007,1.001,-0.366,128390
0.012,-0.005,1.001,-0.244,128416
0.011,-0.005,1.0,-0.305,128442
0.011,-0.005,1.003,-0.183,128467
0.013,-0.005,1.0,-0.244,128494
0.016,-0.005,1.002,-0.244,128518
0.016,-0.004,1.003,-0.122,128544
0.017,-0.004,1.003,-0.122,128571
0.018,-0.005,1.002,-0.244,128597
0.015,-0.003,1.001,-0.244,128623
0.013,-0.005,0.999,-0.122,128649
0.012,-0.006,1.005,-0.183,128675
0.01,-0.006,1.003,-0.122,128700
0.012,-0.006,1.0,-0.183,128727
0.013,-0.008,1.004,0.061,128750
0.014,-0.007,1.001,-0.183,128774
0.017,-0.006,1.003,-0.183,128798
0.015,-0.005,1.002,-0.183,128823
0.016,-0.004,1.003,-0.244,128847
0.016,-0.002,1.001,-0.244,128874
0.014,-0.003,1.004,-0.244,128899
0.014,-0.004,1.003,-0.061,128923
0.014,-0.004,1.002,-0.244,128946
0.013,-0.005,1.001,-0.122,128971
0.012,-0.006,1.0,-0.183,128998
0.014,-0.008,1.001,-0.122,129023
0.014,-0.006,1.001,-0.061,129049
0.014,-0.008,1.003,-0.244,129075
0.015,-0.006,1.004,-0.244,129100
0.015,-0.004,1.002,-0.244,129125
0.013,-0.004,1.003,-0.305,129154
0.014,-0.003,1.002,-0.061,129182
0.014,-0.002,1.003,-0.244,129209
0.015,-0.005,1.002,-0.183,129234
0.016,-0.006,1.004,-0.244,129260
0.013,-0.007,1.003,-0.061,129289
0.014,-0.007,1.0,-0.122,129315
0.013,-0.006,1.002,-0.183,129339
0.013,-0.005,1.002,-0.244,129366
0.011,-0.005,1.001,-0.183,129390
0.013,-0.005,1.002,-0.183,129416
0.015,-0.004,1.003,-0.305,129441
0.014,-0.003,1.003,-0.122,129466
0.016,-0.006,1.004,-0.183,129492
0.016,-0.005,1.004,-0.122,129517
0.016,-0.006,1.001,-0.122,129543
0.015,-0.006,1.002,-0.305,129568
0.012,-0.006,1.003,-0.183,129593
0.013,-0.007,1.001,-0.244,129618
0.012,-0.007,1.003,-0.244,129645
0.012,-0.005,1.002,-0.061,129670
0.013,-0.006,1.002,-0.244,129694
0.015,-0.006,1.002,-0.244,129720
0.014,-0.007,1.002,-0.122,129747
0.016,-0.004,1.003,-0.244,129770
0.016,-0.005,1.003,-0.183,129797
0.016,-0.004,1.004,-0.366,129821
0.014,-0.004,1.002,-0.244,129850
0.013,-0.006,1.003,-0.183,129875
0.013,-0.003,1.001,0.061,129901
0.012,-0.006,1.003,-0.305,129928
0.013,-0.006,1.002,-0.122,129951
0.014,-0.006,1.003,-0.183,129976
0.014,-0.007,1.003,-0.183,130003
0.016,-0.006,1.002,-0.183,130030
0.016,-0.007,1.001,-0.305,130056
0.014,-0.005,1.004,-0.244,130081
0.013,-0.004,1.002,-0.305,130106
0.014,-0.002,1.003,-0.183,130132
0.013,-0.004,1.0,-0.244,130158
0.014,-0.005,1.004,-0.244,130186
0.014,-0.006,1.002,-0.183,130213
0.014,-0.009,1.002,-0.244,130240
0.015,-0.007,1.002,-0.183,130265
0.013,-0.006,1.002,-0.305,130293
0.014,-0.006,1.004,-0.244,130320
0.013,-0.003,1.002,0.0,130346
0.013,-0.004,1.003,-0.122,130371
0.013,-0.004,1.002,-0.244,130396
0.014,-0.003,1.002,-0.305,130423
0.015,-0.006,1.002,-0.366,130449
0.014,-0.006,1.003,-0.244,130473
0.015,-0.005,1.002,-0.305,130498
0.015,-0.007,1.001,-0.305,130523
0.014,-0.007,1.004,-0.122,130550
0.012,-0.006,1.001,-0.244,130575
0.014,-0.006,1.001,-0.122,130602
0.011,-0.006,1.003,-0.122,130628
0.014,-0.007,1.002,-0.244,130652
0.014,-0.005,1.002,-0.305,130676
0.016,-0.005,1.001,-0.122,130704
0.016,-0.004,1.002,-0.122,130732
0.016,-0.006,1.001,-0.183,130760
0.015,-0.006,1.004,-0.183,130784
0.014,-0.005,1.002,-0.061,130808
0.014,-0.007,1.002,-0.244,130834
0.011,-0.004,1.001,-0.244,130858
0.013,-0.004,1.002,-0.061,130884
0.014,-0.006,1.001,-0.183,130908
0.015,-0.007,1.002,-0.183,130933
0.015,-0.005,1.002,-0.244,130961
0.015,-0.006,1.001,-0.244,130988
0.016,-0.005,1.002,-0.183,131013
0.013,-0.003,1.002,-0.183,131036
0.014,-0.004,1.002,-0.122,131061
0.012,-0.003,1.001,-0.244,131088
0.013,-0.004,1.002,0.0,131114
0.014,-0.005,1.001,-0.122,131140
0.013,-0.006,1.001,-0.305,131164
0.014,-0.006,1.004,-0.122,131189
0.014,-0.006,1.001,-0.122,131213
0.016,-0.007,0.999,-0.366,131237
0.013,-0.005,1.003,-0.183,131263
0.013,-0.003,1.002,-0.183,131288
0.014,-0.004,1.002,-0.183,131313
0.013,-0.004,1.003,-0.122,131340
0.013,-0.004,1.002,-0.122,131365
0.016,-0.006,1.003,-0.183,131392
0.016,-0.005,1.003,-0.122,131419
0.014,-0.006,1.002,-0.183,131445
0.015,-0.007,1.001,-0.244,131470
0.014,-0.006,1.006,-0.244,131495
0.013,-0.007,1.0,-0.061,131520
0.014,-0.006,1.002,-0.244,131546
0.016,-0.004,1.003,-0.183,131575
0.014,-0.005,1.002,-0.244,131600
0.014,-0.006,1.003,-0.183,131627
0.015,-0.006,1.005,-0.122,131653
0.015,-0.005,1.002,-0.122,131682
0.016,-0.006,1.003,-0.305,131706
0.014,-0.006,1.002,-0.061,131732
0.014,-0.005,1.001,-0.244,131758
0.013,-0.006,1.001,-0.244,131782
0.011,-0.005,1.004,-0.122,131807
0.014,-0.004,1.003,-0.183,131834
0.016,-0.007,1.002,-0.244,131860
0.015,-0.006,1.002,-0.244,131885
0.014,-0.005,1.001,-0.183,131909
0.015,-0.005,1.002,-0.183,131935
0.015,-0.004,1.003,-0.244,131960
0.013,-0.005,1.003,-0.183,131985
0.013,-0.005,0.999,-0.366,132011
0.013,-0.007,1.004,-0.122,132037
0.014,-0.005,1.002,-0.122,132061
0.012,-0.006,1.001,0.061,132085
0.014,-0.005,1.002,-0.244,132111
0.015,-0.006,1.002,-0.183,132137
0.015,-0.006,1.004,-0.061,132163
0.014,-0.005,1.001,-0.183,132187
0.015,-0.006,1.002,-0.244,132214
0.014,-0.005,1.004,-0.183,132237
0.015,-0.004,0.999,-0.244,132262
0.014,-0.004,1.005,-0.244,132287
0.014,-0.005,1.0,-0.183,132311
0.014,-0.005,1.003,-0.244,132336
0.014,-0.005,1.002,-0.183,132361
0.014,-0.005,1.003,-0.061,132384
0.014,-0.005,1.001,-0.183,132410
0.015,-0.005,1.002,-0.366,132437
0.014,-0.006,1.003,-0.244,132462
0.015,-0.005,1.002,-0.122,132488
0.015,-0.004,1.003,-0.122,132517
0.013,-0.005,1.002,-0.122,132545
0.014,-0.005,1.004,-0.305,132571
0.015,-0.005,1.003,-0.061,132599
0.013,-0.006,1.001,-0.183,132625
0.016,-0.005,1.003,-0.244,132651
0.014,-0.005,1.005,-0.244,132675
0.014,-0.007,1.001,-0.183,132699
0.014,-0.005,1.003,-0.183,132724
0.013,-0.005,1.002,-0.244,132748
0.015,-0.004,1.003,-0.305,132774
0.015,-0.004,1.002,-0.122,132799
0.014,-0.003,1.003,-0.122,132823
0.015,-0.005,1.001,-0.122,132847
0.015,-0.006,1.002,-0.122,132873
0.015,-0.007,1.003,-0.122,132898
0.015,-0.007,1.002,-0.305,132922
0.015,-0.005,1.003,-0.122,132949
0.013,-0.006,1.001,-0.183,132974
0.013,-0.006,1.002,-0.183,132998
0.013,-0.005,1.002,-0.183,133024
0.013,-0.005,1.002,-0.305,133050
0.015,-0.005,1.002,-0.183,133074
0.014,-0.005,1.002,-0.244,133100
0.015,-0.005,1.003,-0.122,133125
0.016,-0.006,1.002,-0.244,133148
0.014,-0.006,1.001,-0.305,133175
0.014,-0.004,1.003,-0.427,133199
0.013,-0.005,1.002,-0.122,133225
0.014,-0.004,1.001,-0.183,133253
0.013,-0.004,1.003,-0.183,133278
0.015,-0.005,1.002,-0.122,133306
0.015,-0.005,1.003,-0.122,133332
0.014,-0.005,1.004,-0.305,133357
0.015,-0.004,1.001,-0.305,133381
0.014,-0.006,1.002,-0.244,133405
0.015,-0.006,1.004,-0.183,133432
0.016,-0.005,1.001,-0.305,133458
0.013,-0.005,1.004,-0.244,133483
0.014,-0.004,1.003,-0.244,133510
0.012,-0.005,1.003,-0.122,133536
0.014,-0.006,1.0,-0.183,133561
0.015,-0.007,1.001,-0.183,133585
0.013,-0.006,1.004,-0.183,133612
0.015,-0.007,1.003,-0.244,133638
0.014,-0.006,1.0,-0.122,133665
0.013,-0.005,1.003,-0.183,133690
0.013,-0.006,1.003,-0.183,133717
0.014,-0.005,1.002,-0.305,133742
0.015,-0.005,1.004,-0.183,133766
0.015,-0.004,1.003,-0.183,133789
0.015,-0.006,1.005,-0.244,133814
0.015,-0.005,1.002,-0.244,133841
0.014,-0.006,1.004,-0.122,133865
0.014,-0.006,1.001,-0.244,133890
0.014,-0.006,1.002,-0.305,133916
0.014,-0.006,1.001,-0.122,133941
0.013,-0.006,1.005,-0.244,133967
0.013,-0.006,1.001,-0.122,133992
0.015,-0.005,1.0,-0.183,134018
0.015,-0.006,1.002,-0.122,134044
0.015,-0.006,1.002,-0.183,134069
0.016,-0.006,1.003,-0.061,134095
0.015,-0.006,1.001,-0.122,134120
0.015,-0.005,1.001,-0.244,134143
0.015,-0.006,1.004,-0.244,134166
0.012,-0.005,1.002,-0.244,134191
0.014,-0.007,1.002,-0.061,134216
0.014,-0.005,1.003,-0.122,134245
0.013,-0.006,1.002,-0.244,134270
0.014,-0.004,1.002,-0.244,134297
0.015,-0.007,1.003,-0.122,134321
0.014,-0.004,1.003,-0.244,134349
0.015,-0.004,1.003,-0.305,134372
0.015,-0.005,1.005,-0.305,134397
0.014,-0.005,1.004,-0.244,134423
0.014,-0.005,1.002,-0.305,134450
0.013,-0.005,1.003,-0.244,134475
0.015,-0.006,1.004,-0.244,134500
0.014,-0.006,1.002,-0.244,134528
0.015,-0.005,1.003,-0.122,134554
0.014,-0.006,1.002,-0.244,134577
0.013,-0.005,1.002,-0.305,134601
0.016,-0.005,1.004,0.0,134627
0.013,-0.005,1.002,-0.183,134653
0.014,-0.006,1.004,-0.122,134680
0.015,-0.005,1.003,-0.122,134706
0.013,-0.007,1.003,-0.183,134732
0.014,-0.005,1.002,-0.183,134758
0.014,-0.006,1.004,-0.244,134783
0.015,-0.005,1.002,-0.244,134808
0.013,-0.005,1.004,-0.366,134832
0.015,-0.005,1.002,-0.183,134856
0.014,-0.004,1.003,-0.244,134883
0.014,-0.005,1.003,-0.244,134908
0.013,-0.004,1.002,-0.183,134935
0.013,-0.005,1.002,-0.244,134961
0.015,-0.005,1.002,0.0,134985
0.014,-0.004,1.0,-0.183,135011
0.016,-0.006,1.002,-0.305,135034
0.015,-0.005,1.003,-0.244,135060
0.014,-0.005,1.002,-0.244,135087
0.015,-0.006,1.003,-0.122,135113
0.015,-0.006,1.002,-0.366,135136
0.014,-0.006,1.002,-0.366,135159
0.013,-0.005,1.002,-0.061,135183
0.014,-0.006,1.003,-0.122,135211
0.015,-0.006,1.0,-0.122,135235
0.013,-0.004,1.002,-0.244,135261
0.015,-0.005,1.002,0.0,135285
0.016,-0.005,1.003,-0.183,135309
0.014,-0.004,1.004,-0.183,135336
0.014,-0.003,1.003,-0.122,135364
0.013,-0.006,1.002,-0.244,135390
0.013,-0.007,1.003,-0.183,135414
0.015,-0.004,1.0,-0.183,135441
0.013,-0.006,1.002,-0.122,135469
0.015,-0.006,1.001,-0.122,135494
0.015,-0.006,1.003,-0.244,135519
0.015,-0.005,1.005,-0.122,135543
0.015,-0.004,1.002,-0.061,135567
0.013,-0.005,1.002,-0.183,135592
0.014,-0.005,1.0,-0.244,135617
0.013,-0.005,1.002,-0.122,135643
0.013,-0.006,1.002,-0.244,135672
0.014,-0.004,1.001,-0.244,135696
0.013,-0.006,1.003,-0.183,135723
0.014,-0.005,1.003,-0.183,135749
0.014,-0.007,1.002,-0.183,135775
0.014,-0.006,1.002,-0.183,135800
0.013,-0.006,1.003,-0.061,135824
0.015,-0.004,1.003,-0.244,135849
0.014,-0.004,1.003,-0.244,135875
0.015,-0.005,1.003,-0.183,135900
0.014,-0.005,1.004,-0.305,135925
0.016,-0.005,1.002,-0.122,135948
0.014,-0.004,1.003,-0.122,135976
0.015,-0.007,1.002,-0.305,136001
0.014,-0.004,1.003,-0.122,136026
0.014,-0.007,1.002,-0.122,136051
0.013,-0.005,1.002,-0.244,136077
0.014,-0.005,1.003,-0.244,136101
0.013,-0.006,1.002,-0.122,136127
0.015,-0.004,1.003,-0.244,136152
0.013,-0.005,1.002,-0.183,136178
0.015,-0.006,1.003,-0.183,136205
0.014,-0.005,1.001,-0.305,136232
0.015,-0.007,1.001,-0.183,136256
0.015,-0.006,1.003,-0.122,136283
0.014,-0.004,1.003,-0.305,136307
0.014,-0.007,1.003,-0.244,136333
0.014,-0.005,1.002,-0.305,136356
0.012,-0.005,1.003,-0.244,136380
0.014,-0.006,1.002,-0.305,136407
0.014,-0.005,1.004,-0.305,136431
0.015,-0.006,1.001,-0.061,136457
0.014,-0.006,1.003,-0.183,136484
0.016,-0.005,1.002,-0.183,136509
0.014,-0.004,1.003,-0.183,136534
0.015,-0.007,1.003,-0.305,136560
0.014,-0.004,1.004,0.0,136584
0.014,-0.006,1.002,-0.183,136608
0.015,-0.006,1.0,-0.244,136633
0.014,-0.005,1.003,-0.061,136656
0.012,-0.005,1.001,-0.183,136681
0.015,-0.006,1.0,-0.305,136706
0.014,-0.006,1.003,-0.305,136732
0.015,-0.007,1.0,-0.244,136757
0.014,-0.005,1.004,-0.122,136785
0.013,-0.004,1.001,-0.305,136810
0.014,-0.005,1.001,-0.244,136833
0.015,-0.004,1.002,-0.061,136858
0.014,-0.004,1.002,-0.061,136884
0.014,-0.005,1.001,-0.122,136907
0.015,-0.005,1.003,-0.183,136932
0.015,-0.006,1.002,-0.366,136955
0.015,-0.004,1.0,-0.244,136981
0.014,-0.006,1.002,-0.244,137007
0.016,-0.006,1.001,-0.183,137032
0.015,-0.004,1.004,-0.183,137060
0.012,-0.006,1.003,-0.183,137084
0.013,-0.006,1.002,-0.244,137110
0.014,-0.005,1.002,-0.183,137135
0.015,-0.004,1.001,-0.305,137162
0.014,-0.006,1.003,-0.183,137189
0.015,-0.005,1.001,-0.122,137213
0.015,-0.005,1.002,-0.122,137237
0.013,-0.007,1.002,-0.183,137262
0.012,-0.006,1.003,-0.183,137288
0.014,-0.004,1.002,-0.244,137318
0.015,-0.005,1.003,-0.122,137342
0.013,-0.006,1.001,-0.244,137366
0.014,-0.005,1.001,-0.183,137391
0.014,-0.005,1.003,-0.183,137418
0.015,-0.005,1.002,-0.183,137444
0.015,-0.007,1.002,-0.244,137469
0.014,-0.004,1.001,0.0,137496
0.013,-0.005,1.002,-0.061,137524
0.014,-0.004,1.003,-0.122,137550
0.014,-0.005,1.003,-0.305,137575
0.012,-0.006,1.002,-0.366,137601
0.015,-0.006,1.002,-0.244,137625
0.014,-0.005,1.003,-0.122,137651
0.015,-0.006,1.003,-0.305,137675
0.015,-0.006,1.002,-0.305,137701
0.015,-0.004,1.003,-0.183,137727
0.013,-0.005,1.002,-0.305,137753
0.014,-0.005,1.002,-0.244,137780
0.014,-0.005,1.002,-0.183,137807
0.014,-0.005,1.004,-0.122,137833
0.013,-0.006,1.002,-0.183,137856
0.015,-0.006,1.003,-0.122,137882
0.013,-0.007,1.003,-0.183,137906
0.015,-0.005,1.002,-0.183,137931
0.014,-0.006,1.003,-0.183,137955
0.015,-0.005,1.003,-0.122,137981
0.013,-0.005,1.003,-0.183,138009
0.014,-0.006,1.002,-0.244,138034
0.014,-0.006,1.002,-0.183,138061
0.015,-0.005,1.004,-0.183,138085
0.015,-0.006,1.002,-0.366,138112
0.015,-0.005,1.003,-0.305,138138
0.013,-0.007,1.002,-0.183,138163
0.013,-0.006,1.003,-0.061,138188
0.013,-0.006,1.002,-0.244,138215
0.012,-0.005,1.003,-0.122,138244
0.014,-0.005,1.002,-0.183,138270
0.013,-0.005,1.004,-0.244,138297
0.014,-0.005,1.005,-0.305,138321
0.015,-0.004,1.002,-0.183,138345
0.015,-0.005,1.004,-0.244,138370
0.015,-0.006,1.003,-0.122,138396
0.015,-0.007,1.004,-0.244,138423
0.014,-0.006,1.002,-0.122,138446
0.014,-0.005,1.003,-0.122,138470
0.013,-0.005,1.001,-0.366,138495
0.014,-0.005,1.003,-0.183,138519
0.014,-0.005,1.001,-0.122,138543
0.015,-0.006,1.001,-0.183,138571
0.014,-0.005,1.002,-0.244,138598
0.015,-0.007,1.002,-0.244,138622
0.013,-0.005,1.003,-0.183,138647
0.015,-0.005,1.003,-0.183,138673
0.015,-0.005,1.002,-0.122,138698
0.014,-0.004,1.003,-0.183,138722
0.014,-0.006,1.003,-0.183,138748
0.015,-0.006,1.003,-0.183,138776
0.013,-0.004,1.002,-0.061,138801
0.014,-0.006,1.0,-0.122,138827
0.014,-0.005,1.001,-0.244,138855
