Acc_X,Acc_Y,Acc_Z,Rot_Z,Millis
0.015,-0.005,1.003,-0.183,138879
0.014,-0.005,1.0,-0.122,138903
0.015,-0.005,1.002,-0.061,138929
0.015,-0.006,1.002,-0.244,138956
0.014,-0.005,1.002,-0.305,138982
0.014,-0.004,1.001,-0.183,139008
0.015,-0.006,1.004,-0.244,139035
0.013,-0.006,1.002,-0.183,139060
0.014,-0.006,1.003,-0.305,139086
0.015,-0.005,1.003,-0.244,139111
0.015,-0.007,1.001,-0.183,139138
0.015,-0.005,1.003,-0.244,139164
0.014,-0.007,1.002,-0.122,139189
0.012,-0.005,1.005,-0.305,139214
0.014,-0.005,1.002,-0.122,139239
0.015,-0.004,1.003,0.0,139265
0.014,-0.006,1.003,-0.244,139289
0.014,-0.005,1.003,-0.244,139313
0.015,-0.005,1.001,-0.122,139338
0.014,-0.007,1.002,-0.366,139364
0.014,-0.005,1.005,-0.244,139388
0.014,-0.006,1.003,-0.244,139412
0.013,-0.006,1.001,-0.305,139438
0.012,-0.005,1.003,-0.244,139462
0.015,-0.005,1.003,-0.305,139486
0.014,-0.005,1.002,-0.244,139513
0.013,-0.007,1.001,-0.122,139539
0.013,-0.005,1.003,-0.122,139564
0.015,-0.006,1.002,-0.244,139589
0.014,-0.007,1.002,-0.122,139614
0.015,-0.006,1.004,-0.122,139642
0.015,-0.005,1.002,-0.122,139667
0.014,-0.006,1.002,-0.305,139693
0.015,-0.006,0.999,-0.183,139718
0.014,-0.005,1.003,-0.061,139744
0.014,-0.006,1.002,-0.244,139768
0.015,-0.006,1.0,-0.244,139791
0.014,-0.005,1.004,-0.122,139814
0.012,-0.006,1.003,-0.305,139840
0.015,-0.004,1.001,-0.244,139864
0.016,-0.006,1.003,-0.183,139890
0.014,-0.006,1.002,-0.244,139916
0.013,-0.005,1.002,-0.305,139941
0.014,-0.004,1.002,-0.305,139966
0.014,-0.006,1.003,-0.244,139990
0.014,-0.005,1.002,-0.061,140013
0.014,-0.007,1.002,-0.122,140041
0.015,-0.008,1.002,-0.244,140066
0.015,-0.006,1.003,-0.244,140093
0.015,-0.004,1.002,-0.183,140118
0.014,-0.004,1.002,-0.244,140143
0.015,-0.005,1.003,-0.305,140167
0.014,-0.006,1.002,-0.244,140194
0.013,-0.007,1.002,-0.244,140219
0.012,-0.004,1.002,-0.366,140242
0.014,-0.006,1.002,-0.305,140269
0.015,-0.006,1.002,-0.366,140294
0.014,-0.006,1.005,-0.183,140317
0.014,-0.005,1.001,-0.061,140344
0.015,-0.006,1.003,-0.183,140369
0.013,-0.003,1.003,-0.305,140395
0.014,-0.004,1.002,-0.366,140423
0.013,-0.005,1.003,-0.183,140447
0.013,-0.005,1.003,-0.183,140474
0.014,-0.005,1.002,-0.244,140498
0.015,-0.005,1.003,-0.122,140524
0.014,-0.004,1.002,-0.183,140550
0.014,-0.006,1.002,-0.244,140575
0.014,-0.004,1.001,-0.183,140600
0.013,-0.006,1.002,-0.244,140627
0.013,-0.005,1.004,-0.183,140652
0.014,-0.006,1.002,-0.305,140677
0.015,-0.005,1.002,-0.183,140701
0.014,-0.004,1.004,-0.122,140726
0.012,-0.004,1.003,-0.122,140750
0.015,-0.006,1.001,-0.305,140776
0.014,-0.007,1.002,-0.122,140801
0.015,-0.004,1.002,0.0,140828
0.014,-0.005,1.003,-0.183,140853
0.016,-0.006,1.002,-0.122,140879
0.013,-0.006,1.004,-0.244,140903
0.015,-0.008,1.002,-0.244,140932
0.014,-0.005,1.003,-0.061,140956
0.014,-0.005,1.001,-0.244,140981
0.014,-0.006,1.003,-0.305,141004
0.015,-0.006,1.004,-0.183,141029
0.015,-0.005,1.001,-0.183,141054
0.016,-0.005,1.002,-0.122,141080
0.014,-0.004,1.005,-0.305,141103
0.014,-0.006,1.003,-0.244,141131
0.013,-0.005,1.004,-0.244,141156
0.015,-0.004,1.001,-0.183,141179
0.015,-0.007,1.003,-0.244,141205
0.012,-0.006,1.004,-0.183,141234
0.014,-0.006,1.002,-0.183,141259
0.014,-0.005,1.002,-0.122,141283
0.016,-0.005,1.002,-0.183,141306
0.014,-0.006,1.004,-0.244,141332
0.014,-0.004,1.004,-0.305,141356
0.015,-0.006,1.003,-0.244,141381
0.015,-0.005,1.002,-0.122,141406
0.016,-0.005,1.002,-0.061,141430
0.014,-0.005,1.002,-0.061,141453
0.014,-0.006,1.004,-0.244,141479
0.016,-0.007,1.001,-0.183,141505
0.014,-0.004,1.003,-0.122,141532
0.015,-0.005,1.001,-0.183,141557
0.013,-0.008,1.003,-0.244,141582
0.013,-0.004,1.002,-0.244,141607
0.014,-0.005,1.004,-0.366,141634
0.014,-0.006,1.002,-0.122,141659
0.015,-0.005,1.002,-0.244,141684
0.015,-0.006,1.002,-0.122,141708
0.015,-0.005,1.002,-0.244,141731
0.015,-0.005,1.003,-0.122,141754
0.013,-0.006,1.003,-0.244,141780
0.015,-0.005,1.003,-0.183,141808
0.012,-0.004,1.004,-0.122,141833
0.015,-0.006,1.001,-0.183,141858
0.014,-0.005,1.002,-0.244,141883
0.013,-0.006,1.003,-0.244,141909
0.014,-0.005,1.001,-0.244,141937
0.015,-0.006,1.001,-0.183,141964
0.015,-0.006,1.003,-0.366,141988
0.015,-0.005,1.004,-0.244,142014
0.013,-0.005,1.003,-0.183,142041
0.015,-0.006,1.003,-0.122,142065
0.013,-0.007,1.003,-0.183,142089
0.015,-0.006,1.002,-0.244,142116
0.014,-0.007,1.001,-0.244,142141
0.015,-0.005,1.001,-0.244,142166
0.015,-0.006,1.0,0.0,142193
0.014,-0.006,1.004,-0.183,142217
0.014,-0.005,1.003,-0.122,142242
0.015,-0.006,1.003,-0.183,142267
0.015,-0.004,1.0,-0.183,142294
0.015,-0.005,1.003,-0.244,142318
0.015,-0.005,1.002,-0.122,142344
0.015,-0.006,1.003,-0.183,142370
0.013,-0.006,1.003,-0.122,142398
0.014,-0.005,1.003,-0.305,142424
0.015,-0.005,1.002,-0.427,142447
0.014,-0.006,1.001,-0.122,142470
0.014,-0.006,1.001,-0.244,142497
0.015,-0.005,1.002,-0.305,142522
0.016,-0.006,1.002,-0.305,142549
0.013,-0.006,1.001,-0.305,142575
0.014,-0.005,1.002,-0.061,142600
0.013,-0.005,1.002,-0.183,142624
0.014,-0.006,1.003,-0.122,142650
0.013,-0.005,1.004,-0.122,142674
0.015,-0.006,1.001,-0.244,142699
0.013,-0.005,1.0,-0.183,142724
0.015,-0.005,1.004,-0.183,142749
0.014,-0.004,1.001,-0.122,142775
0.015,-0.006,1.003,-0.183,142798
0.015,-0.004,1.001,-0.122,142822
0.013,-0.005,1.001,-0.183,142849
0.015,-0.006,1.003,-0.244,142873
0.013,-0.005,1.005,-0.061,142899
0.014,-0.005,1.001,-0.244,142924
0.015,-0.006,1.002,-0.244,142952
0.013,-0.004,1.002,0.0,142979
0.013,-0.004,1.003,-0.183,143003
0.016,-0.006,1.004,-0.366,143029
0.014,-0.006,1.004,0.0,143053
0.013,-0.005,1.0,-0.244,143078
0.014,-0.006,1.002,-0.366,143102
0.015,-0.005,1.002,-0.061,143125
0.015,-0.004,1.002,-0.183,143153
0.015,-0.006,1.002,-0.244,143178
0.015,-0.005,1.004,-0.122,143202
0.016,-0.005,1.001,-0.183,143227
0.016,-0.005,1.003,-0.366,143254
0.014,-0.006,1.003,-0.061,143278
0.014,-0.005,1.003,-0.244,143304
0.016,-0.006,1.002,-0.244,143330
0.015,-0.005,1.003,-0.183,143354
0.014,-0.006,1.002,-0.244,143378
0.014,-0.006,1.002,-0.366,143404
0.015,-0.005,1.003,-0.122,143428
0.013,-0.004,1.0,-0.122,143454
0.014,-0.006,1.001,-0.183,143481
0.013,-0.006,1.003,-0.122,143505
0.013,-0.005,1.001,-0.244,143530
0.016,-0.005,1.002,-0.366,143554
0.014,-0.005,1.003,-0.244,143578
0.015,-0.005,1.001,-0.122,143602
0.014,-0.006,1.0,-0.244,143629
0.014,-0.007,1.003,-0.183,143656
0.014,-0.005,1.003,-0.244,143681
0.014,-0.006,1.002,-0.305,143705
0.015,-0.005,1.002,0.0,143730
0.013,-0.004,1.002,-0.244,143757
0.014,-0.005,1.003,-0.244,143781
0.015,-0.005,1.004,-0.061,143806
0.015,-0.005,1.002,-0.244,143832
0.014,-0.005,1.003,-0.183,143858
0.016,-0.006,1.001,-0.122,143884
0.014,-0.006,1.003,-0.244,143909
0.012,-0.005,1.002,-0.305,143934
0.015,-0.005,1.003,-0.183,143958
0.014,-0.006,1.002,-0.244,143983
0.013,-0.005,1.003,-0.183,144008
0.014,-0.005,1.002,-0.183,144033
0.012,-0.006,1.002,-0.183,144059
0.015,-0.006,1.003,-0.122,144087
0.014,-0.005,1.004,-0.122,144113
0.013,-0.004,1.0,-0.244,144137
0.014,-0.005,1.002,-0.244,144163
0.015,-0.006,1.001,-0.061,144188
0.014,-0.005,1.002,-0.183,144213
0.015,-0.003,1.002,-0.061,144240
0.014,-0.005,1.003,-0.305,144265
0.016,-0.005,1.0,-0.244,144292
0.015,-0.005,1.002,-0.244,144317
0.014,-0.005,1.002,-0.122,144343
0.013,-0.005,1.003,-0.061,144370
0.015,-0.005,1.002,-0.183,144394
0.014,-0.004,1.002,-0.183,144417
0.012,-0.004,1.002,-0.122,144444
0.014,-0.006,1.002,-0.244,144470
0.015,-0.005,1.002,-0.183,144495
0.013,-0.006,1.004,-0.244,144522
0.015,-0.006,1.002,0.0,144548
0.015,-0.005,1.003,-0.244,144572
0.014,-0.005,1.003,-0.183,144599
0.016,-0.006,1.002,-0.305,144625
0.015,-0.005,1.001,-0.305,144649
0.015,-0.006,1.002,-0.122,144676
0.016,-0.006,1.0,-0.183,144704
0.015,-0.005,1.003,-0.366,144732
0.015,-0.006,1.003,-0.183,144757
0.015,-0.005,1.002,-0.305,144783
0.014,-0.006,1.001,-0.183,144807
0.015,-0.005,1.002,-0.244,144832
0.014,-0.005,1.003,-0.305,144860
0.012,-0.005,1.003,-0.244,144884
0.014,-0.006,1.001,-0.183,144909
0.013,-0.005,1.004,-0.183,144936
0.014,-0.005,1.003,-0.183,144963
0.013,-0.006,1.002,-0.183,144986
0.013,-0.005,1.004,-0.244,145012
0.013,-0.005,1.003,-0.183,145040
0.015,-0.006,1.003,-0.122,145065
0.014,-0.005,1.003,-0.183,145090
0.013,-0.004,1.003,-0.366,145115
0.015,-0.007,1.004,-0.183,145141
0.015,-0.005,1.002,-0.183,145165
0.014,-0.005,0.999,-0.122,145194
0.013,-0.005,1.003,-0.244,145219
0.013,-0.007,1.002,-0.183,145244
0.014,-0.005,1.003,-0.244,145270
0.015,-0.004,1.001,-0.244,145295
0.015,-0.006,1.002,-0.061,145319
0.014,-0.005,1.003,-0.244,145345
0.014,-0.005,1.001,-0.244,145372
0.014,-0.006,1.003,-0.244,145399
0.015,-0.006,1.003,-0.244,145423
0.014,-0.006,1.001,-0.244,145449
0.015,-0.005,1.002,-0.244,145475
0.014,-0.005,1.003,-0.244,145501
0.015,-0.005,1.004,-0.183,145526
0.015,-0.006,1.003,-0.305,145549
0.014,-0.006,1.002,-0.305,145576
0.014,-0.005,1.001,-0.183,145600
0.015,-0.004,1.003,-0.305,145624
0.013,-0.005,1.002,-0.183,145649
0.015,-0.005,1.003,-0.305,145672
0.014,-0.004,1.002,-0.183,145696
0.014,-0.005,1.0,-0.305,145721
0.014,-0.006,1.005,0.0,145746
0.015,-0.006,1.003,-0.305,145771
0.015,-0.006,1.002,-0.244,145795
0.013,-0.006,1.001,-0.305,145821
0.016,-0.005,1.002,-0.183,145847
0.014,-0.006,1.003,-0.244,145871
0.015,-0.005,1.002,-0.183,145895
0.014,-0.006,1.002,-0.244,145920
0.015,-0.005,1.004,-0.244,145946
0.014,-0.005,1.001,-0.122,145970
0.013,-0.006,1.003,-0.183,145994
0.015,-0.004,1.003,-0.244,146019
0.014,-0.006,1.002,-0.244,146045
0.015,-0.005,1.004,-0.244,146071
0.014,-0.004,1.003,-0.122,146096
0.013,-0.005,1.001,-0.061,146121
0.013,-0.004,1.001,-0.122,146147
0.014,-0.005,1.004,-0.061,146171
0.015,-0.005,1.004,-0.183,146195
0.015,-0.005,1.001,-0.305,146221
0.015,-0.005,1.003,-0.183,146246
0.013,-0.005,1.003,-0.183,146273
0.014,-0.006,1.003,-0.244,146299
0.015,-0.006,1.002,-0.244,146324
0.015,-0.005,1.002,-0.061,146351
0.016,-0.005,1.003,-0.244,146380
0.015,-0.005,1.002,-0.122,146406
0.014,-0.005,1.002,-0.183,146435
0.014,-0.006,1.002,-0.183,146463
0.014,-0.006,1.001,-0.061,146487
0.015,-0.005,1.004,-0.183,146511
0.015,-0.004,1.002,-0.183,146538
0.015,-0.005,1.004,-0.427,146562
0.014,-0.005,1.003,-0.183,146586
0.014,-0.005,1.001,-0.183,146612
0.012,-0.005,1.003,-0.244,146636
0.014,-0.006,1.0,-0.244,146661
0.013,-0.005,1.003,-0.122,146687
0.013,-0.005,1.002,-0.244,146711
0.013,-0.005,1.003,0.061,146737
0.013,-0.005,1.002,-0.244,146763
0.015,-0.005,1.0,-0.183,146789
0.013,-0.005,1.002,-0.305,146816
0.014,-0.005,1.005,-0.366,146841
0.013,-0.006,1.005,-0.183,146868
0.015,-0.005,1.002,-0.244,146894
0.013,-0.003,1.003,-0.366,146919
0.016,-0.005,1.001,-0.183,146944
0.015,-0.005,1.002,-0.183,146972
0.014,-0.006,1.002,-0.122,146997
0.014,-0.004,1.002,-0.183,147023
0.015,-0.006,1.004,-0.305,147049
0.015,-0.005,1.001,-0.122,147076
0.015,-0.004,1.003,-0.183,147102
0.014,-0.006,1.002,-0.122,147127
0.013,-0.006,1.002,0.061,147151
0.014,-0.005,1.002,-0.305,147175
0.014,-0.006,1.002,-0.183,147199
0.015,-0.005,1.002,-0.183,147226
0.016,-0.004,1.001,-0.183,147250
0.016,-0.006,1.002,-0.366,147275
0.015,-0.004,1.003,-0.122,147300
0.014,-0.005,1.003,-0.122,147324
0.014,-0.006,1.001,-0.183,147353
0.013,-0.006,1.0,-0.305,147379
0.015,-0.005,1.003,-0.122,147405
0.014,-0.006,1.002,-0.122,147433
0.014,-0.005,1.002,-0.244,147458
0.014,-0.005,1.001,-0.122,147486
0.016,-0.005,1.002,-0.122,147510
0.015,-0.005,1.003,-0.244,147533
0.015,-0.004,1.002,-0.366,147558
0.015,-0.005,1.003,-0.122,147583
0.015,-0.005,1.003,-0.183,147606
0.015,-0.005,1.002,-0.305,147632
0.014,-0.004,1.002,-0.305,147657
0.015,-0.004,1.003,-0.122,147681
0.014,-0.004,1.002,-0.122,147704
0.014,-0.005,1.002,-0.244,147728
0.016,-0.004,1.003,-0.183,147754
0.013,-0.004,1.002,-0.183,147781
0.014,-0.006,1.002,-0.244,147807
0.015,-0.005,1.003,-0.183,147831
0.015,-0.006,1.003,-0.183,147855
0.015,-0.005,1.001,-0.183,147879
0.015,-0.007,1.003,-0.305,147907
0.015,-0.006,1.004,-0.244,147933
0.014,-0.005,1.003,-0.122,147959
0.013,-0.006,1.003,-0.366,147983
0.013,-0.006,1.003,-0.244,148007
0.014,-0.006,1.003,-0.366,148032
0.014,-0.006,1.004,-0.244,148060
0.014,-0.005,1.001,-0.183,148084
0.014,-0.006,1.003,-0.305,148107
0.015,-0.006,1.004,-0.305,148131
0.015,-0.004,1.003,-0.122,148156
0.013,-0.005,1.001,-0.244,148180
0.014,-0.006,1.004,-0.122,148203
0.014,-0.005,1.003,-0.183,148227
0.014,-0.005,1.001,-0.244,148254
0.014,-0.005,1.003,-0.183,148282
0.014,-0.005,1.004,-0.122,148309
0.016,-0.004,1.003,-0.122,148333
0.016,-0.006,1.001,-0.244,148358
0.013,-0.004,1.002,-0.183,148383
0.015,-0.005,1.003,-0.366,148410
0.014,-0.005,1.003,-0.183,148435
0.014,-0.006,1.003,-0.244,148458
0.014,-0.006,1.003,-0.122,148484
0.013,-0.004,1.002,-0.366,148509
0.014,-0.005,1.002,-0.244,148534
0.013,-0.005,1.003,-0.183,148563
0.014,-0.005,1.003,-0.305,148587
0.014,-0.003,1.001,-0.183,148614
0.015,-0.006,1.002,-0.305,148640
0.013,-0.006,1.003,-0.427,148665
0.014,-0.005,1.003,-0.061,148688
0.014,-0.005,1.001,-0.305,148713
0.014,-0.005,1.003,-0.183,148738
0.013,-0.005,1.002,-0.305,148763
0.011,-0.005,1.001,-0.244,148788
0.013,-0.005,1.002,-0.122,148814
0.013,-0.006,1.002,-0.244,148837
0.013,-0.005,1.004,-0.061,148864
0.015,-0.006,1.002,-0.183,148889
0.013,-0.005,1.002,-0.244,148914
0.014,-0.004,1.001,0.0,148937
0.014,-0.008,1.002,-0.122,148964
0.014,-0.005,1.001,-0.183,148990
0.014,-0.006,1.004,-0.183,149016
0.013,-0.006,1.003,-0.305,149041
0.014,-0.006,1.003,-0.305,149066
0.016,-0.004,1.001,-0.366,149093
0.013,-0.006,1.004,-0.183,149119
0.014,-0.006,1.001,-0.122,149143
0.014,-0.005,1.003,-0.061,149167
0.013,-0.007,1.001,-0.305,149192
0.014,-0.003,1.001,-0.122,149219
0.014,-0.005,1.001,-0.244,149244
0.014,-0.005,1.003,-0.305,149269
0.015,-0.005,1.003,-0.183,149297
0.014,-0.006,1.002,-0.183,149324
0.014,-0.006,1.001,-0.061,149352
0.015,-0.006,1.002,-0.488,149378
0.015,-0.005,1.003,-0.244,149403
0.014,-0.005,1.002,-0.183,149427
0.014,-0.005,1.002,-0.244,149455
0.015,-0.005,1.001,-0.122,149482
0.015,-0.006,1.002,-0.183,149507
0.013,-0.006,1.003,-0.244,149532
0.016,-0.005,1.001,-0.366,149558
0.012,-0.005,1.003,-0.183,149587
0.014,-0.005,1.003,-0.183,149613
0.015,-0.006,1.002,-0.305,149637
0.015,-0.004,1.002,-0.061,149662
0.016,-0.006,1.002,-0.122,149687
0.014,-0.007,1.004,-0.244,149714
0.014,-0.004,1.002,-0.244,149738
0.014,-0.004,1.003,-0.244,149764
0.014,-0.004,1.003,-0.244,149791
0.016,-0.004,1.002,-0.183,149817
0.014,-0.006,1.001,-0.244,149841
0.014,-0.004,1.004,-0.305,149868
0.014,-0.005,1.002,-0.244,149892
0.016,-0.006,1.002,-0.244,149917
0.013,-0.006,1.004,-0.244,149942
0.013,-0.005,1.004,-0.122,149969
0.013,-0.007,1.001,-0.061,149994
0.014,-0.007,1.003,-0.244,150019
0.015,-0.005,1.003,-0.244,150047
0.013,-0.006,1.002,-0.244,150071
0.015,-0.007,1.003,-0.183,150097
0.013,-0.004,1.003,-0.183,150123
0.012,-0.006,1.003,-0.244,150152
0.014,-0.004,1.001,-0.244,150176
0.013,-0.005,1.002,-0.183,150203
0.014,-0.004,1.004,-0.244,150226
0.014,-0.007,1.001,-0.183,150251
0.015,-0.004,1.004,-0.122,150278
0.015,-0.005,1.002,-0.244,150303
0.017,-0.005,1.003,-0.366,150328
0.015,-0.004,1.002,-0.122,150354
0.015,-0.005,1.001,-0.244,150377
0.014,-0.005,1.002,-0.244,150401
0.013,-0.005,1.001,-0.183,150428
0.014,-0.005,1.003,-0.183,150452
0.014,-0.006,1.003,-0.244,150477
0.013,-0.005,1.001,-0.122,150502
0.015,-0.006,1.002,-0.122,150528
0.014,-0.006,1.002,-0.305,150555
0.013,-0.005,1.004,-0.305,150580
0.013,-0.004,1.003,-0.122,150606
0.014,-0.005,1.003,-0.183,150630
0.014,-0.005,1.002,-0.183,150658
0.014,-0.005,1.003,-0.244,150681
0.014,-0.004,1.001,-0.183,150708
0.013,-0.006,1.002,-0.183,150733
0.015,-0.004,1.002,-0.122,150757
0.015,-0.005,1.001,-0.244,150781
0.013,-0.005,1.004,-0.122,150806
0.015,-0.006,1.003,-0.244,150830
0.015,-0.005,1.003,-0.305,150854
0.014,-0.006,1.004,-0.427,150880
0.015,-0.005,1.002,-0.244,150905
0.015,-0.006,1.002,-0.183,150929
0.015,-0.005,1.0,-0.427,150959
0.013,-0.004,1.003,-0.122,150984
0.013,-0.005,1.003,-0.183,151010
0.015,-0.005,1.003,-0.305,151037
0.015,-0.006,1.001,-0.244,151062
0.014,-0.005,1.0,-0.122,151086
0.014,-0.006,1.002,-0.122,151111
0.014,-0.005,1.004,-0.305,151139
0.013,-0.003,1.003,0.0,151165
0.013,-0.005,1.001,-0.244,151192
0.014,-0.004,1.003,-0.244,151218
0.013,-0.005,1.003,-0.244,151243
0.015,-0.006,1.001,-0.244,151269
0.016,-0.006,1.001,-0.244,151296
0.013,-0.005,1.002,-0.183,151322
0.016,-0.005,1.001,-0.244,151346
0.015,-0.005,1.003,-0.244,151370
0.013,-0.005,1.003,-0.183,151393
0.017,-0.005,1.0,-0.244,151419
0.014,-0.006,1.001,-0.244,151446
0.015,-0.004,1.004,-0.122,151470
0.014,-0.004,1.002,-0.244,151495
0.013,-0.005,1.002,-0.305,151519
0.015,-0.006,1.001,-0.122,151543
0.015,-0.006,1.0,-0.183,151567
0.014,-0.006,1.004,-0.305,151591
0.014,-0.005,1.004,-0.122,151617
0.014,-0.004,1.003,-0.244,151644
0.015,-0.005,1.001,-0.305,151670
0.014,-0.005,1.003,-0.305,151695
0.016,-0.004,1.003,-0.122,151720
0.014,-0.004,1.003,-0.183,151743
0.014,-0.005,1.004,-0.061,151767
0.013,-0.005,1.004,-0.122,151792
0.015,-0.006,1.002,-0.305,151816
0.015,-0.006,1.004,-0.183,151842
0.013,-0.005,1.003,-0.122,151869
0.014,-0.004,1.002,-0.244,151894
0.015,-0.004,1.003,-0.122,151917
0.014,-0.005,1.003,-0.061,151942
0.014,-0.005,1.002,-0.305,151968
0.014,-0.006,1.003,-0.183,151993
0.014,-0.006,1.004,-0.427,152019
0.016,-0.004,1.002,-0.244,152047
0.014,-0.005,1.003,-0.122,152076
0.014,-0.005,1.003,-0.244,152100
0.015,-0.006,1.002,-0.183,152125
0.013,-0.004,1.0,-0.183,152153
0.013,-0.005,1.004,-0.183,152177
0.013,-0.005,1.003,-0.183,152203
0.014,-0.007,1.002,-0.183,152227
0.014,-0.005,1.003,-0.244,152255
0.015,-0.006,1.004,-0.244,152281
0.014,-0.004,1.002,-0.183,152305
0.013,-0.005,1.003,-0.122,152331
0.014,-0.005,1.003,-0.061,152360
0.015,-0.006,1.002,-0.183,152388
0.014,-0.003,1.002,-0.244,152414
0.015,-0.006,1.001,-0.244,152440
0.016,-0.006,1.004,-0.183,152465
0.016,-0.005,1.004,-0.366,152489
0.015,-0.006,1.002,-0.305,152514
0.015,-0.005,1.003,-0.183,152540
0.014,-0.005,1.002,-0.244,152563
0.016,-0.006,1.0,-0.305,152586
0.014,-0.005,1.004,-0.244,152610
0.015,-0.005,1.002,-0.183,152636
0.014,-0.006,1.001,-0.244,152659
0.014,-0.005,1.003,-0.122,152686
0.015,-0.005,1.001,-0.122,152711
0.013,-0.005,1.003,-0.183,152735
0.015,-0.006,1.001,-0.244,152760
0.013,-0.006,1.002,-0.183,152783
0.014,-0.005,1.001,-0.122,152807
0.015,-0.004,1.002,-0.122,152834
0.013,-0.005,1.003,-0.244,152862
0.015,-0.005,1.004,-0.244,152890
0.015,-0.005,1.002,-0.244,152918
0.014,-0.006,1.002,-0.244,152942
0.013,-0.005,1.002,-0.183,152968
0.013,-0.006,1.002,-0.305,152992
0.015,-0.005,1.002,-0.427,153016
0.014,-0.005,1.004,-0.183,153042
0.014,-0.004,1.001,-0.244,153068
0.015,-0.005,1.001,-0.305,153095
0.015,-0.005,1.001,-0.183,153122
0.015,-0.005,1.001,-0.061,153150
0.014,-0.005,1.003,-0.183,153175
0.014,-0.005,1.003,-0.244,153202
0.014,-0.005,1.003,-0.244,153228
0.013,-0.006,1.002,-0.122,153255
0.014,-0.004,1.002,-0.183,153284
0.014,-0.005,1.003,-0.122,153310
0.014,-0.004,1.003,-0.244,153334
0.015,-0.005,1.004,-0.122,153359
0.015,-0.005,1.002,-0.183,153386
0.015,-0.005,1.001,-0.244,153411
0.013,-0.005,1.003,-0.244,153434
0.016,-0.004,1.001,-0.305,153460
0.016,-0.005,1.002,-0.244,153487
0.013,-0.005,1.001,-0.244,153513
0.014,-0.005,1.004,-0.122,153539
0.014,-0.005,1.003,-0.305,153565
0.015,-0.006,1.002,-0.183,153592
0.014,-0.004,1.003,-0.305,153615
0.015,-0.006,1.0,-0.244,153640
0.015,-0.005,1.001,-0.244,153666
0.013,-0.005,1.002,-0.183,153689
0.014,-0.006,1.003,-0.366,153714
0.014,-0.005,1.002,-0.244,153742
0.013,-0.004,1.001,-0.244,153766
0.013,-0.004,1.002,-0.183,153790
0.015,-0.004,1.003,-0.305,153817
0.015,-0.006,1.002,-0.183,153845
0.014,-0.006,1.002,-0.183,153870
0.014,-0.006,1.003,-0.244,153894
0.014,-0.006,1.002,-0.244,153917
0.014,-0.006,1.001,-0.244,153943
0.014,-0.004,1.003,-0.244,153970
0.016,-0.005,1.005,-0.244,153995
0.014,-0.005,1.003,-0.183,154023
0.014,-0.005,1.002,-0.305,154050
0.013,-0.005,0.999,-0.244,154075
0.014,-0.005,1.001,-0.061,154099
0.012,-0.004,1.002,-0.366,154124
0.014,-0.007,1.002,-0.244,154148
0.016,-0.004,1.004,-0.183,154173
0.015,-0.006,1.001,-0.183,154197
0.016,-0.005,1.001,-0.244,154223
0.015,-0.006,1.003,-0.183,154249
0.014,-0.004,1.002,-0.183,154277
0.014,-0.004,1.001,-0.244,154302
0.014,-0.005,1.004,-0.183,154326
0.015,-0.006,1.002,-0.183,154353
0.015,-0.006,1.002,-0.183,154380
0.014,-0.005,1.002,-0.122,154407
0.014,-0.007,1.004,-0.183,154435
0.015,-0.004,1.004,-0.061,154460
0.014,-0.006,1.001,-0.183,154485
0.014,-0.005,1.001,-0.183,154510
0.014,-0.005,1.002,-0.122,154535
0.014,-0.004,1.001,-0.305,154561
0.013,-0.005,1.003,-0.244,154586
0.014,-0.004,1.003,-0.183,154613
0.014,-0.006,1.001,-0.122,154637
0.014,-0.005,1.0,-0.122,154661
0.014,-0.004,1.003,-0.183,154690
0.014,-0.004,1.003,-0.061,154718
0.016,-0.005,1.001,-0.305,154743
0.014,-0.005,1.0,-0.305,154769
0.015,-0.005,1.002,-0.122,154794
0.014,-0.004,1.001,-0.183,154818
0.015,-0.006,1.003,-0.366,154844
0.014,-0.005,1.003,-0.122,154869
0.014,-0.005,1.003,-0.244,154896
0.015,-0.006,1.003,-0.244,154923
0.014,-0.004,1.003,-0.244,154947
0.013,-0.006,1.002,-0.183,154972
0.013,-0.006,1.002,-0.244,154997
0.013,-0.005,1.004,-0.305,155023
0.015,-0.005,1.004,-0.122,155047
0.014,-0.006,1.002,-0.366,155074
0.014,-0.007,1.002,-0.305,155100
0.015,-0.005,1.004,-0.122,155129
0.014,-0.005,1.003,-0.122,155154
0.014,-0.006,1.001,-0.183,155181
0.016,-0.007,1.002,-0.183,155207
0.014,-0.005,1.004,-0.244,155233
0.014,-0.004,1.001,-0.305,155260
0.014,-0.006,1.002,-0.244,155287
0.014,-0.006,1.003,-0.244,155312
0.014,-0.006,1.002,-0.122,155339
0.013,-0.005,1.003,-0.427,155366
0.014,-0.005,1.001,-0.183,155391
0.013,-0.006,1.004,-0.122,155420
0.014,-0.003,1.002,-0.183,155447
0.015,-0.004,1.002,-0.244,155473
0.011,-0.006,1.003,-0.244,155497
0.016,-0.005,1.003,-0.244,155522
0.015,-0.006,1.002,-0.305,155546
0.015,-0.007,1.005,-0.183,155570
0.015,-0.005,1.003,-0.244,155595
0.015,-0.004,1.002,-0.122,155622
0.015,-0.005,1.002,-0.183,155651
0.014,-0.004,1.003,-0.183,155675
0.014,-0.005,1.002,-0.244,155702
0.016,-0.005,1.002,-0.305,155727
0.014,-0.006,1.004,-0.183,155752
0.012,-0.004,1.001,-0.122,155777
0.014,-0.004,1.0,-0.244,155802
0.014,-0.005,1.001,-0.244,155828
0.014,-0.005,1.005,-0.122,155853
0.014,-0.005,1.0,-0.305,155877
0.015,-0.005,1.002,-0.061,155903
0.015,-0.006,1.0,-0.122,155927
0.014,-0.005,1.0,-0.183,155951
0.013,-0.007,1.004,-0.183,155975
0.014,-0.004,1.005,-0.061,156000
0.014,-0.005,1.002,-0.061,156026
0.013,-0.006,1.003,-0.122,156053
0.015,-0.004,1.003,-0.366,156081
0.014,-0.005,1.001,-0.244,156105
0.015,-0.005,1.003,-0.305,156129
0.013,-0.005,1.003,-0.305,156154
0.013,-0.005,1.003,-0.305,156180
0.015,-0.007,1.001,-0.061,156207
0.013,-0.006,1.003,-0.122,156231
0.013,-0.005,1.003,-0.244,156258
0.015,-0.006,1.003,-0.305,156282
0.014,-0.005,1.004,-0.183,156307
0.014,-0.006,1.001,-0.244,156333
0.015,-0.005,1.001,-0.305,156356
0.015,-0.004,1.004,-0.122,156383
0.016,-0.005,1.002,-0.183,156409
0.013,-0.005,1.0,-0.366,156434
0.016,-0.007,1.002,-0.183,156462
0.014,-0.006,1.004,-0.183,156487
0.014,-0.005,1.002,-0.244,156513
0.015,-0.007,1.002,-0.305,156538
0.014,-0.007,1.003,-0.183,156563
0.013,-0.006,1.002,-0.122,156590
0.014,-0.005,1.0,-0.244,156615
0.015,-0.006,1.002,-0.122,156642
0.014,-0.006,1.002,-0.122,156666
0.013,-0.006,1.001,-0.366,156691
0.014,-0.006,1.002,-0.122,156719
0.015,-0.005,1.003,-0.183,156743
0.014,-0.006,1.003,-0.122,156767
0.014,-0.004,1.001,-0.366,156793
0.014,-0.006,1.003,-0.305,156820
0.015,-0.006,1.002,-0.305,156845
0.015,-0.004,1.0,-0.122,156873
0.014,-0.004,1.002,-0.183,156900
0.013,-0.005,1.004,-0.366,156925
0.013,-0.006,1.003,-0.183,156950
0.016,-0.006,1.002,-0.244,156974
0.015,-0.006,1.003,-0.305,156999
0.016,-0.004,1.001,-0.183,157024
0.015,-0.005,1.002,-0.244,157050
0.016,-0.006,1.002,-0.122,157076
0.015,-0.005,1.001,-0.122,157100
0.015,-0.006,1.001,-0.305,157124
0.015,-0.006,1.004,-0.061,157149
0.014,-0.005,1.002,-0.183,157175
0.015,-0.005,1.0,-0.244,157201
0.014,-0.006,1.004,-0.061,157226
0.014,-0.005,1.003,0.0,157249
0.015,-0.005,1.003,-0.183,157273
0.014,-0.006,1.002,-0.122,157299
0.015,-0.005,1.001,-0.122,157325
0.013,-0.004,1.001,-0.366,157350
0.014,-0.005,1.002,-0.305,157379
0.015,-0.006,1.004,-0.244,157406
0.014,-0.005,1.001,-0.244,157430
0.015,-0.005,1.0,-0.305,157455
0.016,-0.004,1.003,-0.244,157483
0.014,-0.005,1.002,-0.061,157510
0.015,-0.006,1.0,-0.244,157535
0.013,-0.005,1.003,-0.122,157562
0.015,-0.005,1.004,-0.183,157591
0.014,-0.005,1.0,-0.305,157616
0.014,-0.005,1.002,-0.427,157643
0.014,-0.005,1.005,-0.183,157670
0.014,-0.006,1.002,-0.183,157693
0.014,-0.005,1.002,-0.183,157717
0.015,-0.005,1.005,-0.244,157743
0.014,-0.005,1.001,-0.183,157769
0.015,-0.005,1.001,-0.244,157797
0.016,-0.005,1.001,-0.183,157821
0.015,-0.006,1.002,-0.305,157844
0.015,-0.004,1.002,-0.183,157868
0.013,-0.005,1.002,-0.183,157893
0.013,-0.004,1.002,-0.244,157918
0.014,-0.005,1.001,-0.305,157946
0.015,-0.006,1.001,-0.244,157972
0.014,-0.005,1.002,-0.183,157998
0.015,-0.004,1.002,-0.244,158022
0.014,-0.006,1.001,-0.244,158046
0.015,-0.005,1.001,-0.183,158071
0.015,-0.005,1.002,-0.244,158098
0.016,-0.005,1.001,-0.122,158122
0.014,-0.005,1.004,-0.122,158147
0.015,-0.006,1.003,-0.183,158171
0.013,-0.005,1.002,-0.244,158195
0.014,-0.005,1.001,-0.122,158221
0.015,-0.006,1.002,-0.183,158246
0.015,-0.006,1.0,-0.183,158272
0.014,-0.007,1.003,-0.122,158297
0.014,-0.004,1.003,-0.183,158321
0.016,-0.007,1.002,-0.183,158345
0.014,-0.004,1.004,-0.305,158369
0.016,-0.004,1.001,-0.183,158394
0.015,-0.005,1.003,-0.244,158421
0.015,-0.005,1.002,-0.183,158446
0.015,-0.006,1.004,-0.244,158473
0.016,-0.005,1.003,-0.183,158498
0.015,-0.006,1.002,-0.244,158522
0.014,-0.005,1.004,-0.061,158550
0.013,-0.005,1.003,-0.183,158574
0.014,-0.005,1.001,-0.244,158599
0.014,-0.006,1.004,-0.122,158623
0.015,-0.006,1.005,-0.244,158648
0.015,-0.007,1.002,-0.244,158671
0.014,-0.004,1.002,-0.244,158694
0.014,-0.005,1.002,-0.244,158720
0.014,-0.006,1.005,-0.122,158746
0.014,-0.003,1.002,-0.244,158772
0.015,-0.005,1.003,-0.244,158796
0.016,-0.004,1.001,-0.183,158823
0.013,-0.004,1.003,-0.183,158848
0.013,-0.006,1.003,-0.244,158875
0.014,-0.005,1.002,-0.183,158901
0.015,-0.004,1.004,-0.122,158926
0.012,-0.005,1.001,-0.183,158949
0.015,-0.005,1.001,-0.183,158974
0.015,-0.004,1.001,-0.122,158998
0.015,-0.006,1.004,0.0,159024
0.013,-0.005,1.002,-0.061,159053
0.015,-0.005,1.002,-0.244,159081
0.015,-0.004,1.002,-0.183,159106
0.014,-0.006,1.002,-0.122,159130
0.015,-0.006,1.002,-0.183,159158
0.014,-0.003,1.003,-0.244,159183
0.013,-0.006,1.003,-0.244,159207
0.014,-0.004,1.002,-0.305,159231
0.013,-0.006,1.002,-0.183,159258
0.014,-0.004,1.002,-0.183,159284
0.016,-0.005,1.002,-0.183,159308
0.013,-0.006,1.002,-0.305,159335
0.014,-0.005,1.003,-0.122,159360
0.014,-0.006,1.001,-0.305,159387
0.015,-0.006,1.003,-0.122,159412
0.015,-0.006,1.003,-0.305,159436
0.014,-0.004,1.001,-0.244,159461
0.015,-0.005,1.003,-0.305,159484
0.014,-0.004,1.003,-0.244,159508
0.015,-0.005,1.001,-0.244,159537
0.014,-0.005,1.003,-0.244,159565
0.014,-0.006,1.002,-0.183,159589
0.015,-0.005,1.003,-0.183,159615
0.014,-0.006,1.004,-0.244,159638
0.014,-0.005,0.999,-0.183,159661
0.015,-0.007,1.003,-0.244,159685
0.013,-0.006,1.004,-0.061,159709
0.015,-0.004,1.003,-0.305,159734
0.015,-0.005,1.003,-0.366,159759
0.015,-0.006,1.001,-0.061,159786
0.015,-0.005,1.003,-0.244,159813
0.015,-0.004,1.002,-0.183,159839
0.015,-0.006,1.002,-0.244,159863
0.015,-0.006,1.002,-0.244,159888
0.012,-0.005,1.002,-0.122,159915
0.014,-0.005,1.003,-0.488,159941
0.014,-0.007,1.006,-0.122,159967
0.015,-0.003,1.001,-0.183,159991
0.015,-0.007,1.003,-0.366,160015
0.013,-0.005,1.003,-0.244,160043
0.014,-0.004,1.002,-0.122,160067
0.013,-0.006,1.002,-0.183,160092
0.015,-0.006,1.002,-0.061,160116
0.013,-0.005,1.002,-0.305,160141
0.016,-0.004,1.002,-0.122,160165
0.014,-0.007,1.004,-0.183,160191
0.014,-0.006,1.002,-0.305,160214
0.015,-0.005,1.003,-0.122,160242
0.013,-0.005,1.002,-0.244,160273
0.015,-0.005,1.002,-0.305,160298
0.013,-0.005,1.003,-0.305,160324
0.014,-0.004,1.003,-0.183,160349
0.013,-0.005,1.003,-0.244,160375
0.012,-0.005,1.003,-0.183,160400
0.014,-0.004,1.001,-0.122,160425
0.015,-0.005,1.003,-0.244,160452
0.014,-0.005,1.002,-0.244,160477
0.015,-0.005,1.002,-0.122,160500
0.014,-0.006,1.003,-0.244,160524
0.013,-0.006,1.003,-0.061,160548
0.015,-0.005,1.003,-0.061,160573
0.014,-0.005,1.003,-0.183,160599
0.014,-0.006,1.002,-0.244,160627
0.014,-0.006,1.002,-0.244,160653
0.014,-0.005,1.003,-0.305,160679
0.014,-0.007,1.001,-0.244,160705
0.015,-0.005,1.001,-0.122,160730
0.014,-0.005,1.003,-0.122,160755
0.014,-0.006,1.003,-0.122,160781
0.015,-0.005,1.002,-0.183,160807
0.015,-0.005,1.003,-0.061,160831
0.015,-0.004,1.003,-0.183,160855
0.014,-0.005,1.002,-0.122,160881
0.016,-0.005,1.002,-0.244,160907
0.014,-0.008,1.003,0.0,160930
0.014,-0.004,1.003,-0.122,160957
0.014,-0.005,1.002,-0.183,160983
0.014,-0.004,1.003,-0.183,161008
0.014,-0.006,1.002,-0.183,161034
0.015,-0.005,1.002,-0.183,161058
0.014,-0.006,1.004,-0.183,161082
0.015,-0.005,1.003,-0.183,161110
0.014,-0.005,1.002,-0.183,161136
0.015,-0.005,1.002,-0.183,161165
0.014,-0.006,1.003,-0.244,161189
0.014,-0.007,1.002,-0.183,161212
0.014,-0.004,1.001,-0.183,161238
0.013,-0.007,1.002,-0.122,161262
0.015,-0.005,1.002,-0.244,161289
0.014,-0.006,1.002,-0.183,161313
0.014,-0.006,1.004,-0.366,161339
0.012,-0.004,1.003,-0.183,161364
0.015,-0.005,1.002,-0.305,161388
0.014,-0.006,1.003,-0.244,161413
0.014,-0.005,1.002,-0.061,161438
0.013,-0.005,1.002,-0.183,161464
0.013,-0.006,1.005,-0.244,161492
0.013,-0.004,1.003,-0.122,161516
0.016,-0.005,1.002,-0.305,161541
0.012,-0.004,1.003,-0.244,161567
0.014,-0.006,1.005,-0.183,161595
0.014,-0.006,1.001,-0.061,161620
0.014,-0.005,1.001,-0.122,161644
0.015,-0.006,1.004,-0.244,161671
0.014,-0.007,1.002,-0.061,161697
0.013,-0.006,1.003,-0.244,161722
0.013,-0.005,1.003,-0.244,161745
0.015,-0.005,1.002,-0.183,161770
0.013,-0.005,1.003,-0.244,161795
0.014,-0.006,1.004,-0.305,161821
0.014,-0.004,1.002,-0.183,161849
0.014,-0.004,1.002,-0.427,161875
0.014,-0.006,1.004,-0.183,161901
0.014,-0.005,1.004,-0.183,161925
0.013,-0.005,1.003,-0.122,161949
0.014,-0.006,1.004,-0.244,161973
0.014,-0.006,1.002,-0.183,161998
0.014,-0.007,1.001,-0.122,162023
0.014,-0.005,1.003,-0.183,162049
0.013,-0.005,1.003,-0.244,162076
0.014,-0.005,1.001,-0.183,162101
0.014,-0.005,1.003,-0.244,162127
0.014,-0.006,1.001,-0.122,162151
0.015,-0.004,1.002,-0.305,162174
0.015,-0.005,1.004,0.0,162202
0.011,-0.004,1.003,-0.183,162227
0.016,-0.004,1.001,-0.244,162251
0.015,-0.005,1.004,-0.061,162278
0.016,-0.004,1.002,-0.244,162302
0.014,-0.005,1.001,-0.244,162329
0.015,-0.005,1.001,-0.122,162357
0.014,-0.005,1.003,-0.183,162380
0.013,-0.006,1.002,-0.305,162407
0.013,-0.005,1.003,-0.183,162432
0.014,-0.005,1.004,-0.183,162458
0.014,-0.005,1.001,-0.061,162485
0.014,-0.005,1.004,-0.122,162510
0.015,-0.005,1.002,-0.183,162533
0.015,-0.005,1.004,-0.305,162559
0.015,-0.005,1.001,-0.183,162585
0.014,-0.006,1.004,-0.305,162610
0.014,-0.006,1.004,-0.122,162635
0.015,-0.005,1.004,-0.183,162660
0.014,-0.005,1.003,-0.122,162687
0.014,-0.004,1.001,-0.244,162713
0.013,-0.004,1.0,-0.244,162738
0.015,-0.006,1.002,-0.244,162761
0.015,-0.004,1.004,-0.122,162784
0.017,-0.005,1.003,-0.244,162808
0.015,-0.006,1.002,-0.244,162832
0.015,-0.004,1.003,-0.244,162859
0.015,-0.005,1.001,-0.061,162885
0.016,-0.005,1.002,-0.122,162911
0.015,-0.005,1.001,-0.122,162936
0.015,-0.006,1.002,-0.183,162962
0.014,-0.005,1.002,-0.244,162989
0.014,-0.004,1.001,-0.244,163016
0.014,-0.003,1.002,-0.244,163040
0.015,-0.005,1.002,-0.244,163064
0.012,-0.005,1.001,-0.244,163089
0.014,-0.005,1.003,-0.244,163117
0.015,-0.005,1.003,-0.244,163142
0.014,-0.004,1.003,-0.305,163171
0.016,-0.006,1.003,-0.183,163196
0.013,-0.005,1.003,-0.183,163222
0.015,-0.006,1.002,-0.183,163247
0.016,-0.007,1.001,-0.183,163274
0.014,-0.003,1.002,-0.366,163299
0.014,-0.005,1.004,-0.183,163324
0.015,-0.006,1.003,-0.183,163349
0.014,-0.004,1.003,-0.305,163376
0.015,-0.006,1.001,-0.305,163401
0.016,-0.004,1.002,-0.122,163425
0.015,-0.005,1.001,-0.305,163449
0.014,-0.007,1.001,-0.244,163475
0.015,-0.005,1.002,-0.244,163501
0.014,-0.005,1.002,-0.122,163529
0.015,-0.005,1.004,-0.183,163553
0.016,-0.005,1.001,-0.244,163579
0.015,-0.005,1.002,-0.183,163604
0.015,-0.006,1.003,-0.244,163631
0.015,-0.003,1.002,-0.244,163657
0.014,-0.006,1.002,-0.122,163682
0.015,-0.007,1.002,-0.244,163708
0.015,-0.004,1.002,-0.427,163733
0.014,-0.006,1.001,-0.366,163757
0.014,-0.005,1.004,-0.305,163782
0.014,-0.005,1.003,-0.183,163807
0.015,-0.005,1.003,-0.305,163832
0.015,-0.005,1.004,-0.244,163857
0.014,-0.006,1.001,-0.122,163881
0.014,-0.007,1.003,-0.183,163905
0.014,-0.005,1.002,-0.183,163929
0.014,-0.007,1.003,-0.305,163953
0.013,-0.005,1.003,-0.183,163977
0.014,-0.005,1.001,-0.366,164001
0.015,-0.005,1.004,-0.305,164028
0.014,-0.005,1.001,-0.183,164051
0.016,-0.006,1.002,-0.122,164077
0.015,-0.006,1.002,-0.183,164101
0.013,-0.003,1.003,-0.244,164126
0.014,-0.006,1.003,-0.305,164152
0.015,-0.005,1.003,-0.183,164177
0.015,-0.005,1.003,-0.305,164201
0.016,-0.006,1.003,-0.183,164225
0.014,-0.005,1.004,-0.244,164253
0.015,-0.006,1.004,-0.122,164280
0.015,-0.006,1.001,-0.244,164306
0.015,-0.005,1.001,-0.183,164334
0.015,-0.006,1.004,-0.244,164359
0.012,-0.006,1.003,-0.122,164383
0.015,-0.006,1.002,-0.061,164411
0.014,-0.007,1.002,-0.061,164439
0.014,-0.005,1.002,-0.305,164466
0.015,-0.006,1.002,-0.305,164492
0.015,-0.004,1.001,-0.122,164517
0.013,-0.005,1.002,-0.122,164541
0.015,-0.005,1.003,-0.061,164565
0.014,-0.006,1.002,-0.244,164590
0.015,-0.006,1.004,-0.366,164616
0.014,-0.003,1.003,-0.244,164642
0.014,-0.006,1.003,0.0,164666
0.015,-0.005,1.002,-0.488,164691
0.014,-0.007,1.003,-0.244,164719
0.013,-0.006,1.001,-0.244,164744
0.015,-0.005,1.004,-0.122,164770
0.013,-0.006,1.002,-0.183,164794
0.013,-0.006,1.004,-0.061,164821
0.015,-0.006,1.003,-0.244,164849
0.014,-0.005,1.003,0.0,164874
0.013,-0.004,1.003,-0.183,164898
0.014,-0.004,1.003,-0.244,164924
0.014,-0.005,1.001,-0.122,164950
0.014,-0.005,1.002,-0.366,164975
0.014,-0.005,1.004,-0.122,164999
0.014,-0.004,1.003,-0.183,165023
0.014,-0.004,1.004,-0.183,165048
0.013,-0.005,1.002,-0.183,165074
0.014,-0.004,1.001,-0.244,165101
0.013,-0.007,1.003,-0.244,165124
0.013,-0.004,1.002,-0.183,165149
0.014,-0.005,1.004,-0.244,165173
0.014,-0.005,1.002,-0.122,165198
0.014,-0.006,1.002,-0.122,165222
0.014,-0.005,1.003,-0.244,165247
0.013,-0.005,1.002,-0.061,165273
0.014,-0.006,1.002,-0.305,165296
0.014,-0.004,1.004,-0.061,165321
0.013,-0.004,1.002,-0.122,165349
0.014,-0.005,1.001,-0.183,165376
0.014,-0.006,1.002,-0.122,165404
0.013,-0.005,1.002,0.0,165429
0.015,-0.005,1.001,-0.183,165455
0.013,-0.006,1.003,-0.183,165482
0.014,-0.004,1.002,-0.183,165507
0.014,-0.004,1.002,-0.183,165533
0.014,-0.007,1.002,-0.061,165560
0.013,-0.006,1.003,-0.061,165585
0.015,-0.006,1.002,-0.183,165608
0.013,-0.006,1.002,-0.122,165632
0.015,-0.005,1.002,-0.122,165658
0.015,-0.006,1.003,-0.061,165686
0.015,-0.005,1.001,-0.183,165711
0.015,-0.005,1.003,-0.305,165735
0.015,-0.005,1.001,-0.183,165759
0.013,-0.005,1.0,-0.122,165786
0.015,-0.005,1.002,-0.183,165813
0.015,-0.004,1.002,-0.244,165838
0.013,-0.005,1.002,-0.183,165863
0.013,-0.004,1.003,-0.244,165888
0.014,-0.006,1.002,-0.244,165915
0.015,-0.006,1.003,-0.244,165940
0.014,-0.005,1.001,-0.061,165966
0.013,-0.005,1.002,-0.244,165991
0.015,-0.005,1.001,-0.244,166015
0.015,-0.005,1.003,-0.122,166040
0.015,-0.007,1.002,-0.122,166066
0.012,-0.004,1.001,-0.183,166091
0.013,-0.003,1.002,-0.244,166117
0.013,-0.004,1.0,-0.061,166141
0.016,-0.006,1.001,-0.305,166167
0.015,-0.006,1.002,-0.183,166193
0.014,-0.005,1.003,-0.122,166222
0.015,-0.007,1.002,-0.122,166249
0.014,-0.005,1.003,-0.305,166273
0.013,-0.004,1.002,-0.183,166297
0.014,-0.006,1.003,-0.305,166323
0.013,-0.007,1.002,-0.305,166348
0.013,-0.006,1.003,-0.122,166373
0.013,-0.005,1.002,-0.244,166401
0.015,-0.005,1.001,-0.183,166425
0.014,-0.004,1.004,0.0,166451
0.013,-0.005,1.002,-0.244,166479
0.014,-0.005,1.001,-0.122,166505
0.014,-0.006,1.001,-0.305,166530
0.014,-0.007,1.0,-0.305,166556
0.014,-0.006,1.001,-0.183,166582
0.014,-0.006,1.003,-0.244,166609
0.015,-0.007,1.003,-0.183,166634
0.016,-0.005,1.002,-0.183,166658
0.012,-0.006,1.003,-0.244,166684
0.015,-0.007,1.001,-0.244,166710
0.013,-0.006,1.002,-0.244,166735
0.015,-0.005,1.003,-0.183,166760
0.014,-0.005,1.002,-0.183,166788
0.015,-0.005,1.001,-0.244,166814
0.016,-0.006,1.004,-0.183,166843
0.015,-0.006,1.003,-0.122,166869
0.015,-0.005,1.002,-0.183,166894
0.015,-0.005,1.002,-0.183,166918
0.014,-0.006,1.001,-0.244,166946
0.012,-0.006,1.004,-0.305,166972
0.015,-0.006,1.002,-0.244,166996
0.013,-0.003,1.004,-0.183,167021
0.013,-0.006,1.002,-0.183,167045
0.015,-0.006,1.003,-0.305,167070
0.013,-0.005,1.002,-0.122,167097
0.013,-0.004,1.005,-0.061,167121
0.014,-0.003,1.004,-0.183,167147
0.015,-0.005,1.003,-0.244,167172
0.014,-0.006,1.002,-0.061,167199
0.014,-0.004,1.002,-0.244,167225
0.014,-0.006,1.004,-0.183,167249
0.015,-0.006,1.001,-0.183,167274
0.016,-0.005,1.004,-0.305,167300
0.014,-0.005,1.003,-0.183,167324
0.014,-0.006,1.002,-0.244,167347
0.016,-0.005,1.003,-0.305,167375
0.014,-0.006,1.002,-0.061,167401
0.015,-0.005,1.002,-0.305,167425
0.014,-0.006,1.004,-0.183,167451
0.014,-0.004,1.002,-0.122,167476
0.013,-0.006,1.004,-0.183,167501
0.012,-0.004,1.005,-0.183,167526
0.015,-0.004,1.004,-0.366,167554
0.015,-0.006,1.001,-0.305,167580
0.015,-0.005,1.001,-0.183,167605
0.015,-0.005,1.004,-0.183,167629
0.015,-0.005,1.002,-0.305,167653
0.013,-0.005,1.003,-0.061,167680
0.013,-0.004,1.002,-0.305,167705
0.013,-0.004,1.002,-0.244,167729
0.014,-0.006,1.002,-0.244,167753
0.015,-0.005,1.002,-0.244,167781
0.013,-0.005,1.005,-0.183,167808
0.015,-0.005,1.002,-0.305,167833
0.014,-0.005,1.002,-0.183,167861
0.014,-0.005,1.002,-0.244,167884
0.015,-0.005,1.003,-0.122,167912
0.014,-0.006,1.001,-0.305,167935
0.013,-0.006,1.001,-0.122,167962
0.014,-0.004,1.003,-0.305,167988
0.014,-0.007,1.004,-0.183,168011
0.014,-0.005,1.002,-0.244,168036
0.015,-0.006,1.003,-0.366,168062
0.015,-0.005,1.003,-0.244,168087
0.015,-0.004,1.003,-0.183,168116
0.014,-0.006,1.002,-0.183,168141
0.013,-0.006,1.002,-0.183,168165
0.014,-0.006,1.002,-0.183,168189
0.014,-0.004,1.003,-0.122,168217
0.015,-0.004,1.0,-0.183,168241
0.015,-0.006,1.003,-0.183,168264
0.015,-0.005,1.002,-0.244,168289
0.014,-0.005,1.001,-0.183,168314
0.016,-0.005,1.004,-0.183,168339
0.014,-0.005,1.001,-0.122,168366
0.015,-0.006,1.002,-0.122,168394
0.015,-0.005,1.002,-0.366,168421
0.015,-0.006,1.002,-0.244,168448
0.014,-0.006,1.003,-0.366,168473
0.016,-0.004,1.002,-0.122,168498
0.014,-0.005,1.001,-0.244,168523
0.014,-0.005,1.001,-0.183,168547
0.015,-0.005,1.003,-0.244,168574
0.014,-0.004,1.0,-0.183,168599
0.015,-0.006,1.002,-0.305,168626
0.014,-0.005,1.003,-0.183,168653
0.015,-0.006,1.002,-0.183,168677
0.015,-0.007,1.002,-0.366,168704
0.014,-0.005,1.001,-0.122,168729
0.013,-0.006,1.004,-0.366,168755
0.013,-0.007,1.001,-0.122,168780
0.014,-0.005,1.002,-0.305,168805
0.015,-0.007,1.003,-0.305,168830
0.014,-0.004,1.004,-0.122,168854
0.015,-0.003,1.001,-0.122,168880
0.014,-0.006,1.001,-0.305,168905
0.016,-0.006,1.001,-0.183,168933
0.014,-0.006,1.002,0.0,168959
0.014,-0.006,1.0,-0.244,168983
0.014,-0.005,1.004,-0.305,169009
0.015,-0.004,1.004,-0.061,169035
0.015,-0.006,1.004,-0.244,169061
0.015,-0.004,1.005,-0.183,169090
0.014,-0.005,1.002,-0.183,169116
0.013,-0.005,1.001,-0.366,169141
0.017,-0.007,1.002,-0.122,169165
0.014,-0.006,1.001,-0.122,169190
0.014,-0.005,1.001,-0.244,169216
0.015,-0.006,1.003,-0.122,169241
0.014,-0.005,1.002,-0.122,169269
0.013,-0.006,1.003,-0.244,169294
0.014,-0.005,1.003,-0.244,169320
0.014,-0.005,1.003,-0.183,169345
0.015,-0.005,1.002,-0.305,169372
0.015,-0.007,1.004,-0.122,169398
0.014,-0.006,1.001,-0.244,169423
0.013,-0.005,1.0,-0.305,169448
0.016,-0.005,1.003,-0.244,169472
0.015,-0.005,1.004,-0.183,169498
0.014,-0.006,1.003,-0.366,169521
0.013,-0.006,1.004,-0.122,169545
0.015,-0.005,1.002,-0.305,169571
0.015,-0.005,1.001,-0.183,169594
0.014,-0.004,1.002,-0.122,169618
0.014,-0.006,1.002,-0.305,169642
0.014,-0.004,1.002,-0.244,169671
0.013,-0.006,1.002,-0.305,169698
0.013,-0.005,1.003,-0.305,169722
0.014,-0.007,1.003,-0.183,169750
0.016,-0.005,1.002,-0.305,169774
0.016,-0.005,1.002,-0.244,169799
0.015,-0.007,1.002,-0.122,169824
0.014,-0.004,1.001,-0.305,169848
0.015,-0.005,1.003,-0.366,169874
0.015,-0.005,1.004,-0.244,169900
0.015,-0.005,1.003,-0.183,169923
0.013,-0.004,1.002,-0.183,169950
0.015,-0.006,1.002,-0.183,169975
0.015,-0.004,1.002,-0.244,169998
0.014,-0.006,1.003,-0.122,170023
0.015,-0.006,1.002,-0.183,170048
0.014,-0.003,1.003,-0.183,170077
0.014,-0.004,1.002,-0.122,170102
0.013,-0.006,1.003,-0.122,170127
0.015,-0.005,1.002,-0.366,170152
0.015,-0.005,1.001,-0.183,170178
0.015,-0.005,1.002,-0.183,170202
0.015,-0.006,1.001,-0.183,170227
0.014,-0.007,1.002,-0.305,170253
0.016,-0.006,1.001,-0.122,170276
0.016,-0.005,1.001,-0.305,170302
0.014,-0.006,1.003,-0.061,170327
0.014,-0.005,1.002,-0.305,170352
0.014,-0.005,1.002,-0.183,170379
0.012,-0.006,1.002,-0.122,170404
0.015,-0.005,1.001,-0.244,170428
0.013,-0.006,1.003,-0.122,170453
0.015,-0.006,1.001,-0.183,170477
0.015,-0.005,1.002,-0.305,170501
0.015,-0.005,1.003,-0.244,170527
0.015,-0.006,1.003,-0.244,170552
0.014,-0.006,1.002,-0.061,170578
0.014,-0.006,1.002,-0.305,170601
0.014,-0.005,1.003,-0.183,170626
0.013,-0.006,1.001,-0.305,170652
0.015,-0.005,1.001,-0.183,170676
0.014,-0.004,1.001,-0.305,170703
0.015,-0.006,1.002,-0.122,170728
0.014,-0.006,1.003,-0.427,170755
0.013,-0.006,1.003,-0.183,170779
0.014,-0.007,1.001,-0.244,170804
0.014,-0.004,1.004,-0.305,170830
0.016,-0.005,1.002,-0.122,170854
0.015,-0.006,1.002,-0.244,170879
0.015,-0.004,1.003,-0.183,170908
0.014,-0.005,1.004,-0.183,170932
0.013,-0.006,1.003,-0.183,170957
0.015,-0.006,1.002,-0.183,170982
0.015,-0.007,1.003,-0.305,171007
0.014,-0.006,1.002,-0.183,171033
0.013,-0.004,1.003,-0.244,171057
0.015,-0.004,1.002,-0.244,171086
0.014,-0.004,1.003,-0.244,171110
0.015,-0.004,1.001,-0.305,171134
0.014,-0.004,1.0,-0.244,171158
0.014,-0.006,1.003,-0.183,171182
0.014,-0.005,1.001,-0.244,171208
0.013,-0.004,1.003,-0.183,171232
0.014,-0.005,1.002,-0.183,171258
0.014,-0.005,1.001,-0.244,171283
0.012,-0.005,1.003,-0.183,171308
0.015,-0.006,1.003,-0.244,171332
0.015,-0.004,1.003,-0.183,171357
0.014,-0.005,1.0,-0.183,171385
0.016,-0.005,1.0,-0.244,171412
0.015,-0.005,1.003,-0.122,171437
0.014,-0.005,1.002,-0.244,171463
0.015,-0.006,1.003,-0.122,171490
0.013,-0.004,1.001,-0.244,171514
0.015,-0.006,1.002,-0.061,171538
0.015,-0.005,1.003,-0.244,171562
0.017,-0.005,1.003,-0.183,171587
0.016,-0.006,1.002,-0.183,171614
0.013,-0.006,1.002,-0.244,171638
0.013,-0.005,1.003,-0.122,171662
0.014,-0.005,1.002,-0.305,171686
0.014,-0.006,1.003,-0.244,171715
0.015,-0.005,1.002,-0.244,171738
0.014,-0.006,1.001,-0.244,171763
0.015,-0.005,1.004,-0.061,171788
0.015,-0.005,1.0,-0.305,171812
0.014,-0.005,1.001,-0.366,171837
0.015,-0.005,1.003,0.0,171861
0.014,-0.005,1.003,-0.366,171887
0.013,-0.005,1.002,-0.122,171914
0.014,-0.005,1.002,-0.244,171941
0.015,-0.005,1.003,-0.366,171967
0.016,-0.006,1.002,-0.244,171992
0.014,-0.005,1.003,-0.183,172020
0.014,-0.005,1.002,-0.244,172048
0.014,-0.006,1.003,-0.183,172073
0.015,-0.006,1.004,-0.183,172099
0.013,-0.005,1.0,-0.305,172123
0.015,-0.005,1.001,-0.061,172148
0.015,-0.005,1.002,0.0,172173
0.015,-0.004,1.003,-0.122,172199
0.013,-0.006,1.004,-0.183,172223
0.015,-0.004,1.003,-0.122,172247
0.014,-0.005,1.003,-0.183,172276
0.013,-0.004,1.002,-0.122,172301
0.016,-0.005,1.003,-0.183,172328
0.015,-0.005,1.002,-0.244,172357
0.014,-0.004,1.003,-0.122,172383
0.014,-0.005,1.003,-0.122,172408
0.016,-0.005,1.003,-0.244,172433
0.015,-0.004,1.002,-0.122,172458
0.014,-0.005,1.003,-0.183,172481
0.015,-0.005,1.003,-0.244,172505
0.014,-0.006,1.003,-0.183,172529
0.015,-0.005,1.001,-0.122,172554
0.014,-0.005,1.005,-0.183,172579
0.015,-0.005,1.002,-0.183,172606
0.014,-0.007,1.001,-0.305,172632
0.015,-0.004,1.001,-0.244,172658
0.014,-0.006,1.002,-0.122,172681
0.014,-0.006,1.004,-0.183,172707
0.014,-0.005,1.002,-0.244,172736
0.014,-0.005,1.003,-0.244,172761
0.015,-0.005,1.004,-0.244,172787
0.015,-0.006,1.003,-0.183,172812
0.014,-0.003,1.003,-0.183,172836
0.015,-0.006,1.003,-0.183,172860
0.015,-0.004,1.002,-0.244,172884
0.015,-0.005,1.001,-0.244,172910
0.014,-0.005,1.002,-0.244,172937
0.014,-0.005,1.004,-0.183,172965
0.015,-0.005,1.002,-0.244,172991
0.015,-0.006,1.003,-0.122,173014
0.014,-0.004,1.002,-0.061,173038
0.013,-0.005,1.002,-0.122,173064
0.016,-0.006,1.001,-0.183,173091
0.013,-0.005,1.003,-0.122,173118
0.015,-0.004,1.003,-0.183,173143
0.015,-0.005,1.003,-0.244,173170
0.013,-0.005,1.002,-0.183,173196
0.014,-0.004,1.002,-0.183,173222
0.015,-0.006,1.002,-0.244,173248
0.013,-0.006,1.002,-0.061,173275
0.014,-0.005,1.002,-0.183,173302
0.013,-0.005,1.003,-0.305,173326
0.014,-0.005,1.002,-0.244,173351
0.013,-0.005,1.002,-0.244,173377
0.016,-0.006,1.004,-0.183,173400
0.017,-0.005,1.002,-0.183,173423
0.014,-0.005,1.003,-0.244,173448
0.014,-0.006,1.003,-0.305,173473
0.013,-0.004,1.002,-0.427,173500
0.015,-0.004,1.002,-0.183,173529
0.014,-0.007,1.002,-0.366,173554
0.014,-0.004,1.003,-0.183,173578
0.015,-0.006,1.003,-0.244,173604
0.012,-0.005,1.004,-0.244,173629
0.014,-0.006,1.002,-0.244,173655
0.014,-0.006,1.002,-0.183,173679
0.014,-0.006,1.002,-0.122,173702
0.014,-0.006,1.003,-0.244,173729
0.014,-0.007,1.003,-0.244,173755
0.016,-0.005,1.0,-0.244,173783
0.013,-0.005,1.001,-0.122,173809
0.014,-0.006,1.005,-0.305,173837
0.014,-0.006,1.003,-0.244,173863
0.015,-0.006,1.001,-0.244,173887
0.015,-0.005,1.001,-0.122,173912
0.015,-0.007,1.003,-0.122,173936
0.015,-0.005,1.001,-0.183,173961
0.014,-0.007,1.001,-0.061,173986
0.015,-0.005,1.003,-0.122,174011
0.015,-0.005,1.001,-0.122,174037
0.014,-0.006,1.004,-0.122,174060
0.014,-0.005,1.002,-0.305,174088
0.013,-0.006,1.002,-0.244,174115
0.014,-0.005,1.002,-0.061,174144
0.014,-0.006,1.003,-0.183,174169
0.014,-0.006,1.002,-0.305,174192
0.014,-0.005,1.001,-0.122,174215
0.013,-0.005,1.002,-0.122,174241
0.014,-0.006,1.002,-0.244,174268
0.015,-0.005,1.002,-0.122,174294
0.014,-0.006,1.003,-0.305,174321
0.015,-0.005,1.004,-0.305,174346
0.013,-0.004,1.002,-0.183,174371
0.014,-0.007,1.002,-0.183,174394
0.013,-0.005,1.003,-0.305,174421
0.015,-0.006,1.002,-0.366,174446
0.014,-0.006,1.003,-0.183,174474
0.015,-0.006,1.003,-0.183,174500
0.014,-0.006,1.004,-0.305,174527
0.013,-0.005,1.002,-0.122,174552
0.014,-0.005,1.002,-0.122,174577
0.014,-0.005,1.002,-0.183,174603
0.015,-0.005,1.002,-0.244,174629
0.014,-0.005,1.003,-0.183,174654
0.013,-0.005,1.002,-0.244,174681
0.014,-0.005,1.0,-0.183,174708
0.015,-0.005,1.001,-0.183,174736
0.015,-0.006,1.003,-0.183,174760
0.015,-0.005,1.002,-0.244,174785
0.016,-0.006,1.004,-0.183,174811
0.013,-0.005,1.003,-0.183,174835
0.014,-0.005,1.002,-0.183,174860
0.017,-0.006,1.002,-0.183,174886
0.013,-0.005,1.003,-0.244,174910
0.013,-0.005,1.004,-0.122,174935
0.014,-0.005,1.003,-0.183,174960
0.014,-0.007,1.003,-0.183,174986
0.014,-0.004,1.003,-0.122,175011
0.013,-0.004,1.001,-0.183,175035
0.014,-0.006,1.002,-0.244,175061
0.015,-0.007,1.004,-0.183,175083
0.014,-0.005,1.003,-0.244,175115
0.013,-0.005,1.002,-0.366,175141
0.015,-0.005,1.003,-0.305,175167
0.014,-0.006,1.004,-0.183,175192
0.015,-0.006,1.001,-0.183,175217
0.015,-0.005,1.002,-0.122,175243
0.013,-0.006,1.002,-0.183,175268
0.016,-0.005,1.001,0.0,175291
0.015,-0.006,1.001,-0.061,175315
0.014,-0.004,1.002,-0.122,175341
0.013,-0.006,1.002,-0.183,175365
0.016,-0.005,1.002,-0.305,175390
0.015,-0.004,1.002,-0.305,175416
0.013,-0.005,1.001,-0.183,175440
0.015,-0.004,1.003,-0.122,175464
0.014,-0.004,1.003,-0.244,175490
0.014,-0.005,1.001,-0.244,175520
0.015,-0.004,1.0,-0.061,175545
0.016,-0.004,1.003,-0.244,175570
0.013,-0.005,1.003,-0.366,175597
0.013,-0.005,1.001,-0.061,175621
0.013,-0.005,1.004,-0.305,175646
0.014,-0.006,1.003,-0.366,175671
0.015,-0.005,1.001,-0.183,175696
0.014,-0.005,1.003,-0.244,175721
0.013,-0.004,1.002,-0.183,175745
0.013,-0.005,1.003,-0.183,175771
0.014,-0.006,1.002,-0.183,175798
0.015,-0.006,1.003,-0.183,175823
0.013,-0.005,1.003,-0.122,175848
0.013,-0.006,1.0,-0.244,175875
0.013,-0.006,1.002,-0.183,175900
0.014,-0.005,1.001,-0.061,175924
0.015,-0.004,1.001,-0.122,175950
0.015,-0.007,1.003,-0.244,175976
0.015,-0.005,1.003,-0.305,176003
0.014,-0.004,1.002,-0.183,176032
0.014,-0.006,1.002,-0.183,176059
0.015,-0.006,1.004,-0.305,176086
0.015,-0.005,1.003,-0.183,176111
0.014,-0.006,1.002,-0.122,176139
0.015,-0.005,1.002,-0.244,176169
0.014,-0.006,1.003,-0.244,176193
0.015,-0.005,1.003,-0.122,176218
0.015,-0.005,1.002,-0.122,176245
0.014,-0.005,1.003,-0.366,176270
0.015,-0.005,1.004,-0.122,176297
0.014,-0.005,1.003,-0.122,176324
0.014,-0.004,1.003,-0.305,176349
0.016,-0.005,1.001,-0.122,176372
0.013,-0.007,1.003,-0.122,176397
0.015,-0.006,1.003,-0.122,176424
0.014,-0.007,1.002,-0.305,176449
0.012,-0.006,1.001,-0.366,176475
0.014,-0.006,1.002,-0.122,176501
0.015,-0.004,1.001,-0.061,176527
0.015,-0.005,1.002,-0.366,176553
0.015,-0.005,1.001,-0.244,176578
0.013,-0.004,1.005,-0.122,176603
0.015,-0.007,1.001,-0.244,176629
0.013,-0.006,1.002,-0.244,176654
0.013,-0.007,1.002,-0.183,176679
0.015,-0.004,1.004,-0.183,176703
0.014,-0.003,1.001,-0.366,176727
0.014,-0.006,1.003,-0.122,176752
0.014,-0.005,1.002,-0.244,176777
0.014,-0.005,1.002,-0.305,176800
0.014,-0.006,1.002,-0.244,176823
0.015,-0.006,1.003,-0.122,176846
0.014,-0.005,1.003,-0.183,176871
0.016,-0.005,1.004,-0.305,176900
0.015,-0.006,1.002,-0.305,176927
0.014,-0.006,1.003,-0.183,176954
0.013,-0.005,1.002,-0.122,176979
0.014,-0.005,1.003,-0.183,177003
0.014,-0.005,1.002,-0.183,177029
0.015,-0.006,1.003,-0.183,177055
0.013,-0.006,1.002,-0.244,177082
0.014,-0.005,1.003,-0.183,177107
0.015,-0.005,1.001,-0.244,177134
0.015,-0.007,1.003,-0.183,177158
0.012,-0.004,1.003,-0.305,177182
0.012,-0.006,1.0,-0.183,177208
0.014,-0.006,1.002,-0.244,177232
0.013,-0.004,1.002,-0.122,177258
0.014,-0.005,1.003,-0.244,177283
0.014,-0.006,1.002,-0.061,177306
0.015,-0.005,1.002,-0.183,177331
0.017,-0.005,1.001,-0.122,177354
0.013,-0.004,1.002,-0.183,177378
0.014,-0.006,1.001,-0.183,177402
0.014,-0.005,1.002,-0.244,177426
0.013,-0.007,1.004,-0.244,177454
0.016,-0.006,1.002,-0.244,177481
0.013,-0.007,1.003,-0.183,177508
0.015,-0.006,1.002,-0.183,177534
0.014,-0.006,1.002,-0.244,177559
0.015,-0.005,1.001,-0.244,177586
0.014,-0.004,1.002,-0.122,177611
0.014,-0.006,1.001,-0.244,177637
0.011,-0.005,1.002,-0.122,177661
0.015,-0.006,1.002,-0.244,177685
0.015,-0.004,1.002,-0.183,177710
0.013,-0.006,1.002,-0.183,177738
0.014,-0.006,1.001,-0.183,177765
0.014,-0.006,1.003,-0.183,177788
0.013,-0.006,1.003,-0.244,177813
0.015,-0.005,1.002,-0.244,177841
0.014,-0.007,1.001,-0.305,177867
0.016,-0.004,1.002,-0.183,177892
0.014,-0.005,1.001,-0.122,177917
0.013,-0.005,1.001,-0.244,177943
0.013,-0.004,1.003,-0.183,177972
0.014,-0.005,1.003,-0.244,177998
0.014,-0.004,1.002,-0.061,178023
0.015,-0.005,1.003,-0.244,178048
0.013,-0.007,1.002,-0.183,178072
0.014,-0.005,1.003,-0.305,178097
0.015,-0.007,1.002,-0.305,178121
0.014,-0.006,1.003,-0.183,178147
0.014,-0.006,1.002,-0.183,178172
0.014,-0.005,1.003,-0.244,178197
0.016,-0.004,1.003,-0.244,178223
0.014,-0.003,1.004,-0.244,178251
0.014,-0.006,1.002,-0.061,178277
0.015,-0.005,1.002,-0.305,178303
0.016,-0.004,1.003,-0.183,178328
0.014,-0.005,1.003,-0.122,178355
0.015,-0.005,1.003,-0.427,178379
0.014,-0.005,1.003,-0.244,178403
0.013,-0.005,1.003,-0.183,178429
0.015,-0.005,1.002,-0.183,178453
0.013,-0.005,1.002,-0.305,178477
0.015,-0.004,1.004,-0.244,178501
0.014,-0.005,1.001,-0.244,178526
0.013,-0.005,1.001,-0.305,178551
0.014,-0.005,1.003,-0.122,178577
0.014,-0.005,1.003,-0.122,178601
0.016,-0.004,1.002,-0.183,178627
0.014,-0.005,1.002,-0.305,178652
0.016,-0.005,1.004,-0.061,178675
0.015,-0.005,1.004,-0.244,178700
0.015,-0.004,1.002,-0.183,178723
0.014,-0.005,1.002,-0.244,178748
0.015,-0.004,1.002,-0.244,178773
0.014,-0.006,1.002,-0.305,178797
0.015,-0.007,1.002,-0.244,178824
0.013,-0.006,1.003,-0.122,178850
0.013,-0.006,1.001,-0.122,178878
0.014,-0.003,1.002,-0.122,178905
0.014,-0.006,1.002,-0.122,178930
0.014,-0.004,1.003,-0.244,178957
0.014,-0.006,1.003,-0.366,178983
0.014,-0.005,1.003,-0.244,179008
0.015,-0.004,1.002,-0.244,179033
0.013,-0.004,1.003,-0.122,179059
0.013,-0.006,1.002,-0.305,179083
0.016,-0.005,1.002,-0.305,179110
0.016,-0.005,1.004,-0.122,179135
0.014,-0.006,1.002,-0.305,179163
0.014,-0.004,1.003,-0.244,179187
0.012,-0.005,1.002,-0.244,179210
0.014,-0.006,1.002,-0.122,179235
0.014,-0.005,1.002,-0.366,179261
0.014,-0.006,1.002,-0.183,179284
0.014,-0.006,1.003,-0.183,179310
0.014,-0.005,1.003,-0.305,179334
0.015,-0.005,1.002,-0.183,179361
0.013,-0.005,1.001,-0.244,179388
0.014,-0.005,1.002,-0.305,179415
0.015,-0.006,1.002,-0.244,179443
0.013,-0.005,1.003,-0.122,179468
0.013,-0.005,1.004,-0.183,179493
0.014,-0.005,1.002,-0.122,179518
0.014,-0.004,1.0,-0.305,179542
0.013,-0.006,1.002,-0.244,179569
0.014,-0.004,1.001,-0.244,179596
0.015,-0.005,1.002,-0.427,179623
0.014,-0.006,1.004,-0.244,179647
0.015,-0.005,1.002,-0.244,179673
0.017,-0.007,1.002,-0.305,179700
0.015,-0.005,1.004,-0.244,179726
0.015,-0.006,1.001,-0.244,179752
0.014,-0.004,1.002,-0.244,179775
0.015,-0.005,1.004,-0.305,179800
0.014,-0.005,1.002,-0.183,179824
0.016,-0.006,1.002,-0.244,179851
0.014,-0.005,1.002,-0.122,179877
0.015,-0.006,1.001,-0.183,179907
0.014,-0.004,1.002,-0.183,179933
0.015,-0.006,1.004,-0.122,179958
0.014,-0.005,1.002,-0.183,179986
0.014,-0.006,1.004,-0.244,180011
0.014,-0.005,1.003,-0.122,180038
0.014,-0.007,1.003,-0.183,180062
0.015,-0.005,1.002,-0.244,180086
0.015,-0.006,1.001,-0.183,180111
0.015,-0.005,1.001,0.0,180137
0.013,-0.006,1.001,-0.244,180161
0.013,-0.005,1.001,-0.305,180187
0.014,-0.006,1.002,-0.183,180211
0.013,-0.004,1.002,-0.183,180238
0.014,-0.004,1.002,-0.244,180261
0.015,-0.005,1.001,-0.183,180287
0.015,-0.004,1.002,-0.183,180313
0.014,-0.006,1.003,-0.183,180339
0.014,-0.004,1.001,-0.183,180365
0.015,-0.006,1.002,-0.244,180389
0.014,-0.005,1.004,-0.244,180413
0.015,-0.005,1.003,-0.183,180437
0.015,-0.004,1.003,-0.183,180461
0.015,-0.005,1.002,-0.122,180486
0.016,-0.005,1.003,-0.244,180510
0.014,-0.005,1.0,-0.122,180534
0.013,-0.005,1.003,-0.244,180558
0.015,-0.004,1.002,-0.305,180583
0.014,-0.006,1.004,-0.305,180608
0.014,-0.008,1.003,-0.122,180634
0.014,-0.005,1.002,-0.122,180659
0.014,-0.007,1.004,-0.244,180686
0.013,-0.005,1.002,-0.244,180710
0.014,-0.006,1.002,-0.183,180736
0.015,-0.005,1.002,-0.305,180761
0.015,-0.006,1.002,-0.244,180787
0.013,-0.005,1.004,-0.366,180811
0.015,-0.005,1.002,-0.305,180835
0.014,-0.004,1.002,-0.061,180860
0.014,-0.008,1.001,-0.183,180886
0.014,-0.006,1.002,-0.183,180913
0.014,-0.005,1.001,-0.244,180939
0.014,-0.004,1.002,-0.183,180964
0.014,-0.005,1.003,-0.183,180990
0.015,-0.005,1.003,-0.244,181016
0.014,-0.007,1.002,-0.305,181042
0.015,-0.005,1.002,-0.122,181067
0.014,-0.005,1.003,-0.122,181094
0.016,-0.005,1.003,-0.122,181121
0.014,-0.006,1.003,-0.122,181148
0.014,-0.005,1.003,-0.183,181175
0.016,-0.004,1.003,-0.244,181202
0.015,-0.005,1.002,-0.305,181232
0.014,-0.005,1.003,-0.366,181259
0.014,-0.004,1.003,-0.183,181283
0.015,-0.005,1.003,-0.305,181309
0.014,-0.005,1.002,-0.183,181335
0.013,-0.005,1.002,-0.183,181362
0.015,-0.006,1.001,-0.366,181388
0.014,-0.005,1.004,-0.244,181414
0.015,-0.005,1.002,-0.061,181439
0.013,-0.006,1.002,-0.244,181465
0.013,-0.005,1.001,0.0,181489
0.014,-0.004,1.003,-0.183,181514
0.015,-0.004,1.002,-0.183,181540
0.015,-0.006,1.002,-0.183,181564
0.016,-0.005,1.001,-0.183,181588
0.013,-0.005,1.004,-0.244,181616
0.014,-0.006,1.003,-0.305,181643
0.015,-0.005,1.001,-0.183,181669
0.015,-0.005,1.002,-0.244,181692
0.014,-0.005,1.003,-0.244,181720
0.013,-0.004,1.003,-0.244,181746
0.014,-0.006,1.003,-0.122,181771
0.015,-0.004,1.004,-0.183,181796
0.015,-0.004,1.002,-0.244,181821
0.014,-0.006,1.001,-0.183,181845
0.012,-0.005,1.002,-0.183,181869
0.015,-0.007,1.003,-0.061,181897
0.015,-0.006,1.003,-0.305,181920
0.015,-0.005,1.002,-0.244,181943
0.016,-0.004,1.002,-0.122,181966
0.015,-0.005,1.003,-0.122,181990
0.015,-0.004,1.002,-0.183,182016
0.014,-0.006,1.002,-0.244,182042
0.015,-0.004,1.002,-0.244,182068
0.014,-0.005,1.003,-0.183,182093
0.015,-0.004,1.002,-0.183,182120
0.014,-0.006,1.003,-0.122,182144
0.014,-0.007,1.002,-0.244,182170
0.014,-0.005,1.002,-0.244,182197
0.014,-0.005,1.002,-0.061,182226
0.014,-0.006,1.002,-0.244,182256
0.013,-0.007,1.003,-0.366,182284
0.014,-0.005,1.001,-0.183,182309
0.015,-0.004,1.002,-0.061,182334
0.014,-0.005,1.0,-0.122,182360
0.015,-0.006,1.003,-0.183,182385
0.015,-0.006,1.002,-0.244,182412
0.013,-0.004,1.002,-0.122,182437
0.015,-0.005,1.001,-0.244,182464
0.015,-0.004,1.004,-0.183,182489
0.015,-0.006,1.003,-0.061,182517
0.014,-0.006,1.004,-0.183,182543
0.016,-0.004,1.002,-0.244,182572
0.015,-0.006,1.002,-0.305,182599
0.014,-0.006,1.003,-0.305,182626
0.014,-0.004,1.003,-0.183,182652
0.015,-0.005,1.001,-0.122,182677
0.015,-0.004,1.002,-0.305,182701
0.016,-0.003,1.001,-0.244,182725
0.014,-0.005,1.002,-0.305,182752
0.015,-0.006,1.002,-0.183,182781
0.014,-0.006,1.005,-0.244,182808
0.013,-0.005,1.002,-0.183,182832
0.016,-0.006,1.003,-0.366,182858
0.015,-0.004,1.002,-0.183,182883
0.014,-0.006,1.003,-0.061,182906
0.014,-0.006,1.001,-0.122,182931
0.015,-0.003,1.003,-0.122,182955
0.013,-0.003,1.005,0.0,182979
0.013,-0.006,1.001,-0.183,183004
0.015,-0.006,1.003,-0.305,183031
0.013,-0.005,1.004,-0.061,183056
0.015,-0.005,1.0,-0.183,183081
0.014,-0.004,1.001,-0.122,183106
0.015,-0.006,1.002,-0.244,183130
0.016,-0.007,1.003,-0.305,183155
0.015,-0.004,1.003,-0.183,183179
0.014,-0.005,1.003,0.0,183204
0.015,-0.005,1.002,-0.244,183229
0.013,-0.006,1.002,-0.183,183255
0.014,-0.005,1.004,-0.122,183278
0.015,-0.007,1.003,-0.488,183304
0.014,-0.005,1.003,-0.183,183329
0.015,-0.005,1.003,-0.244,183353
0.013,-0.005,1.003,-0.183,183378
0.014,-0.006,1.001,-0.183,183403
0.014,-0.006,1.002,-0.061,183428
0.015,-0.006,1.002,-0.122,183453
0.015,-0.006,1.002,-0.183,183477
0.014,-0.005,1.003,-0.183,183503
0.015,-0.006,1.002,-0.061,183528
0.013,-0.005,1.001,-0.122,183553
0.013,-0.005,1.003,-0.183,183577
0.013,-0.006,1.002,-0.122,183601
0.015,-0.006,1.002,-0.305,183626
0.014,-0.005,1.003,-0.122,183651
0.015,-0.006,1.001,-0.183,183679
0.013,-0.006,1.001,-0.183,183705
0.015,-0.005,1.002,-0.122,183730
0.014,-0.005,1.002,-0.122,183755
0.015,-0.006,1.003,-0.183,183781
0.014,-0.003,1.003,-0.244,183806
0.015,-0.005,1.003,-0.122,183831
0.014,-0.004,1.002,-0.122,183858
0.015,-0.005,1.002,-0.122,183884
0.014,-0.005,1.001,-0.244,183912
0.014,-0.007,1.003,-0.244,183937
0.015,-0.006,1.002,0.0,183962
0.013,-0.006,1.003,-0.122,183989
0.014,-0.006,1.002,-0.061,184014
0.013,-0.005,1.002,-0.183,184041
0.014,-0.006,1.002,-0.427,184065
0.015,-0.004,1.003,-0.122,184090
0.014,-0.004,1.003,-0.183,184114
0.015,-0.005,1.002,-0.183,184139
0.015,-0.005,1.001,-0.244,184163
0.014,-0.005,1.004,-0.305,184188
0.014,-0.006,1.0,-0.183,184216
0.014,-0.006,1.003,-0.183,184241
0.014,-0.006,1.005,-0.183,184270
0.013,-0.005,1.001,-0.305,184300
0.016,-0.006,1.002,-0.122,184326
0.014,-0.004,1.003,-0.183,184353
0.014,-0.005,1.005,-0.183,184376
0.014,-0.005,1.002,-0.183,184401
0.014,-0.005,1.002,-0.061,184428
0.014,-0.004,1.004,-0.244,184452
0.014,-0.006,1.0,-0.244,184479
0.015,-0.005,1.003,-0.122,184506
0.015,-0.005,1.003,-0.183,184531
0.015,-0.006,1.003,-0.122,184559
0.016,-0.003,1.002,-0.183,184583
0.014,-0.005,1.001,-0.122,184608
0.015,-0.005,1.002,-0.061,184634
0.015,-0.005,1.002,-0.122,184659
0.015,-0.006,1.005,-0.183,184684
0.013,-0.005,1.003,-0.061,184713
0.014,-0.006,1.001,-0.244,184740
0.013,-0.006,1.002,-0.183,184767
0.014,-0.005,1.002,-0.122,184792
0.013,-0.005,1.004,-0.183,184818
0.014,-0.005,1.002,-0.183,184845
0.016,-0.004,1.004,-0.183,184874
0.014,-0.006,1.003,-0.183,184899
0.015,-0.006,1.003,-0.366,184924
0.013,-0.005,1.001,0.061,184949
0.016,-0.005,1.003,-0.183,184976
0.013,-0.005,1.002,-0.183,185002
0.016,-0.005,1.001,-0.183,185028
0.014,-0.005,1.004,-0.244,185052
0.014,-0.005,1.004,-0.122,185077
0.014,-0.004,1.003,-0.305,185103
0.014,-0.004,1.002,-0.122,185129
0.015,-0.005,1.003,-0.183,185156
0.013,-0.004,1.003,-0.183,185183
0.013,-0.005,1.003,-0.061,185207
0.014,-0.003,1.002,-0.244,185232
0.014,-0.006,1.002,-0.244,185255
0.015,-0.005,1.001,-0.305,185278
0.014,-0.005,1.0,-0.061,185303
0.013,-0.005,1.004,-0.183,185329
0.014,-0.005,1.001,-0.122,185355
0.014,-0.004,1.002,-0.183,185383
0.015,-0.004,1.003,-0.244,185410
0.015,-0.005,1.003,-0.183,185437
0.015,-0.005,1.002,-0.183,185463
0.013,-0.004,1.001,-0.122,185487
0.014,-0.006,1.002,-0.183,185513
0.015,-0.006,1.002,-0.366,185539
0.016,-0.005,1.003,-0.183,185564
0.015,-0.005,1.001,-0.183,185588
0.015,-0.005,1.003,-0.061,185617
0.014,-0.006,1.001,-0.244,185645
0.014,-0.005,1.002,-0.244,185670
0.014,-0.005,1.004,-0.305,185696
0.014,-0.005,1.002,-0.305,185722
0.014,-0.005,1.004,-0.122,185747
0.014,-0.004,1.003,-0.244,185771
0.016,-0.004,1.002,-0.183,185797
0.014,-0.006,1.003,-0.244,185824
0.014,-0.005,1.001,-0.183,185849
0.016,-0.007,1.002,-0.122,185875
0.014,-0.005,1.001,-0.122,185902
0.015,-0.005,1.001,-0.244,185929
0.013,-0.006,1.0,-0.305,185956
0.015,-0.005,1.003,-0.183,185983
0.014,-0.004,1.001,-0.305,186007
0.013,-0.005,1.003,-0.183,186035
0.015,-0.006,1.002,-0.183,186061
0.015,-0.005,1.002,-0.305,186088
0.015,-0.005,1.002,-0.244,186117
0.014,-0.006,1.003,-0.061,186142
0.015,-0.005,1.001,-0.183,186168
0.015,-0.004,1.002,-0.183,186193
0.014,-0.006,1.002,-0.122,186218
0.014,-0.005,1.002,-0.183,186244
0.014,-0.005,1.002,-0.122,186270
0.015,-0.005,1.003,-0.061,186296
0.014,-0.006,1.001,-0.244,186321
0.015,-0.004,1.003,-0.183,186347
0.015,-0.005,1.003,-0.183,186371
0.015,-0.005,1.002,-0.244,186396
0.015,-0.006,1.003,-0.366,186422
0.014,-0.005,1.003,-0.305,186447
0.014,-0.006,1.002,-0.183,186473
0.015,-0.004,1.003,-0.244,186498
0.014,-0.006,1.003,-0.183,186525
0.015,-0.006,1.004,-0.305,186551
0.014,-0.003,1.002,-0.183,186575
0.015,-0.005,1.003,-0.244,186599
0.013,-0.004,1.001,-0.122,186625
0.015,-0.006,1.003,-0.183,186650
0.014,-0.004,1.001,-0.183,186675
0.014,-0.006,1.004,-0.244,186700
0.017,-0.005,1.003,-0.305,186724
0.015,-0.005,1.004,-0.244,186750
0.014,-0.005,1.002,-0.183,186776
0.015,-0.005,1.004,-0.122,186801
0.015,-0.005,1.002,-0.183,186827
0.015,-0.004,1.002,-0.244,186855
0.014,-0.006,1.001,-0.122,186878
0.016,-0.005,1.002,-0.122,186902
0.014,-0.005,1.001,-0.305,186926
0.013,-0.005,1.002,-0.183,186953
0.015,-0.006,1.002,-0.244,186979
0.014,-0.005,1.002,-0.122,187004
0.013,-0.004,1.002,-0.244,187030
0.015,-0.005,1.002,-0.122,187060
0.014,-0.005,1.002,-0.061,187083
0.015,-0.006,1.003,-0.122,187108
0.016,-0.006,1.002,-0.305,187133
0.015,-0.005,1.002,-0.244,187157
0.015,-0.004,1.001,-0.183,187183
0.015,-0.005,1.002,-0.061,187209
0.015,-0.005,1.003,-0.122,187233
0.014,-0.006,1.003,-0.305,187260
0.013,-0.005,1.002,-0.488,187288
0.016,-0.004,1.005,-0.183,187314
0.015,-0.005,1.003,-0.122,187340
0.013,-0.005,1.002,-0.122,187364
0.014,-0.004,1.004,-0.122,187391
0.015,-0.005,1.003,-0.183,187417
0.014,-0.003,1.001,-0.305,187444
0.013,-0.005,1.002,0.0,187467
0.013,-0.005,1.001,-0.244,187492
0.015,-0.005,1.003,-0.244,187516
0.015,-0.004,1.001,-0.366,187541
0.014,-0.006,1.003,-0.122,187564
0.013,-0.006,1.001,-0.244,187592
0.015,-0.004,1.003,-0.366,187618
0.013,-0.006,1.003,-0.183,187643
0.015,-0.004,1.002,-0.244,187668
0.015,-0.005,1.002,-0.305,187692
0.014,-0.006,1.002,-0.244,187719
0.013,-0.006,1.001,-0.244,187745
0.015,-0.006,1.003,-0.244,187770
0.014,-0.005,1.003,-0.366,187796
0.013,-0.006,1.003,-0.122,187821
0.014,-0.005,1.0,-0.122,187846
0.014,-0.006,1.002,-0.305,187872
0.015,-0.005,1.003,-0.305,187897
0.014,-0.004,1.004,-0.244,187923
0.015,-0.005,1.002,-0.122,187948
0.013,-0.006,1.003,-0.183,187972
0.014,-0.006,1.003,-0.244,187997
0.015,-0.005,1.003,-0.183,188022
0.013,-0.005,1.002,-0.244,188047
0.015,-0.005,1.002,-0.122,188072
0.015,-0.005,1.002,-0.305,188097
0.016,-0.004,1.002,-0.122,188125
0.014,-0.006,1.001,-0.122,188149
0.013,-0.005,1.002,-0.122,188173
0.012,-0.005,1.002,-0.244,188200
0.016,-0.005,1.003,-0.244,188224
0.014,-0.006,1.003,-0.183,188251
0.014,-0.005,1.002,-0.122,188278
0.014,-0.005,1.003,-0.183,188303
0.014,-0.005,1.003,-0.366,188327
0.015,-0.005,1.001,-0.183,188352
0.015,-0.005,1.002,-0.305,188377
0.014,-0.006,1.002,-0.305,188401
0.016,-0.004,1.002,-0.244,188424
0.013,-0.003,1.002,-0.244,188450
0.015,-0.006,1.002,-0.183,188475
0.013,-0.004,1.003,-0.122,188502
0.013,-0.005,1.003,-0.061,188529
0.015,-0.005,1.001,-0.183,188553
0.015,-0.006,1.003,-0.305,188579
0.015,-0.006,1.001,-0.122,188603
0.014,-0.004,1.003,-0.122,188628
0.015,-0.005,1.002,-0.122,188656
0.015,-0.005,1.0,-0.183,188683
0.013,-0.006,1.003,-0.183,188709
0.013,-0.005,1.001,-0.244,188734
0.014,-0.004,1.003,-0.183,188760
0.014,-0.005,1.002,-0.305,188787
0.013,-0.005,1.003,-0.244,188812
0.016,-0.005,1.002,-0.183,188839
0.015,-0.006,1.001,-0.244,188864
0.015,-0.006,1.002,-0.183,188889
0.014,-0.005,1.002,-0.183,188915
0.013,-0.006,1.004,-0.122,188942
0.014,-0.005,1.0,-0.305,188967
0.014,-0.005,1.002,-0.183,188991
0.014,-0.004,1.002,-0.061,189018
0.014,-0.005,1.002,-0.183,189044
0.015,-0.005,1.003,-0.183,189068
0.014,-0.005,1.001,-0.183,189092
0.013,-0.005,1.003,-0.183,189119
0.016,-0.005,1.002,-0.183,189146
0.014,-0.007,1.0,-0.244,189171
0.013,-0.005,1.001,-0.366,189195
0.014,-0.005,1.002,-0.244,189222
0.015,-0.004,1.002,-0.122,189251
0.015,-0.006,1.003,-0.244,189277
0.014,-0.005,1.002,-0.183,189301
0.014,-0.005,1.002,-0.122,189330
0.013,-0.004,1.001,-0.305,189355
0.014,-0.006,1.003,-0.244,189382
0.014,-0.005,1.002,-0.183,189407
0.014,-0.006,1.002,-0.183,189432
0.013,-0.005,1.002,-0.122,189458
0.015,-0.006,1.001,-0.183,189485
0.014,-0.006,1.001,-0.244,189509
0.014,-0.006,1.003,-0.183,189535
0.015,-0.007,1.001,-0.305,189559
0.014,-0.006,1.002,-0.244,189583
0.015,-0.006,1.004,-0.244,189608
0.013,-0.006,1.003,-0.305,189635
0.013,-0.006,1.002,-0.305,189660
0.015,-0.006,1.002,-0.305,189684
0.014,-0.006,1.004,0.0,189711
0.015,-0.005,1.004,-0.183,189736
0.015,-0.006,1.002,-0.183,189762
0.014,-0.004,1.003,-0.061,189787
0.014,-0.006,1.002,-0.183,189811
0.015,-0.004,1.001,-0.244,189839
0.014,-0.005,1.002,-0.183,189865
0.015,-0.005,1.003,-0.244,189891
0.015,-0.006,1.001,-0.183,189917
0.013,-0.005,1.003,-0.183,189941
0.014,-0.005,1.003,-0.183,189966
0.015,-0.004,1.003,-0.183,189990
0.013,-0.005,1.003,-0.244,190015
0.015,-0.006,1.002,-0.305,190040
0.013,-0.005,1.002,-0.305,190064
0.015,-0.004,1.002,-0.305,190090
0.013,-0.006,1.002,-0.244,190116
0.014,-0.005,1.002,-0.183,190143
0.015,-0.005,1.003,-0.305,190169
0.013,-0.005,1.002,-0.244,190194
0.014,-0.005,1.003,-0.244,190218
0.014,-0.005,1.003,-0.244,190243
0.013,-0.004,1.005,-0.122,190270
0.014,-0.005,1.002,-0.244,190295
0.016,-0.006,1.004,-0.244,190319
0.015,-0.005,1.003,-0.183,190344
0.014,-0.005,1.003,-0.183,190368
0.014,-0.005,1.002,-0.122,190393
0.014,-0.006,1.004,-0.244,190418
0.015,-0.007,1.001,-0.305,190444
0.014,-0.006,1.002,-0.061,190469
0.013,-0.006,1.001,-0.122,190496
0.014,-0.004,1.003,-0.244,190520
0.013,-0.007,1.002,-0.183,190547
0.015,-0.007,1.002,-0.183,190575
0.014,-0.005,1.002,-0.183,190602
0.013,-0.006,1.002,-0.183,190627
0.013,-0.006,1.001,-0.122,190651
0.013,-0.006,1.002,-0.122,190679
0.014,-0.005,1.004,-0.244,190706
0.016,-0.006,1.003,-0.122,190732
0.014,-0.004,1.003,-0.183,190762
0.016,-0.005,1.002,-0.183,190786
0.015,-0.006,1.002,-0.183,190811
0.015,-0.005,1.002,-0.122,190838
0.013,-0.005,1.002,-0.183,190864
0.013,-0.005,1.003,-0.183,190892
0.014,-0.007,1.004,-0.183,190917
0.014,-0.004,1.001,-0.122,190943
0.014,-0.005,1.001,-0.183,190970
0.014,-0.005,1.003,-0.305,190995
0.015,-0.005,1.002,-0.183,191019
0.014,-0.007,1.003,-0.122,191044
0.013,-0.005,1.004,-0.183,191069
0.014,-0.004,1.003,-0.244,191096
0.015,-0.006,1.0,-0.183,191121
0.015,-0.007,1.003,-0.305,191148
0.015,-0.004,1.002,-0.183,191174
0.015,-0.007,1.0,-0.244,191199
0.014,-0.007,1.003,-0.122,191225
0.013,-0.005,1.002,-0.305,191250
0.013,-0.005,1.002,-0.183,191279
0.015,-0.005,1.002,-0.244,191305
0.015,-0.005,1.002,0.0,191330
0.014,-0.004,1.003,-0.244,191356
0.014,-0.007,1.002,-0.244,191381
0.015,-0.004,1.001,-0.122,191404
0.017,-0.004,1.002,-0.122,191428
0.015,-0.005,1.003,-0.183,191452
0.015,-0.006,1.003,-0.305,191477
0.014,-0.005,1.002,-0.183,191504
0.014,-0.004,1.001,-0.122,191530
0.015,-0.005,1.003,-0.183,191554
0.014,-0.005,1.004,-0.305,191579
0.013,-0.004,1.002,-0.122,191606
0.014,-0.005,1.002,-0.122,191631
0.015,-0.004,1.004,-0.427,191658
0.015,-0.004,1.002,-0.244,191683
0.013,-0.008,1.002,-0.183,191711
0.014,-0.005,1.001,-0.183,191734
0.014,-0.004,1.003,-0.244,191758
0.014,-0.005,1.003,-0.183,191781
0.014,-0.007,1.002,-0.122,191806
0.015,-0.004,1.001,-0.244,191834
0.014,-0.005,1.003,-0.305,191861
0.013,-0.006,1.003,-0.183,191886
0.013,-0.005,1.001,-0.305,191910
0.015,-0.004,1.003,-0.366,191935
0.014,-0.005,1.003,-0.183,191961
0.015,-0.007,1.003,-0.122,191986
0.013,-0.006,1.004,0.0,192011
0.014,-0.005,1.002,-0.183,192037
0.014,-0.004,1.002,-0.122,192062
0.016,-0.005,1.003,-0.244,192088
0.014,-0.003,1.002,-0.244,192114
0.014,-0.007,1.002,-0.122,192141
0.014,-0.006,1.003,-0.122,192167
0.015,-0.004,1.002,-0.305,192193
0.013,-0.007,1.002,-0.122,192219
0.014,-0.005,1.002,-0.183,192246
0.013,-0.004,1.001,-0.244,192273
0.013,-0.005,1.003,-0.122,192298
0.013,-0.005,1.002,-0.244,192323
0.012,-0.006,1.002,-0.061,192350
0.013,-0.006,1.001,-0.305,192374
0.014,-0.006,1.002,-0.244,192400
0.014,-0.007,1.002,-0.061,192425
0.015,-0.004,1.004,-0.244,192452
0.014,-0.005,1.001,-0.183,192476
0.013,-0.006,1.0,-0.183,192503
0.013,-0.005,1.001,-0.183,192531
0.013,-0.005,1.003,-0.427,192556
0.014,-0.005,1.003,-0.183,192582
0.014,-0.005,1.002,-0.305,192608
0.015,-0.006,1.002,-0.183,192633
0.015,-0.006,1.0,-0.122,192657
0.014,-0.007,1.003,-0.122,192681
0.015,-0.004,1.002,-0.183,192706
0.013,-0.005,1.002,-0.244,192730
0.014,-0.005,1.002,-0.244,192755
0.013,-0.007,1.003,-0.183,192781
0.013,-0.005,1.001,-0.366,192806
0.013,-0.006,1.002,-0.244,192829
0.015,-0.006,1.001,-0.183,192853
0.015,-0.004,1.004,-0.244,192878
0.014,-0.006,1.002,-0.183,192904
0.015,-0.006,1.002,-0.122,192927
0.015,-0.003,1.002,-0.244,192951
0.014,-0.007,1.002,-0.244,192976
0.014,-0.004,1.002,-0.183,193000
0.015,-0.005,1.004,-0.122,193024
0.015,-0.006,1.002,-0.244,193052
0.014,-0.004,1.001,-0.305,193078
0.015,-0.005,1.003,-0.183,193105
0.015,-0.006,1.002,-0.122,193131
0.015,-0.005,1.002,-0.305,193158
0.015,-0.006,1.002,-0.122,193185
0.014,-0.006,1.003,-0.183,193209
0.013,-0.004,1.003,-0.183,193235
0.014,-0.005,1.001,-0.183,193260
0.015,-0.005,1.003,-0.244,193286
0.013,-0.005,1.001,-0.244,193314
0.014,-0.005,1.003,-0.427,193339
0.015,-0.005,1.0,-0.183,193364
0.014,-0.006,1.002,-0.122,193389
0.015,-0.005,1.002,-0.122,193417
0.013,-0.004,1.004,-0.183,193440
0.014,-0.006,1.002,-0.122,193465
0.014,-0.005,1.001,-0.122,193490
0.014,-0.005,1.001,0.061,193516
0.014,-0.005,1.001,-0.183,193541
0.014,-0.007,1.003,-0.244,193566
0.014,-0.004,1.003,-0.244,193592
0.013,-0.005,1.004,-0.183,193618
0.015,-0.006,1.002,-0.183,193643
0.015,-0.005,1.003,-0.183,193671
0.014,-0.004,1.003,-0.305,193696
0.014,-0.005,1.002,-0.122,193723
0.014,-0.005,1.003,-0.305,193750
0.014,-0.005,1.001,-0.305,193777
0.014,-0.004,1.003,-0.366,193802
0.014,-0.006,1.0,-0.183,193831
0.013,-0.005,1.003,-0.122,193855
0.015,-0.005,1.001,-0.122,193881
0.013,-0.005,1.003,-0.183,193906
0.014,-0.005,1.003,-0.061,193929
0.012,-0.005,1.002,-0.122,193952
0.016,-0.006,1.002,-0.305,193976
0.013,-0.005,1.003,0.061,194001
0.013,-0.005,1.0,-0.183,194026
0.013,-0.005,1.004,-0.305,194050
0.013,-0.006,1.004,-0.183,194076
0.013,-0.004,1.0,-0.183,194103
0.015,-0.005,1.003,-0.183,194127
0.016,-0.005,1.0,-0.427,194151
0.016,-0.005,1.002,-0.244,194176
0.012,-0.004,1.002,-0.122,194201
0.015,-0.005,1.001,-0.183,194226
0.015,-0.007,1.007,-0.244,194251
0.013,-0.005,1.0,-0.061,194275
0.014,-0.006,1.001,-0.183,194301
0.012,-0.007,1.003,0.0,194326
0.014,-0.005,1.002,-0.122,194350
0.015,-0.006,1.003,-0.244,194374
0.016,-0.006,1.003,-0.122,194398
0.014,-0.004,1.003,-0.244,194421
0.015,-0.003,1.002,-0.305,194448
0.014,-0.005,1.003,-0.183,194474
0.014,-0.005,1.002,-0.244,194499
0.015,-0.005,1.001,-0.183,194524
0.014,-0.005,1.002,-0.183,194549
0.014,-0.006,1.002,-0.427,194576
0.013,-0.006,1.003,-0.061,194601
0.012,-0.005,1.003,-0.183,194628
0.013,-0.006,1.001,-0.366,194654
0.014,-0.004,1.003,-0.183,194679
0.015,-0.005,1.001,-0.183,194705
0.013,-0.004,1.001,-0.305,194732
0.015,-0.007,1.001,-0.122,194757
0.014,-0.005,1.003,-0.122,194783
0.014,-0.006,1.001,-0.183,194809
0.015,-0.006,1.002,-0.244,194834
0.014,-0.005,1.004,-0.183,194860
0.014,-0.004,1.003,-0.122,194886
0.014,-0.005,1.002,-0.366,194911
0.016,-0.005,1.003,-0.183,194937
0.014,-0.004,1.003,-0.244,194962
0.015,-0.006,1.003,-0.305,194987
0.015,-0.005,1.002,-0.183,195012
0.014,-0.006,1.002,-0.244,195038
0.016,-0.004,1.003,-0.183,195065
0.015,-0.004,1.004,-0.244,195093
0.015,-0.006,1.002,-0.305,195118
0.014,-0.006,1.005,-0.305,195144
0.015,-0.006,1.003,-0.244,195171
0.015,-0.006,1.002,-0.183,195196
0.015,-0.006,1.003,-0.244,195222
0.014,-0.006,1.004,-0.122,195246
0.014,-0.005,1.002,-0.244,195271
0.013,-0.005,1.002,-0.183,195295
0.012,-0.005,1.005,-0.061,195322
0.014,-0.007,1.003,-0.122,195347
0.014,-0.005,1.001,-0.183,195374
0.013,-0.007,1.002,-0.183,195402
0.016,-0.004,1.002,-0.122,195427
0.014,-0.005,1.003,-0.183,195453
0.014,-0.005,1.005,-0.061,195479
0.013,-0.006,1.003,-0.366,195505
0.014,-0.005,1.002,-0.366,195532
0.015,-0.005,1.001,-0.305,195557
0.014,-0.006,1.002,-0.183,195582
0.015,-0.004,1.002,-0.183,195609
0.015,-0.006,1.003,-0.244,195634
0.015,-0.006,1.002,-0.183,195659
0.014,-0.005,1.002,-0.122,195685
0.015,-0.006,1.002,-0.122,195710
0.014,-0.005,1.003,-0.305,195735
0.014,-0.005,1.004,-0.244,195762
0.014,-0.006,1.003,-0.183,195787
0.015,-0.006,1.002,-0.183,195812
0.014,-0.005,1.003,-0.244,195837
0.014,-0.006,1.003,-0.183,195864
0.014,-0.005,1.003,-0.244,195889
0.013,-0.005,1.003,-0.183,195915
0.012,-0.006,1.002,-0.183,195941
0.014,-0.005,1.004,-0.183,195968
0.015,-0.005,1.003,-0.244,195991
0.014,-0.005,1.002,-0.183,196016
0.016,-0.004,1.003,-0.244,196041
0.013,-0.006,1.002,-0.244,196067
0.013,-0.006,1.004,-0.244,196093
0.015,-0.007,1.004,-0.305,196117
0.014,-0.005,1.002,-0.061,196142
0.015,-0.005,1.001,-0.244,196167
0.014,-0.006,1.002,-0.244,196191
0.013,-0.007,1.002,-0.244,196215
0.013,-0.004,1.002,-0.366,196243
0.015,-0.005,1.004,-0.122,196268
0.014,-0.005,1.003,-0.061,196294
0.014,-0.005,1.002,0.0,196318
0.014,-0.004,1.002,-0.244,196345
0.014,-0.006,1.002,-0.122,196372
0.016,-0.005,1.004,-0.183,196396
0.015,-0.005,1.002,-0.244,196421
0.014,-0.005,1.004,-0.244,196448
0.017,-0.004,1.004,-0.183,196472
0.015,-0.005,1.002,-0.244,196499
0.014,-0.005,1.003,-0.183,196523
0.016,-0.006,1.003,-0.183,196548
0.017,-0.006,1.0,-0.183,196574
0.014,-0.006,1.004,-0.366,196602
0.014,-0.005,1.002,-0.244,196629
0.015,-0.007,1.002,-0.122,196655
0.015,-0.004,1.002,-0.244,196679
0.013,-0.005,1.002,-0.305,196709
0.015,-0.004,1.002,-0.122,196733
0.014,-0.006,1.001,-0.366,196756
0.015,-0.005,1.002,-0.122,196782
0.013,-0.005,1.002,-0.244,196809
0.016,-0.005,1.002,-0.305,196834
0.015,-0.005,1.002,-0.122,196861
0.015,-0.006,1.004,-0.183,196888
0.014,-0.005,1.001,-0.244,196911
0.014,-0.006,1.003,-0.305,196936
0.014,-0.004,1.003,-0.305,196963
0.014,-0.006,1.0,-0.183,196988
0.015,-0.004,1.004,-0.305,197013
0.016,-0.005,1.001,-0.061,197039
0.013,-0.006,1.002,-0.183,197063
0.015,-0.005,1.003,-0.183,197090
0.014,-0.005,1.002,-0.244,197116
0.015,-0.004,1.002,-0.122,197142
0.013,-0.005,1.004,-0.061,197167
0.014,-0.006,1.002,-0.183,197192
0.014,-0.006,1.003,0.0,197216
0.014,-0.006,1.002,-0.183,197241
0.014,-0.004,1.002,-0.183,197271
0.015,-0.005,1.001,-0.305,197298
0.015,-0.006,1.002,-0.305,197323
0.014,-0.006,1.002,-0.244,197349
0.015,-0.005,1.002,-0.366,197375
0.013,-0.006,1.003,-0.122,197401
0.013,-0.006,1.003,-0.244,197425
0.013,-0.006,1.003,-0.305,197449
0.015,-0.005,1.002,-0.061,197473
0.014,-0.005,1.001,-0.244,197496
0.014,-0.005,1.004,-0.122,197524
0.014,-0.004,1.003,-0.244,197549
0.016,-0.006,1.002,-0.244,197574
0.012,-0.005,1.001,-0.122,197599
0.014,-0.005,1.002,-0.061,197623
0.013,-0.005,1.003,-0.244,197647
0.014,-0.006,1.001,-0.183,197674
0.015,-0.005,1.003,-0.183,197697
0.014,-0.006,1.003,-0.183,197725
0.015,-0.005,1.001,-0.183,197748
0.015,-0.006,1.003,-0.305,197774
0.015,-0.006,1.002,-0.183,197800
0.015,-0.005,1.001,-0.244,197828
0.014,-0.006,1.002,-0.427,197853
0.013,-0.006,1.002,-0.244,197878
0.015,-0.004,1.001,-0.305,197904
0.014,-0.005,1.003,-0.183,197929
0.014,-0.006,1.001,-0.122,197952
0.014,-0.006,1.003,-0.122,197978
0.014,-0.006,1.002,0.0,198002
0.014,-0.006,1.001,-0.183,198028
0.015,-0.006,1.003,-0.183,198054
0.017,-0.005,1.004,-0.122,198079
0.015,-0.006,1.002,-0.305,198104
0.014,-0.005,1.001,-0.183,198129
0.015,-0.006,1.003,-0.305,198155
0.014,-0.004,1.002,-0.305,198179
0.014,-0.006,1.003,-0.122,198203
0.014,-0.006,1.001,-0.305,198233
0.013,-0.006,1.002,-0.061,198262
0.014,-0.006,1.001,-0.244,198286
0.014,-0.005,1.003,-0.305,198311
0.016,-0.006,1.002,-0.305,198336
0.012,-0.004,1.002,-0.122,198360
0.015,-0.006,1.003,-0.183,198385
0.016,-0.006,1.002,-0.305,198410
0.013,-0.006,1.002,-0.305,198436
0.014,-0.006,1.003,-0.244,198462
0.013,-0.006,1.003,-0.305,198486
0.015,-0.005,1.002,-0.183,198509
0.014,-0.004,1.003,-0.305,198532
0.014,-0.007,1.003,-0.061,198559
0.016,-0.004,1.003,-0.122,198584
0.014,-0.006,1.0,-0.244,198610
0.013,-0.005,1.005,-0.183,198635
0.015,-0.006,1.002,-0.061,198660
0.016,-0.006,1.004,-0.244,198685
0.014,-0.004,1.003,-0.366,198713
0.014,-0.006,1.002,-0.244,198738
0.015,-0.005,1.002,-0.122,198762
0.014,-0.005,1.002,-0.183,198786
0.014,-0.005,1.003,-0.244,198810
0.013,-0.005,1.001,-0.122,198838
0.013,-0.007,1.003,-0.183,198863
